thisN,thisTrialN,thisRepN,Cue,Target,Mediator1,Mediator2,iti,scanner_ready_press.keys,scanner_ready_press.rt,scanner_ready_press.duration,skip_trigger.keys,living_nonliving.keys,living_nonliving.rt,living_nonliving.duration,end_mapping.keys,blocks.thisRepN,blocks.thisTrialN,blocks.thisN,blocks.thisIndex,load_and_shuffle.thisRepN,load_and_shuffle.thisTrialN,load_and_shuffle.thisN,load_and_shuffle.thisIndex,runs.thisRepN,runs.thisTrialN,runs.thisN,runs.thisIndex,iti_loading_loop.thisRepN,iti_loading_loop.thisTrialN,iti_loading_loop.thisN,iti_loading_loop.thisIndex,semantic_mapping_run.thisRepN,semantic_mapping_run.thisTrialN,semantic_mapping_run.thisN,semantic_mapping_run.thisIndex,thisRow.t,notes,welcome.started,welcome_text.started,welcome_text.stopped,welcome.stopped,instructions_semantic_mapping1.started,sm_instructions1_text.started,sm_instructions1_key.started,instructions_semantic_mapping1.stopped,sm_instructions1_key.keys,sm_instructions1_key.rt,sm_instructions1_key.duration,instructions_semantic_mapping2.started,sm_instructions2_text.started,sm_instructions2_key.started,instructions_semantic_mapping2.stopped,sm_instructions2_key.keys,sm_instructions2_key.rt,sm_instructions2_key.duration,reset_run.started,reset_run.stopped,shuffle_items.started,shuffle_items.stopped,set_up_runs.started,set_up_runs.stopped,load_iti.started,load_iti.stopped,prep_scanner.started,scanner_ready_press.started,ready_set_text.started,prep_scanner.stopped,runs.scanner_ready_press.keys,runs.scanner_ready_press.rt,runs.scanner_ready_press.duration,wait_for_trigger.started,starting_soon.started,skip_trigger.started,wait_for_trigger.stopped,runs.skip_trigger.keys,blank.started,blank_cross.started,blank.stopped,CurrentItem,CurrentITI,set_up_trial.started,set_up_trial.stopped,sm_iti.started,iti_cross.started,iti_cross.stopped,sm_iti.stopped,item.started,living_nonliving.started,end_mapping.started,living_nonliving_text.started,semantic_map_item.started,living_nonliving.stopped,end_mapping.stopped,living_nonliving_text.stopped,semantic_map_item.stopped,item.stopped,semantic_mapping_run.living_nonliving.keys,semantic_mapping_run.living_nonliving.rt,semantic_mapping_run.living_nonliving.duration,semantic_mapping_run.end_mapping.keys,task_break.started,task_break_text.started,task_break_resp.started,task_break.stopped,runs.task_break_resp.keys,runs.task_break_resp.rt,runs.task_break_resp.duration,blank_cross.stopped,PID,Alter,Geschlecht (optional),MRI,date,expName,psychopyVersion,frameRate,expStart,
,,,,,,,,,,,,,,,,,,,,,,,,,,,,,,,,,,,,,,0.0032538999994358164,0.008852500000102737,3.008131799999319,2.9925979999998162,,,,,,,,,,,,,,,,,,,,,,,,,,,,,,,,,,,,,,,,,,,,,,,,,,,,,,,,,,,,,,,,,,,,Guess_8294,22,female,1,2025-05-10_11h32.01.600,sm,2024.2.4,59.97015884895574,2025-05-10 11h32.28.212208 +0200,
,,,,,,,,,,,,,,,,,,,,,,,,,,,,,,,,,,,,,,,,,,2.9926900000000387,3.008131799999319,3.008131799999319,7.115828199999669,2,4.095242499999586,None,,,,,,,,,,,,,,,,,,,,,,,,,,,,,,,,,,,,,,,,,,,,,,,,,,,,,,,,,,,,,Guess_8294,22,female,1,2025-05-10_11h32.01.600,sm,2024.2.4,59.97015884895574,2025-05-10 11h32.28.212208 +0200,
,,,,,,,,,,,,,,,,,,,,,,,,,,,,,,,,,,,,,,,,,,,,,,,,,7.115954099999726,7.12524940000003,7.12524940000003,8.559843399999409,2,1.4314067999994222,None,,,,,,,,,,,,,,,,,,,,,,,,,,,,,,,,,,,,,,,,,,,,,,,,,,,,,,Guess_8294,22,female,1,2025-05-10_11h32.01.600,sm,2024.2.4,59.97015884895574,2025-05-10 11h32.28.212208 +0200,
0,0,0,Spinne,Beine,Netz,Schwarz,2.7357,space,10.401843800000279,None,None,3,1.1474967000003744,0.5172013000001243,None,0,0,0,0,0,79,79,18,0,0,0,0,0,79,79,2,0,0,0,0,43.5221176999994,,,,,,,,,,,,,,,,,,,,8.560669099999359,8.561376999999993,8.62401299999965,8.624257200000102,8.62877219999973,8.629064699999617,8.657558399999289,8.657747199999903,8.663798699999461,8.668982099999994,8.668982099999994,19.073741399999562,space,10.401843800000279,None,19.073900200000026,19.091072000000167,19.091072000000167,31.491184699999394,None,31.497435700000096,31.5071625999999,43.506093599999986,Herbst,2.7357,43.50752019999982,43.508293899999444,43.51191159999962,43.5221176999994,46.27285589999974,46.25681159999931,46.2631750999999,46.27285589999974,46.27285589999974,46.27285589999974,46.27285589999974,48.272130899999866,48.272130899999866,48.272130899999866,48.272130899999866,48.25684679999995,3,1.1474967000003744,0.5172013000001243,None,,,,,,,,,Guess_8294,22,female,1,2025-05-10_11h32.01.600,sm,2024.2.4,59.97015884895574,2025-05-10 11h32.28.212208 +0200,
1,0,1,,,,,,space,10.401843800000279,None,None,3,0.8729844999998022,0.34097599999950035,None,0,0,0,0,,,,,0,0,0,0,,,,,1,0,1,0,48.272130899999866,,,,,,,,,,,,,,,,,,,,,,,,,,,,,,,,,,,,,,,,,,,Kuchen ,2.1949,48.257326799999646,48.25782739999977,48.25792399999955,48.272130899999866,50.47178089999943,50.4562348999998,50.46207879999929,50.47178089999943,50.47178089999943,50.47178089999943,50.47178089999943,52.47384069999953,52.47384069999953,52.47384069999953,52.47384069999953,52.45653839999977,3,0.8729844999998022,0.34097599999950035,None,,,,,,,,,Guess_8294,22,female,1,2025-05-10_11h32.01.600,sm,2024.2.4,59.97015884895574,2025-05-10 11h32.28.212208 +0200,
2,0,2,,,,,,space,10.401843800000279,None,None,3,0.7427453999998761,0.25771700000041164,None,0,0,0,0,,,,,0,0,0,0,,,,,2,0,2,0,52.47384069999953,,,,,,,,,,,,,,,,,,,,,,,,,,,,,,,,,,,,,,,,,,,Schlüssel,3.0127,52.457029899999725,52.4575562,52.45766360000016,52.47384069999953,55.488149599999815,55.472622399999636,55.47672770000008,55.488149599999815,55.488149599999815,55.488149599999815,55.488149599999815,57.48815669999931,57.48815669999931,57.48815669999931,57.48815669999931,57.472694899999624,3,0.7427453999998761,0.25771700000041164,None,,,,,,,,,Guess_8294,22,female,1,2025-05-10_11h32.01.600,sm,2024.2.4,59.97015884895574,2025-05-10 11h32.28.212208 +0200,
3,0,3,,,,,,space,10.401843800000279,None,None,3,0.939548599999398,0.2426848000004611,None,0,0,0,0,,,,,0,0,0,0,,,,,3,0,3,0,57.48815669999931,,,,,,,,,,,,,,,,,,,,,,,,,,,,,,,,,,,,,,,,,,,Arbeit,2.4167,57.47318649999943,57.47385679999934,57.47396140000001,57.48815669999931,59.90481180000006,59.88892719999967,59.892660099999375,59.90481180000006,59.90481180000006,59.90481180000006,59.90481180000006,61.90470899999946,61.90470899999946,61.90470899999946,61.90470899999946,61.88899539999966,3,0.939548599999398,0.2426848000004611,None,,,,,,,,,Guess_8294,22,female,1,2025-05-10_11h32.01.600,sm,2024.2.4,59.97015884895574,2025-05-10 11h32.28.212208 +0200,
4,0,4,,,,,,space,10.401843800000279,None,None,3,0.7201826000000437,0.22746160000042437,None,0,0,0,0,,,,,0,0,0,0,,,,,4,0,4,0,61.90470899999946,,,,,,,,,,,,,,,,,,,,,,,,,,,,,,,,,,,,,,,,,,,Tasche,2.8516,61.88949270000012,61.89001359999929,61.890121099999305,61.90470899999946,64.77088409999942,64.75542349999978,64.76080189999993,64.77088409999942,64.77088409999942,64.77088409999942,64.77088409999942,66.77116990000013,66.77116990000013,66.77116990000013,66.77116990000013,66.75540209999963,3,0.7201826000000437,0.22746160000042437,None,,,,,,,,,Guess_8294,22,female,1,2025-05-10_11h32.01.600,sm,2024.2.4,59.97015884895574,2025-05-10 11h32.28.212208 +0200,
5,0,5,,,,,,space,10.401843800000279,None,None,2,0.8415746999999101,0.251689499999884,None,0,0,0,0,,,,,0,0,0,0,,,,,5,0,5,0,66.77116990000013,,,,,,,,,,,,,,,,,,,,,,,,,,,,,,,,,,,,,,,,,,,Kopf,3.6723,66.75589249999939,66.75653969999985,66.75664710000001,66.77116990000013,70.45401989999937,70.43838899999992,70.4417257999994,70.45401989999937,70.45401989999937,70.45401989999937,70.45401989999937,72.4539734,72.4539734,72.4539734,72.4539734,72.43845899999997,2,0.8415746999999101,0.251689499999884,None,,,,,,,,,Guess_8294,22,female,1,2025-05-10_11h32.01.600,sm,2024.2.4,59.97015884895574,2025-05-10 11h32.28.212208 +0200,
6,0,6,,,,,,space,10.401843800000279,None,None,2,0.7260991000002832,0.2692104999996445,None,0,0,0,0,,,,,0,0,0,0,,,,,6,0,6,0,72.4539734,,,,,,,,,,,,,,,,,,,,,,,,,,,,,,,,,,,,,,,,,,,Nase,2.0168,72.43895429999975,72.43947750000007,72.43959349999932,72.4539734,74.47056710000015,74.45487189999949,74.45861569999943,74.47056710000015,74.47056710000015,74.47056710000015,74.47056710000015,76.4708187999995,76.4708187999995,76.4708187999995,76.4708187999995,76.45500230000016,2,0.7260991000002832,0.2692104999996445,None,,,,,,,,,Guess_8294,22,female,1,2025-05-10_11h32.01.600,sm,2024.2.4,59.97015884895574,2025-05-10 11h32.28.212208 +0200,
7,0,7,,,,,,space,10.401843800000279,None,None,3,0.9529752999997072,0.22432130000015604,None,0,0,0,0,,,,,0,0,0,0,,,,,7,0,7,0,76.4708187999995,,,,,,,,,,,,,,,,,,,,,,,,,,,,,,,,,,,,,,,,,,,Kino,3.8592,76.45549799999935,76.45601230000011,76.45611839999947,76.4708187999995,80.33692169999995,80.32107449999967,80.32438980000006,80.33692169999995,80.33692169999995,80.33692169999995,80.33692169999995,82.33678869999949,82.33678869999949,82.33678869999949,82.33678869999949,82.32127140000011,3,0.9529752999997072,0.22432130000015604,None,,,,,,,,,Guess_8294,22,female,1,2025-05-10_11h32.01.600,sm,2024.2.4,59.97015884895574,2025-05-10 11h32.28.212208 +0200,
8,0,8,,,,,,space,10.401843800000279,None,None,3,0.9620918000000529,0.2080089000000953,None,0,0,0,0,,,,,0,0,0,0,,,,,8,0,8,0,82.33678869999949,,,,,,,,,,,,,,,,,,,,,,,,,,,,,,,,,,,,,,,,,,,Tube,2.1831,82.32176900000013,82.32242369999949,82.32252809999954,82.33678869999949,84.51989400000002,84.50435500000003,84.50793019999946,84.51989400000002,84.51989400000002,84.51989400000002,84.51989400000002,86.51987259999987,86.51987259999987,86.51987259999987,86.51987259999987,86.50433019999946,3,0.9620918000000529,0.2080089000000953,None,,,,,,,,,Guess_8294,22,female,1,2025-05-10_11h32.01.600,sm,2024.2.4,59.97015884895574,2025-05-10 11h32.28.212208 +0200,
9,0,9,,,,,,space,10.401843800000279,None,None,3,0.978743100000429,0.23039349999999104,None,0,0,0,0,,,,,0,0,0,0,,,,,9,0,9,0,86.51987259999987,,,,,,,,,,,,,,,,,,,,,,,,,,,,,,,,,,,,,,,,,,,Safari,4.3424,86.5048197999995,86.50548199999957,86.50558799999999,86.51987259999987,90.8701658,90.85385799999949,90.85759330000019,90.8701658,90.8701658,90.8701658,90.8701658,92.86961109999993,92.86961109999993,92.86961109999993,92.86961109999993,92.8539111,3,0.978743100000429,0.23039349999999104,None,,,,,,,,,Guess_8294,22,female,1,2025-05-10_11h32.01.600,sm,2024.2.4,59.97015884895574,2025-05-10 11h32.28.212208 +0200,
10,0,10,,,,,,space,10.401843800000279,None,None,3,0.6876321999998254,0.2623332000002847,None,0,0,0,0,,,,,0,0,0,0,,,,,10,0,10,0,92.86961109999993,,,,,,,,,,,,,,,,,,,,,,,,,,,,,,,,,,,,,,,,,,,Kabine,4.7208,92.85441050000009,92.85493129999941,92.85503599999993,92.86961109999993,97.60247829999935,97.5867245999998,97.59038809999947,97.60247829999935,97.60247829999935,97.60247829999935,97.60247829999935,99.60268429999996,99.60268429999996,99.60268429999996,99.60268429999996,99.58703689999948,3,0.6876321999998254,0.2623332000002847,None,,,,,,,,,Guess_8294,22,female,1,2025-05-10_11h32.01.600,sm,2024.2.4,59.97015884895574,2025-05-10 11h32.28.212208 +0200,
11,0,11,,,,,,space,10.401843800000279,None,None,3,0.9330908000001727,0.25546959999974206,None,0,0,0,0,,,,,0,0,0,0,,,,,11,0,11,0,99.60268429999996,,,,,,,,,,,,,,,,,,,,,,,,,,,,,,,,,,,,,,,,,,,Gegenwart,3.189,99.58753489999981,99.58806379999987,99.58817480000016,99.60268429999996,102.80224670000007,102.7865054999993,102.79130189999978,102.80224670000007,102.80224670000007,102.80224670000007,102.80224670000007,104.80214290000004,104.80214290000004,104.80214290000004,104.80214290000004,104.78668569999991,3,0.9330908000001727,0.25546959999974206,None,,,,,,,,,Guess_8294,22,female,1,2025-05-10_11h32.01.600,sm,2024.2.4,59.97015884895574,2025-05-10 11h32.28.212208 +0200,
12,0,12,,,,,,space,10.401843800000279,None,None,3,0.8262200000008306,0.2676612999994177,None,0,0,0,0,,,,,0,0,0,0,,,,,12,0,12,0,104.80214290000004,,,,,,,,,,,,,,,,,,,,,,,,,,,,,,,,,,,,,,,,,,,Tablett,3.6005,104.78719509999974,104.78780079999979,104.78790620000018,104.80214290000004,108.40169460000016,108.38620489999994,108.38964419999957,108.40169460000016,108.40169460000016,108.40169460000016,108.40169460000016,110.40189709999959,110.40189709999959,110.40189709999959,110.40189709999959,110.38625330000013,3,0.8262200000008306,0.2676612999994177,None,,,,,,,,,Guess_8294,22,female,1,2025-05-10_11h32.01.600,sm,2024.2.4,59.97015884895574,2025-05-10 11h32.28.212208 +0200,
13,0,13,,,,,,space,10.401843800000279,None,None,3,0.7003680999996504,0.2502806000002238,None,0,0,0,0,,,,,0,0,0,0,,,,,13,0,13,0,110.40189709999959,,,,,,,,,,,,,,,,,,,,,,,,,,,,,,,,,,,,,,,,,,,Stein,4.4429,110.38674850000007,110.38726159999987,110.38736479999989,110.40189709999959,114.85152179999932,114.83597060000011,114.83969549999983,114.85152179999932,114.85152179999932,114.85152179999932,114.85152179999932,116.85167910000018,116.85167910000018,116.85167910000018,116.85167910000018,116.83581969999977,3,0.7003680999996504,0.2502806000002238,None,,,,,,,,,Guess_8294,22,female,1,2025-05-10_11h32.01.600,sm,2024.2.4,59.97015884895574,2025-05-10 11h32.28.212208 +0200,
14,0,14,,,,,,space,10.401843800000279,None,None,3,0.8126053000005413,0.2536080999998376,None,0,0,0,0,,,,,0,0,0,0,,,,,14,0,14,0,116.85167910000018,,,,,,,,,,,,,,,,,,,,,,,,,,,,,,,,,,,,,,,,,,,Gleis,2.0842,116.83631569999943,116.83683430000019,116.83693969999968,116.85167910000018,118.95138359999964,118.93586929999947,118.93978819999938,118.95138359999964,118.95138359999964,118.95138359999964,118.95138359999964,120.95131419999962,120.95131419999962,120.95131419999962,120.95131419999962,120.93564139999944,3,0.8126053000005413,0.2536080999998376,None,,,,,,,,,Guess_8294,22,female,1,2025-05-10_11h32.01.600,sm,2024.2.4,59.97015884895574,2025-05-10 11h32.28.212208 +0200,
15,0,15,,,,,,space,10.401843800000279,None,None,3,1.1901444999994055,0.25867569999991247,None,0,0,0,0,,,,,0,0,0,0,,,,,15,0,15,0,120.95131419999962,,,,,,,,,,,,,,,,,,,,,,,,,,,,,,,,,,,,,,,,,,,Universität,2.5519,120.93613980000009,120.93664939999962,120.9367543999997,120.95131419999962,123.51764259999982,123.50207520000004,123.50896039999952,123.51764259999982,123.51764259999982,123.51764259999982,123.51764259999982,125.51783829999931,125.51783829999931,125.51783829999931,125.51783829999931,125.5019956999995,3,1.1901444999994055,0.25867569999991247,None,,,,,,,,,Guess_8294,22,female,1,2025-05-10_11h32.01.600,sm,2024.2.4,59.97015884895574,2025-05-10 11h32.28.212208 +0200,
16,0,16,,,,,,space,10.401843800000279,None,None,3,1.153838199999882,0.282281900000271,None,0,0,0,0,,,,,0,0,0,0,,,,,16,0,16,0,125.51783829999931,,,,,,,,,,,,,,,,,,,,,,,,,,,,,,,,,,,,,,,,,,,Rot,2.2129,125.50253329999941,125.50305930000013,125.50316329999987,125.51783829999931,127.73417340000015,127.71908919999987,127.7231025000001,127.73417340000015,127.73417340000015,127.73417340000015,127.73417340000015,129.7341063999993,129.7341063999993,129.7341063999993,129.7341063999993,129.71861939999962,3,1.153838199999882,0.282281900000271,None,,,,,,,,,Guess_8294,22,female,1,2025-05-10_11h32.01.600,sm,2024.2.4,59.97015884895574,2025-05-10 11h32.28.212208 +0200,
17,0,17,,,,,,space,10.401843800000279,None,None,2,0.6952280000004976,0.25437719999990804,None,0,0,0,0,,,,,0,0,0,0,,,,,17,0,17,0,129.7341063999993,,,,,,,,,,,,,,,,,,,,,,,,,,,,,,,,,,,,,,,,,,,Zwerg,2.5169,129.7191084999995,129.71975939999993,129.71986519999973,129.7341063999993,132.2506171999994,132.23502329999974,132.2417779999996,132.2506171999994,132.2506171999994,132.2506171999994,132.2506171999994,134.25096810000014,134.25096810000014,134.25096810000014,134.25096810000014,134.23487059999934,2,0.6952280000004976,0.25437719999990804,None,,,,,,,,,Guess_8294,22,female,1,2025-05-10_11h32.01.600,sm,2024.2.4,59.97015884895574,2025-05-10 11h32.28.212208 +0200,
18,0,18,,,,,,space,10.401843800000279,None,None,2,0.6790197999998782,0.23940800000036688,None,0,0,0,0,,,,,0,0,0,0,,,,,18,0,18,0,134.25096810000014,,,,,,,,,,,,,,,,,,,,,,,,,,,,,,,,,,,,,,,,,,,Geschwister,3.6615,134.2353618999996,134.23603120000007,134.2361394999998,134.25096810000014,137.91654239999934,137.90102799999931,137.90492149999955,137.91654239999934,137.91654239999934,137.91654239999934,137.91654239999934,139.91688629999953,139.91688629999953,139.91688629999953,139.91688629999953,139.90115100000003,2,0.6790197999998782,0.23940800000036688,None,,,,,,,,,Guess_8294,22,female,1,2025-05-10_11h32.01.600,sm,2024.2.4,59.97015884895574,2025-05-10 11h32.28.212208 +0200,
19,0,19,,,,,,space,10.401843800000279,None,None,3,1.1199398999997356,0.26877630000035424,None,0,0,0,0,,,,,0,0,0,0,,,,,19,0,19,0,139.91688629999953,,,,,,,,,,,,,,,,,,,,,,,,,,,,,,,,,,,,,,,,,,,Scheidung,2.9645,139.90162429999964,139.9022944999997,139.90244449999955,139.91688629999953,142.8828864999996,142.86734269999943,142.87108970000008,142.8828864999996,142.8828864999996,142.8828864999996,142.8828864999996,144.88316189999932,144.88316189999932,144.88316189999932,144.88316189999932,144.86781569999948,3,1.1199398999997356,0.26877630000035424,None,,,,,,,,,Guess_8294,22,female,1,2025-05-10_11h32.01.600,sm,2024.2.4,59.97015884895574,2025-05-10 11h32.28.212208 +0200,
20,0,20,,,,,,space,10.401843800000279,None,None,3,0.9177545000002283,0.23935919999985344,None,0,0,0,0,,,,,0,0,0,0,,,,,20,0,20,0,144.88316189999932,,,,,,,,,,,,,,,,,,,,,,,,,,,,,,,,,,,,,,,,,,,Schnürsenkel,3.2059,144.86831249999977,144.86883129999933,144.86893819999932,144.88316189999932,148.09965219999958,148.08383349999986,148.08772489999956,148.09965219999958,148.09965219999958,148.09965219999958,148.09965219999958,150.09958499999993,150.09958499999993,150.09958499999993,150.09958499999993,150.08391560000018,3,0.9177545000002283,0.23935919999985344,None,,,,,,,,,Guess_8294,22,female,1,2025-05-10_11h32.01.600,sm,2024.2.4,59.97015884895574,2025-05-10 11h32.28.212208 +0200,
21,0,21,,,,,,space,10.401843800000279,None,None,2,0.8242534000000887,0.2503286000001026,None,0,0,0,0,,,,,0,0,0,0,,,,,21,0,21,0,150.09958499999993,,,,,,,,,,,,,,,,,,,,,,,,,,,,,,,,,,,,,,,,,,,Agent,3.0547,150.08441069999935,150.08492569999999,150.08503269999983,150.09958499999993,153.1660996999999,153.15074319999985,153.15443069999947,153.1660996999999,153.1660996999999,153.1660996999999,153.1660996999999,155.16596539999955,155.16596539999955,155.16596539999955,155.16596539999955,155.15028749999965,2,0.8242534000000887,0.2503286000001026,None,,,,,,,,,Guess_8294,22,female,1,2025-05-10_11h32.01.600,sm,2024.2.4,59.97015884895574,2025-05-10 11h32.28.212208 +0200,
22,0,22,,,,,,space,10.401843800000279,None,None,3,0.8474504999994679,0.24870319999990897,None,0,0,0,0,,,,,0,0,0,0,,,,,22,0,22,0,155.16596539999955,,,,,,,,,,,,,,,,,,,,,,,,,,,,,,,,,,,,,,,,,,,Krone,2.7378,155.15078749999975,155.1512985999998,155.1514084999999,155.16596539999955,157.91553999999996,157.8999721,157.9036527999997,157.91553999999996,157.91553999999996,157.91553999999996,157.91553999999996,159.91561009999987,159.91561009999987,159.91561009999987,159.91561009999987,159.90017099999932,3,0.8474504999994679,0.24870319999990897,None,,,,,,,,,Guess_8294,22,female,1,2025-05-10_11h32.01.600,sm,2024.2.4,59.97015884895574,2025-05-10 11h32.28.212208 +0200,
23,0,23,,,,,,space,10.401843800000279,None,None,2,0.7386954000003243,0.22909770000023855,None,0,0,0,0,,,,,0,0,0,0,,,,,23,0,23,0,159.91561009999987,,,,,,,,,,,,,,,,,,,,,,,,,,,,,,,,,,,,,,,,,,,Spinne,2.0031,159.90066939999997,159.90119099999993,159.9012944999995,159.91561009999987,161.93204890000015,161.91686440000012,161.9210508999995,161.93204890000015,161.93204890000015,161.93204890000015,161.93204890000015,163.9320487999994,163.9320487999994,163.9320487999994,163.9320487999994,163.9164942999996,2,0.7386954000003243,0.22909770000023855,None,,,,,,,,,Guess_8294,22,female,1,2025-05-10_11h32.01.600,sm,2024.2.4,59.97015884895574,2025-05-10 11h32.28.212208 +0200,
24,0,24,,,,,,space,10.401843800000279,None,None,3,0.7689046999994389,0.226385100000698,None,0,0,0,0,,,,,0,0,0,0,,,,,24,0,24,0,163.9320487999994,,,,,,,,,,,,,,,,,,,,,,,,,,,,,,,,,,,,,,,,,,,Schnee,3.1264,163.91699289999997,163.9175207999997,163.91762719999952,163.9320487999994,167.0653616999998,167.0495360999994,167.05372199999965,167.0653616999998,167.0653616999998,167.0653616999998,167.0653616999998,169.06522479999967,169.06522479999967,169.06522479999967,169.06522479999967,169.04948960000002,3,0.7689046999994389,0.226385100000698,None,,,,,,,,,Guess_8294,22,female,1,2025-05-10_11h32.01.600,sm,2024.2.4,59.97015884895574,2025-05-10 11h32.28.212208 +0200,
25,0,25,,,,,,space,10.401843800000279,None,None,3,0.7599482999994507,0.2171502999999575,None,0,0,0,0,,,,,0,0,0,0,,,,,25,0,25,0,169.06522479999967,,,,,,,,,,,,,,,,,,,,,,,,,,,,,,,,,,,,,,,,,,,Ball,2.83,169.04997920000005,169.05062499999985,169.05073059999995,169.06522479999967,171.89828020000004,171.8830967999993,171.88682079999944,171.89828020000004,171.89828020000004,171.89828020000004,171.89828020000004,173.8982393999995,173.8982393999995,173.8982393999995,173.8982393999995,173.88284339999973,3,0.7599482999994507,0.2171502999999575,None,,,,,,,,,Guess_8294,22,female,1,2025-05-10_11h32.01.600,sm,2024.2.4,59.97015884895574,2025-05-10 11h32.28.212208 +0200,
26,0,26,,,,,,space,10.401843800000279,None,None,3,0.6852843000006033,0.208785099999659,None,0,0,0,0,,,,,0,0,0,0,,,,,26,0,26,0,173.8982393999995,,,,,,,,,,,,,,,,,,,,,,,,,,,,,,,,,,,,,,,,,,,Seife,2.7992,173.8833356999994,173.88386919999994,173.88397449999957,173.8982393999995,176.69791729999997,176.68231120000019,176.68647799999962,176.69791729999997,176.69791729999997,176.69791729999997,176.69791729999997,178.6979868999997,178.6979868999997,178.6979868999997,178.6979868999997,178.68249819999983,3,0.6852843000006033,0.208785099999659,None,,,,,,,,,Guess_8294,22,female,1,2025-05-10_11h32.01.600,sm,2024.2.4,59.97015884895574,2025-05-10 11h32.28.212208 +0200,
27,0,27,,,,,,space,10.401843800000279,None,None,3,0.8376975999999559,0.2853964999994787,None,0,0,0,0,,,,,0,0,0,0,,,,,27,0,27,0,178.6979868999997,,,,,,,,,,,,,,,,,,,,,,,,,,,,,,,,,,,,,,,,,,,Nacht,2.3861,178.68299190000016,178.68352689999938,178.6836358999999,178.6979868999997,181.0976396999995,181.08191859999988,181.0853492999995,181.0976396999995,181.0976396999995,181.0976396999995,181.0976396999995,183.0975638,183.0975638,183.0975638,183.0975638,183.08202189999975,3,0.8376975999999559,0.2853964999994787,None,,,,,,,,,Guess_8294,22,female,1,2025-05-10_11h32.01.600,sm,2024.2.4,59.97015884895574,2025-05-10 11h32.28.212208 +0200,
28,0,28,,,,,,space,10.401843800000279,None,None,2,1.2729417999998986,0.24897250000049098,None,0,0,0,0,,,,,0,0,0,0,,,,,28,0,28,0,183.0975638,,,,,,,,,,,,,,,,,,,,,,,,,,,,,,,,,,,,,,,,,,,Sumpf,2.3916,183.0825132,183.0830245999996,183.08313069999986,183.0975638,185.49764549999963,185.4817923999999,185.48575029999938,185.49764549999963,185.49764549999963,185.49764549999963,185.49764549999963,187.49788199999966,187.49788199999966,187.49788199999966,187.49788199999966,187.48197679999976,2,1.2729417999998986,0.24897250000049098,None,,,,,,,,,Guess_8294,22,female,1,2025-05-10_11h32.01.600,sm,2024.2.4,59.97015884895574,2025-05-10 11h32.28.212208 +0200,
29,0,29,,,,,,space,10.401843800000279,None,None,3,0.9452178999999887,0.23818149999988236,None,0,0,0,0,,,,,0,0,0,0,,,,,29,0,29,0,187.49788199999966,,,,,,,,,,,,,,,,,,,,,,,,,,,,,,,,,,,,,,,,,,,Datei,2.8901,187.4824652999996,187.48301179999999,187.4831220999995,187.49788199999966,190.3972647999999,190.38187359999938,190.38592919999974,190.3972647999999,190.3972647999999,190.3972647999999,190.3972647999999,192.39722829999937,192.39722829999937,192.39722829999937,192.39722829999937,192.38161989999935,3,0.9452178999999887,0.23818149999988236,None,,,,,,,,,Guess_8294,22,female,1,2025-05-10_11h32.01.600,sm,2024.2.4,59.97015884895574,2025-05-10 11h32.28.212208 +0200,
30,0,30,,,,,,space,10.401843800000279,None,None,3,0.7075549999999566,0.26828829999976733,None,0,0,0,0,,,,,0,0,0,0,,,,,30,0,30,0,192.39722829999937,,,,,,,,,,,,,,,,,,,,,,,,,,,,,,,,,,,,,,,,,,,Blase,2.1743,192.38211950000004,192.38264329999947,192.38274999999976,192.39722829999937,194.57994529999996,194.5643612999993,194.5675453999993,194.57994529999996,194.57994529999996,194.57994529999996,194.57994529999996,196.58073839999997,196.58073839999997,196.58073839999997,196.58073839999997,196.56475859999955,3,0.7075549999999566,0.26828829999976733,None,,,,,,,,,Guess_8294,22,female,1,2025-05-10_11h32.01.600,sm,2024.2.4,59.97015884895574,2025-05-10 11h32.28.212208 +0200,
31,0,31,,,,,,space,10.401843800000279,None,None,2,0.7590133000003334,0.27726629999961006,None,0,0,0,0,,,,,0,0,0,0,,,,,31,0,31,0,196.58073839999997,,,,,,,,,,,,,,,,,,,,,,,,,,,,,,,,,,,,,,,,,,,Leute,4.5524,196.5652489999993,196.56576929999937,196.5658741999996,196.58073839999997,201.1464204999993,201.1308027999994,201.1351827999997,201.1464204999993,201.1464204999993,201.1464204999993,201.1464204999993,203.1464935999993,203.1464935999993,203.1464935999993,203.1464935999993,203.1312573999994,2,0.7590133000003334,0.27726629999961006,None,,,,,,,,,Guess_8294,22,female,1,2025-05-10_11h32.01.600,sm,2024.2.4,59.97015884895574,2025-05-10 11h32.28.212208 +0200,
32,0,32,,,,,,space,10.401843800000279,None,None,3,0.7005617999993774,0.25765730000057374,None,0,0,0,0,,,,,0,0,0,0,,,,,32,0,32,0,203.1464935999993,,,,,,,,,,,,,,,,,,,,,,,,,,,,,,,,,,,,,,,,,,,Luft,5.1698,203.1317470999993,203.1322865000002,203.13239149999936,203.1464935999993,208.3294446,208.31382549999944,208.31753320000007,208.3294446,208.3294446,208.3294446,208.3294446,210.32938529999956,210.32938529999956,210.32938529999956,210.32938529999956,210.31377919999977,3,0.7005617999993774,0.25765730000057374,None,,,,,,,,,Guess_8294,22,female,1,2025-05-10_11h32.01.600,sm,2024.2.4,59.97015884895574,2025-05-10 11h32.28.212208 +0200,
33,0,33,,,,,,space,10.401843800000279,None,None,3,0.7989772999999332,0.27224500000011176,None,0,0,0,0,,,,,0,0,0,0,,,,,33,0,33,0,210.32938529999956,,,,,,,,,,,,,,,,,,,,,,,,,,,,,,,,,,,,,,,,,,,Sterne,2.3006,210.31427669999994,210.3147884,210.31489539999984,210.32938529999956,212.62922769999932,212.6134394999999,212.61715749999985,212.62922769999932,212.62922769999932,212.62922769999932,212.62922769999932,214.62925670000004,214.62925670000004,214.62925670000004,214.62925670000004,214.6135420999999,3,0.7989772999999332,0.27224500000011176,None,,,,,,,,,Guess_8294,22,female,1,2025-05-10_11h32.01.600,sm,2024.2.4,59.97015884895574,2025-05-10 11h32.28.212208 +0200,
34,0,34,,,,,,space,10.401843800000279,None,None,3,1.203839999999218,0.2310298000002149,None,0,0,0,0,,,,,0,0,0,0,,,,,34,0,34,0,214.62925670000004,,,,,,,,,,,,,,,,,,,,,,,,,,,,,,,,,,,,,,,,,,,Zimmer,2.1413,214.61410049999995,214.61475269999937,214.6148634000001,214.62925670000004,216.77955829999974,216.7631719000001,216.7669262999998,216.77955829999974,216.77955829999974,216.77955829999974,216.77955829999974,218.77900090000003,218.77900090000003,218.77900090000003,218.77900090000003,218.7632752999998,3,1.203839999999218,0.2310298000002149,None,,,,,,,,,Guess_8294,22,female,1,2025-05-10_11h32.01.600,sm,2024.2.4,59.97015884895574,2025-05-10 11h32.28.212208 +0200,
35,0,35,,,,,,space,10.401843800000279,None,None,3,1.08384229999956,0.2652305999999953,None,0,0,0,0,,,,,0,0,0,0,,,,,35,0,35,0,218.77900090000003,,,,,,,,,,,,,,,,,,,,,,,,,,,,,,,,,,,,,,,,,,,Spaghetti,2.1186,218.7637678000001,218.76429310000003,218.7644034999994,218.77900090000003,220.91186899999957,220.89671959999941,220.9005361999998,220.91186899999957,220.91186899999957,220.91186899999957,220.91186899999957,222.91189589999976,222.91189589999976,222.91189589999976,222.91189589999976,222.8968245999995,3,1.08384229999956,0.2652305999999953,None,,,,,,,,,Guess_8294,22,female,1,2025-05-10_11h32.01.600,sm,2024.2.4,59.97015884895574,2025-05-10 11h32.28.212208 +0200,
36,0,36,,,,,,space,10.401843800000279,None,None,2,0.7087784000004831,0.28582139999980427,None,0,0,0,0,,,,,0,0,0,0,,,,,36,0,36,0,222.91189589999976,,,,,,,,,,,,,,,,,,,,,,,,,,,,,,,,,,,,,,,,,,,Koch,2.5377,222.89733609999985,222.8980762000001,222.8981899999999,222.91189589999976,225.4618399000001,225.44630629999938,225.44985839999936,225.4618399000001,225.4618399000001,225.4618399000001,225.4618399000001,227.46194709999963,227.46194709999963,227.46194709999963,227.46194709999963,227.4466896999993,2,0.7087784000004831,0.28582139999980427,None,,,,,,,,,Guess_8294,22,female,1,2025-05-10_11h32.01.600,sm,2024.2.4,59.97015884895574,2025-05-10 11h32.28.212208 +0200,
37,0,37,,,,,,space,10.401843800000279,None,None,2,0.7467090999998618,0.2593395000003511,None,0,0,0,0,,,,,0,0,0,0,,,,,37,0,37,0,227.46194709999963,,,,,,,,,,,,,,,,,,,,,,,,,,,,,,,,,,,,,,,,,,,Gesellschaft,2.3843,227.44719559999976,227.4477938,227.4479025999999,227.46194709999963,229.86134799999945,229.84587439999996,229.84993630000008,229.86134799999945,229.86134799999945,229.86134799999945,229.86134799999945,231.86158089999935,231.86158089999935,231.86158089999935,231.86158089999935,231.84588219999932,2,0.7467090999998618,0.2593395000003511,None,,,,,,,,,Guess_8294,22,female,1,2025-05-10_11h32.01.600,sm,2024.2.4,59.97015884895574,2025-05-10 11h32.28.212208 +0200,
38,0,38,,,,,,space,10.401843800000279,None,None,2,0.6408377000007022,0.3006368999995175,None,0,0,0,0,,,,,0,0,0,0,,,,,38,0,38,0,231.86158089999935,,,,,,,,,,,,,,,,,,,,,,,,,,,,,,,,,,,,,,,,,,,Hase,2.8863,231.84637779999957,231.84689650000018,231.8470040000002,231.86158089999935,234.76112139999987,234.74600849999933,234.7496873,234.76112139999987,234.76112139999987,234.76112139999987,234.76112139999987,236.76099889999932,236.76099889999932,236.76099889999932,236.76099889999932,236.7458048999997,2,0.6408377000007022,0.3006368999995175,None,,,,,,,,,Guess_8294,22,female,1,2025-05-10_11h32.01.600,sm,2024.2.4,59.97015884895574,2025-05-10 11h32.28.212208 +0200,
39,0,39,,,,,,space,10.401843800000279,None,None,3,1.3503414999995584,0.23741870000048948,None,0,0,0,0,,,,,0,0,0,0,,,,,39,0,39,0,236.76099889999932,,,,,,,,,,,,,,,,,,,,,,,,,,,,,,,,,,,,,,,,,,,Sprechen,2.0934,236.7462971999994,236.74680499999977,236.74690839999948,236.76099889999932,238.8609359000002,238.84545350000008,238.8498624999993,238.8609359000002,238.8609359000002,238.8609359000002,238.8609359000002,240.8610820999993,240.8610820999993,240.8610820999993,240.8610820999993,240.84538389999943,3,1.3503414999995584,0.23741870000048948,None,,,,,,,,,Guess_8294,22,female,1,2025-05-10_11h32.01.600,sm,2024.2.4,59.97015884895574,2025-05-10 11h32.28.212208 +0200,
40,0,40,,,,,,space,10.401843800000279,None,None,2,0.7212704000003214,0.2509613000001991,None,0,0,0,0,,,,,0,0,0,0,,,,,40,0,40,0,240.8610820999993,,,,,,,,,,,,,,,,,,,,,,,,,,,,,,,,,,,,,,,,,,,Kuh,3.4445,240.84587920000013,240.8464611999998,240.84656779999932,240.8610820999993,244.31135559999984,244.29504329999963,244.29857509999965,244.31135559999984,244.31135559999984,244.31135559999984,244.31135559999984,246.3108328999997,246.3108328999997,246.3108328999997,246.3108328999997,246.2950166999999,2,0.7212704000003214,0.2509613000001991,None,,,,,,,,,Guess_8294,22,female,1,2025-05-10_11h32.01.600,sm,2024.2.4,59.97015884895574,2025-05-10 11h32.28.212208 +0200,
41,0,41,,,,,,space,10.401843800000279,None,None,3,0.7201548000002731,0.2477123999997275,None,0,0,0,0,,,,,0,0,0,0,,,,,41,0,41,0,246.3108328999997,,,,,,,,,,,,,,,,,,,,,,,,,,,,,,,,,,,,,,,,,,,Ecke,2.5982,246.29551249999986,246.29602459999933,246.29613019999942,246.3108328999997,248.91070109999964,248.8950721000001,248.8988449999997,248.91070109999964,248.91070109999964,248.91070109999964,248.91070109999964,250.91033139999945,250.91033139999945,250.91033139999945,250.91033139999945,250.89477069999975,3,0.7201548000002731,0.2477123999997275,None,,,,,,,,,Guess_8294,22,female,1,2025-05-10_11h32.01.600,sm,2024.2.4,59.97015884895574,2025-05-10 11h32.28.212208 +0200,
42,0,42,,,,,,space,10.401843800000279,None,None,3,0.984875799999827,0.22472969999944326,None,0,0,0,0,,,,,0,0,0,0,,,,,42,0,42,0,250.91033139999945,,,,,,,,,,,,,,,,,,,,,,,,,,,,,,,,,,,,,,,,,,,Flut,2.6312,250.8952693000001,250.89579129999947,250.89589689999957,250.91033139999945,253.5437369000001,253.5275584000001,253.53388649999943,253.5437369000001,253.5437369000001,253.5437369000001,253.5437369000001,255.54348440000012,255.54348440000012,255.54348440000012,255.54348440000012,255.52812240000003,3,0.984875799999827,0.22472969999944326,None,,,,,,,,,Guess_8294,22,female,1,2025-05-10_11h32.01.600,sm,2024.2.4,59.97015884895574,2025-05-10 11h32.28.212208 +0200,
43,0,43,,,,,,space,10.401843800000279,None,None,3,0.8246944000002259,0.22999979999985953,None,0,0,0,0,,,,,0,0,0,0,,,,,43,0,43,0,255.54348440000012,,,,,,,,,,,,,,,,,,,,,,,,,,,,,,,,,,,,,,,,,,,Bad,2.3419,255.52861479999956,255.52913549999994,255.5292429000001,255.54348440000012,257.8934357999997,257.87757109999984,257.8812285999993,257.8934357999997,257.8934357999997,257.8934357999997,257.8934357999997,259.8932735999997,259.8932735999997,259.8932735999997,259.8932735999997,259.87769299999945,3,0.8246944000002259,0.22999979999985953,None,,,,,,,,,Guess_8294,22,female,1,2025-05-10_11h32.01.600,sm,2024.2.4,59.97015884895574,2025-05-10 11h32.28.212208 +0200,
44,0,44,,,,,,space,10.401843800000279,None,None,3,0.7895177000000331,0.23975629999949888,None,0,0,0,0,,,,,0,0,0,0,,,,,44,0,44,0,259.8932735999997,,,,,,,,,,,,,,,,,,,,,,,,,,,,,,,,,,,,,,,,,,,Zeitung,2.3599,259.8781890999999,259.87870329999987,259.8788068999993,259.8932735999997,262.25952489999963,262.24404309999954,262.24819859999934,262.25952489999963,262.25952489999963,262.25952489999963,262.25952489999963,264.2596287999995,264.2596287999995,264.2596287999995,264.2596287999995,264.2443979999998,3,0.7895177000000331,0.23975629999949888,None,,,,,,,,,Guess_8294,22,female,1,2025-05-10_11h32.01.600,sm,2024.2.4,59.97015884895574,2025-05-10 11h32.28.212208 +0200,
45,0,45,,,,,,space,10.401843800000279,None,None,2,0.7745833999997558,0.22662540000055742,None,0,0,0,0,,,,,0,0,0,0,,,,,45,0,45,0,264.2596287999995,,,,,,,,,,,,,,,,,,,,,,,,,,,,,,,,,,,,,,,,,,,Arm,2.9109,264.2448822999995,264.2456360999995,264.2457397999997,264.2596287999995,267.1761042999997,267.16039459999956,267.16477489999943,267.1761042999997,267.1761042999997,267.1761042999997,267.1761042999997,269.1758509000001,269.1758509000001,269.1758509000001,269.1758509000001,269.16036989999975,2,0.7745833999997558,0.22662540000055742,None,,,,,,,,,Guess_8294,22,female,1,2025-05-10_11h32.01.600,sm,2024.2.4,59.97015884895574,2025-05-10 11h32.28.212208 +0200,
46,0,46,,,,,,space,10.401843800000279,None,None,2,0.6395933999992849,0.18289590000040334,None,0,0,0,0,,,,,0,0,0,0,,,,,46,0,46,0,269.1758509000001,,,,,,,,,,,,,,,,,,,,,,,,,,,,,,,,,,,,,,,,,,,Akrobatin,2.021,269.1608685000001,269.1613803,269.16148650000014,269.1758509000001,271.2092431000001,271.1938814999994,271.19832210000004,271.2092431000001,271.2092431000001,271.2092431000001,271.2092431000001,273.2096051999997,273.2096051999997,273.2096051999997,273.2096051999997,273.19335349999983,2,0.6395933999992849,0.18289590000040334,None,,,,,,,,,Guess_8294,22,female,1,2025-05-10_11h32.01.600,sm,2024.2.4,59.97015884895574,2025-05-10 11h32.28.212208 +0200,
47,0,47,,,,,,space,10.401843800000279,None,None,3,0.932926899999984,0.24526680000053602,None,0,0,0,0,,,,,0,0,0,0,,,,,47,0,47,0,273.2096051999997,,,,,,,,,,,,,,,,,,,,,,,,,,,,,,,,,,,,,,,,,,,Glück,3.6438,273.19380159999946,273.19428869999956,273.19438809999974,273.2096051999997,276.85872049999944,276.8432192999999,276.8473591000002,276.85872049999944,276.85872049999944,276.85872049999944,276.85872049999944,278.85913639999944,278.85913639999944,278.85913639999944,278.85913639999944,278.84311199999956,3,0.932926899999984,0.24526680000053602,None,,,,,,,,,Guess_8294,22,female,1,2025-05-10_11h32.01.600,sm,2024.2.4,59.97015884895574,2025-05-10 11h32.28.212208 +0200,
48,0,48,,,,,,space,10.401843800000279,None,None,3,0.9730255000004036,0.24197819999972126,None,0,0,0,0,,,,,0,0,0,0,,,,,48,0,48,0,278.85913639999944,,,,,,,,,,,,,,,,,,,,,,,,,,,,,,,,,,,,,,,,,,,Schule,2.9036,278.84360469999956,278.84412389999943,278.8442338999994,278.85913639999944,281.7753845999996,281.75953070000014,281.7637743999994,281.7753845999996,281.7753845999996,281.7753845999996,281.7753845999996,283.7752609999998,283.7752609999998,283.7752609999998,283.7752609999998,283.7597257999996,3,0.9730255000004036,0.24197819999972126,None,,,,,,,,,Guess_8294,22,female,1,2025-05-10_11h32.01.600,sm,2024.2.4,59.97015884895574,2025-05-10 11h32.28.212208 +0200,
49,0,49,,,,,,space,10.401843800000279,None,None,3,0.981804099999863,0.26364900000044145,None,0,0,0,0,,,,,0,0,0,0,,,,,49,0,49,0,283.7752609999998,,,,,,,,,,,,,,,,,,,,,,,,,,,,,,,,,,,,,,,,,,,Album,2.2639,283.7602152999998,283.76073910000014,283.7608445999995,283.7752609999998,286.04173589999937,286.02625629999966,286.0304406999994,286.04173589999937,286.04173589999937,286.04173589999937,286.04173589999937,288.04202519999944,288.04202519999944,288.04202519999944,288.04202519999944,288.0259866999995,3,0.981804099999863,0.26364900000044145,None,,,,,,,,,Guess_8294,22,female,1,2025-05-10_11h32.01.600,sm,2024.2.4,59.97015884895574,2025-05-10 11h32.28.212208 +0200,
50,0,50,,,,,,space,10.401843800000279,None,None,3,0.84727920000023,0.2497438999998849,None,0,0,0,0,,,,,0,0,0,0,,,,,50,0,50,0,288.04202519999944,,,,,,,,,,,,,,,,,,,,,,,,,,,,,,,,,,,,,,,,,,,Urlaub,3.9589,288.0264780999996,288.0271847999993,288.0272940999994,288.04202519999944,292.0075289999995,291.9922808000001,291.9957727000001,292.0075289999995,292.0075289999995,292.0075289999995,292.0075289999995,294.00826739999957,294.00826739999957,294.00826739999957,294.00826739999957,293.9920935,3,0.84727920000023,0.2497438999998849,None,,,,,,,,,Guess_8294,22,female,1,2025-05-10_11h32.01.600,sm,2024.2.4,59.97015884895574,2025-05-10 11h32.28.212208 +0200,
51,0,51,,,,,,space,10.401843800000279,None,None,3,0.8804473999998663,0.2511971000003541,None,0,0,0,0,,,,,0,0,0,0,,,,,51,0,51,0,294.00826739999957,,,,,,,,,,,,,,,,,,,,,,,,,,,,,,,,,,,,,,,,,,,Zeigen,2.4137,293.99258009999994,293.99308999999994,293.9931958999996,294.00826739999957,296.4243738999994,296.40865119999944,296.4129011999994,296.4243738999994,296.4243738999994,296.4243738999994,296.4243738999994,298.42450389999976,298.42450389999976,298.42450389999976,298.42450389999976,298.4086634999994,3,0.8804473999998663,0.2511971000003541,None,,,,,,,,,Guess_8294,22,female,1,2025-05-10_11h32.01.600,sm,2024.2.4,59.97015884895574,2025-05-10 11h32.28.212208 +0200,
52,0,52,,,,,,space,10.401843800000279,None,None,3,0.7660469000002195,0.2503490999997666,None,0,0,0,0,,,,,0,0,0,0,,,,,52,0,52,0,298.42450389999976,,,,,,,,,,,,,,,,,,,,,,,,,,,,,,,,,,,,,,,,,,,Kapitel,2.0589,298.40915549999954,298.4096540999999,298.4097603,298.42450389999976,300.4906814999995,300.4749942999997,300.47941079999964,300.4906814999995,300.4906814999995,300.4906814999995,300.4906814999995,302.49103639999976,302.49103639999976,302.49103639999976,302.49103639999976,302.47522260000005,3,0.7660469000002195,0.2503490999997666,None,,,,,,,,,Guess_8294,22,female,1,2025-05-10_11h32.01.600,sm,2024.2.4,59.97015884895574,2025-05-10 11h32.28.212208 +0200,
53,0,53,,,,,,space,10.401843800000279,None,None,2,1.1665579999998954,0.28048129999933735,None,0,0,0,0,,,,,0,0,0,0,,,,,53,0,53,0,302.49103639999976,,,,,,,,,,,,,,,,,,,,,,,,,,,,,,,,,,,,,,,,,,,Anhänger,2.3362,302.4757157999993,302.47630279999976,302.47640779999983,302.49103639999976,304.8405670000002,304.82483760000014,304.82887630000005,304.8405670000002,304.8405670000002,304.8405670000002,304.8405670000002,306.8407692999999,306.8407692999999,306.8407692999999,306.8407692999999,306.8248507999997,2,1.1665579999998954,0.28048129999933735,None,,,,,,,,,Guess_8294,22,female,1,2025-05-10_11h32.01.600,sm,2024.2.4,59.97015884895574,2025-05-10 11h32.28.212208 +0200,
54,0,54,,,,,,space,10.401843800000279,None,None,3,0.7738003999993452,0.2643688000007387,None,0,0,0,0,,,,,0,0,0,0,,,,,54,0,54,0,306.8407692999999,,,,,,,,,,,,,,,,,,,,,,,,,,,,,,,,,,,,,,,,,,,Raum,2.1961,306.82533890000013,306.82585370000015,306.8259572999996,306.8407692999999,309.0402624999997,309.02463739999985,309.02736259999983,309.0402624999997,309.0402624999997,309.0402624999997,309.0402624999997,311.0401628999998,311.0401628999998,311.0401628999998,311.0401628999998,311.02470730000005,3,0.7738003999993452,0.2643688000007387,None,,,,,,,,,Guess_8294,22,female,1,2025-05-10_11h32.01.600,sm,2024.2.4,59.97015884895574,2025-05-10 11h32.28.212208 +0200,
55,0,55,,,,,,space,10.401843800000279,None,None,3,0.7252416000001176,0.24897449999934906,None,0,0,0,0,,,,,0,0,0,0,,,,,55,0,55,0,311.0401628999998,,,,,,,,,,,,,,,,,,,,,,,,,,,,,,,,,,,,,,,,,,,Auto,4.5959,311.02519849999953,311.0257125999997,311.0258176999996,311.0401628999998,315.6400814999997,315.6244958999996,315.6281248999994,315.6400814999997,315.6400814999997,315.6400814999997,315.6400814999997,317.6400614999993,317.6400614999993,317.6400614999993,317.6400614999993,317.62416140000005,3,0.7252416000001176,0.24897449999934906,None,,,,,,,,,Guess_8294,22,female,1,2025-05-10_11h32.01.600,sm,2024.2.4,59.97015884895574,2025-05-10 11h32.28.212208 +0200,
56,0,56,,,,,,space,10.401843800000279,None,None,3,0.8274086999999781,0.24199729999963893,None,0,0,0,0,,,,,0,0,0,0,,,,,56,0,56,0,317.6400614999993,,,,,,,,,,,,,,,,,,,,,,,,,,,,,,,,,,,,,,,,,,,Handy,4.3942,317.62461709999934,317.62524589999975,317.6253446999999,317.6400614999993,322.03912349999973,322.0236611,322.0297998999995,322.03912349999973,322.03912349999973,322.03912349999973,322.03912349999973,324.03958349999994,324.03958349999994,324.03958349999994,324.03958349999994,324.0238890999999,3,0.8274086999999781,0.24199729999963893,None,,,,,,,,,Guess_8294,22,female,1,2025-05-10_11h32.01.600,sm,2024.2.4,59.97015884895574,2025-05-10 11h32.28.212208 +0200,
57,0,57,,,,,,space,10.401843800000279,None,None,2,0.8264083000003666,0.2802514999993946,None,0,0,0,0,,,,,0,0,0,0,,,,,57,0,57,0,324.03958349999994,,,,,,,,,,,,,,,,,,,,,,,,,,,,,,,,,,,,,,,,,,,Blut,5.3463,324.0243738999998,324.02493239999967,324.02504599999975,324.03958349999994,329.3890743000002,329.3734859999995,329.37721559999954,329.3890743000002,329.3890743000002,329.3890743000002,329.3890743000002,331.3890101999996,331.3890101999996,331.3890101999996,331.3890101999996,331.3734058,2,0.8264083000003666,0.2802514999993946,None,,,,,,,,,Guess_8294,22,female,1,2025-05-10_11h32.01.600,sm,2024.2.4,59.97015884895574,2025-05-10 11h32.28.212208 +0200,
58,0,58,,,,,,space,10.401843800000279,None,None,3,1.3665003000005527,0.23829859999932523,None,0,0,0,0,,,,,0,0,0,0,,,,,58,0,58,0,331.3890101999996,,,,,,,,,,,,,,,,,,,,,,,,,,,,,,,,,,,,,,,,,,,Wärme,3.039,331.37390629999936,331.37441359999957,331.3745197999997,331.3890101999996,334.4388098999998,334.4232014999998,334.4280411,334.4388098999998,334.4388098999998,334.4388098999998,334.4388098999998,336.43871949999993,336.43871949999993,336.43871949999993,336.43871949999993,336.42340669999976,3,1.3665003000005527,0.23829859999932523,None,,,,,,,,,Guess_8294,22,female,1,2025-05-10_11h32.01.600,sm,2024.2.4,59.97015884895574,2025-05-10 11h32.28.212208 +0200,
59,0,59,,,,,,space,10.401843800000279,None,None,3,1.8282144000004337,None,None,0,0,0,0,,,,,0,0,0,0,,,,,59,0,59,0,336.43871949999993,,,,,,,,,,,,,,,,,,,,,,,,,,,,,,,,,,,,,,,,,,,Beugen,2.9061,336.4239082999993,336.4244199999994,336.4245242999996,336.43871949999993,339.35525619999953,339.33933889999935,339.3431593999994,339.35525619999953,339.35525619999953,339.35525619999953,339.35525619999953,341.35488649999934,341.35488649999934,341.35488649999934,341.35488649999934,341.33931889999985,3,1.8282144000004337,None,None,,,,,,,,,Guess_8294,22,female,1,2025-05-10_11h32.01.600,sm,2024.2.4,59.97015884895574,2025-05-10 11h32.28.212208 +0200,
60,0,60,,,,,,space,10.401843800000279,None,None,2,0.5884409000000232,0.21048489999975573,None,0,0,0,0,,,,,0,0,0,0,,,,,60,0,60,0,341.35488649999934,,,,,,,,,,,,,,,,,,,,,,,,,,,,,,,,,,,,,,,,,,,Familie,2.0946,341.3397103999996,341.3402553999995,341.3403380999998,341.35488649999934,343.4548686999997,343.4395475000001,343.44355369999994,343.4548686999997,343.4548686999997,343.4548686999997,343.4548686999997,345.4547849999999,345.4547849999999,345.4547849999999,345.4547849999999,345.4392624000002,2,0.5884409000000232,0.21048489999975573,None,,,,,,,,,Guess_8294,22,female,1,2025-05-10_11h32.01.600,sm,2024.2.4,59.97015884895574,2025-05-10 11h32.28.212208 +0200,
61,0,61,,,,,,space,10.401843800000279,None,None,3,0.8445717000004151,0.24632999999994354,None,0,0,0,0,,,,,0,0,0,0,,,,,61,0,61,0,345.4547849999999,,,,,,,,,,,,,,,,,,,,,,,,,,,,,,,,,,,,,,,,,,,Gabel,4.0852,345.4397554999996,345.4402876999993,345.4403924999997,345.4547849999999,349.5545205999997,349.53890279999996,349.54306949999955,349.5545205999997,349.5545205999997,349.5545205999997,349.5545205999997,351.55457209999986,351.55457209999986,351.55457209999986,351.55457209999986,351.5393060999995,3,0.8445717000004151,0.24632999999994354,None,,,,,,,,,Guess_8294,22,female,1,2025-05-10_11h32.01.600,sm,2024.2.4,59.97015884895574,2025-05-10 11h32.28.212208 +0200,
62,0,62,,,,,,space,10.401843800000279,None,None,3,0.7379752000006192,0.23574719999942317,None,0,0,0,0,,,,,0,0,0,0,,,,,62,0,62,0,351.55457209999986,,,,,,,,,,,,,,,,,,,,,,,,,,,,,,,,,,,,,,,,,,,Spaß,4.3756,351.5398188999998,351.5403559999995,351.5404633999997,351.55457209999986,355.9373082000002,355.9219336999995,355.9298614999998,355.9373082000002,355.9373082000002,355.9373082000002,355.9373082000002,357.9375702999996,357.9375702999996,357.9375702999996,357.9375702999996,357.9221687999998,3,0.7379752000006192,0.23574719999942317,None,,,,,,,,,Guess_8294,22,female,1,2025-05-10_11h32.01.600,sm,2024.2.4,59.97015884895574,2025-05-10 11h32.28.212208 +0200,
63,0,63,,,,,,space,10.401843800000279,None,None,3,0.9858381000003646,0.2623110999993514,None,0,0,0,0,,,,,0,0,0,0,,,,,63,0,63,0,357.9375702999996,,,,,,,,,,,,,,,,,,,,,,,,,,,,,,,,,,,,,,,,,,,Kaffee,3.6297,357.92266459999973,357.9231828000002,357.92328839999936,357.9375702999996,361.57050849999996,361.55488289999994,361.5590794999998,361.57050849999996,361.57050849999996,361.57050849999996,361.57050849999996,363.57041630000003,363.57041630000003,363.57041630000003,363.57041630000003,363.55488819999937,3,0.9858381000003646,0.2623110999993514,None,,,,,,,,,Guess_8294,22,female,1,2025-05-10_11h32.01.600,sm,2024.2.4,59.97015884895574,2025-05-10 11h32.28.212208 +0200,
64,0,64,,,,,,space,10.401843800000279,None,None,2,0.9881624999998166,0.2519524999997884,None,0,0,0,0,,,,,0,0,0,0,,,,,64,0,64,0,363.57041630000003,,,,,,,,,,,,,,,,,,,,,,,,,,,,,,,,,,,,,,,,,,,Schneke,2.7584,363.55538139999953,363.5560839,363.5561938000001,363.57041630000003,366.33679930000017,366.3213194,366.32643629999984,366.33679930000017,366.33679930000017,366.33679930000017,366.33679930000017,368.3369124999999,368.3369124999999,368.3369124999999,368.3369124999999,368.3211811000001,2,0.9881624999998166,0.2519524999997884,None,,,,,,,,,Guess_8294,22,female,1,2025-05-10_11h32.01.600,sm,2024.2.4,59.97015884895574,2025-05-10 11h32.28.212208 +0200,
65,0,65,,,,,,space,10.401843800000279,None,None,3,0.7024578000000474,0.24329649999981484,None,0,0,0,0,,,,,0,0,0,0,,,,,65,0,65,0,368.3369124999999,,,,,,,,,,,,,,,,,,,,,,,,,,,,,,,,,,,,,,,,,,,Lava,2.2385,368.32164250000005,368.32214789999944,368.32224419999966,368.3369124999999,370.5866342999998,370.57078939999974,370.57411030000003,370.5866342999998,370.5866342999998,370.5866342999998,370.5866342999998,372.5865217999999,372.5865217999999,372.5865217999999,372.5865217999999,372.57108139999946,3,0.7024578000000474,0.24329649999981484,None,,,,,,,,,Guess_8294,22,female,1,2025-05-10_11h32.01.600,sm,2024.2.4,59.97015884895574,2025-05-10 11h32.28.212208 +0200,
66,0,66,,,,,,space,10.401843800000279,None,None,3,0.651185799999439,0.2752607000002172,None,0,0,0,0,,,,,0,0,0,0,,,,,66,0,66,0,372.5865217999999,,,,,,,,,,,,,,,,,,,,,,,,,,,,,,,,,,,,,,,,,,,Wüste,2.9443,372.5715670999998,372.5721241000001,372.57222809999985,372.5865217999999,375.5362003,375.5204079999994,375.5241019999994,375.5362003,375.5362003,375.5362003,375.5362003,377.53627439999946,377.53627439999946,377.53627439999946,377.53627439999946,377.52065949999997,3,0.651185799999439,0.2752607000002172,None,,,,,,,,,Guess_8294,22,female,1,2025-05-10_11h32.01.600,sm,2024.2.4,59.97015884895574,2025-05-10 11h32.28.212208 +0200,
67,0,67,,,,,,space,10.401843800000279,None,None,2,0.6816885999996884,0.27961820000018633,None,0,0,0,0,,,,,0,0,0,0,,,,,67,0,67,0,377.53627439999946,,,,,,,,,,,,,,,,,,,,,,,,,,,,,,,,,,,,,,,,,,,Kunde,3.6564,377.52114449999954,377.5217438999998,377.5218492999993,377.53627439999946,381.2033400999999,381.1872242999998,381.1909392999996,381.2033400999999,381.2033400999999,381.2033400999999,381.2033400999999,383.2027357999996,383.2027357999996,383.2027357999996,383.2027357999996,383.1870136999996,2,0.6816885999996884,0.27961820000018633,None,,,,,,,,,Guess_8294,22,female,1,2025-05-10_11h32.01.600,sm,2024.2.4,59.97015884895574,2025-05-10 11h32.28.212208 +0200,
68,0,68,,,,,,space,10.401843800000279,None,None,3,1.1338589999995747,0.2612472999999227,None,0,0,0,0,,,,,0,0,0,0,,,,,68,0,68,0,383.2027357999996,,,,,,,,,,,,,,,,,,,,,,,,,,,,,,,,,,,,,,,,,,,Ringe,2.0052,383.18750199999977,383.1880731000001,383.18817820000004,383.2027357999996,385.2192280999998,385.2035151,385.2068798999999,385.2192280999998,385.2192280999998,385.2192280999998,385.2192280999998,387.21899440000016,387.21899440000016,387.21899440000016,387.21899440000016,387.2034060999995,3,1.1338589999995747,0.2612472999999227,None,,,,,,,,,Guess_8294,22,female,1,2025-05-10_11h32.01.600,sm,2024.2.4,59.97015884895574,2025-05-10 11h32.28.212208 +0200,
69,0,69,,,,,,space,10.401843800000279,None,None,3,0.819371399999909,0.30343059999995603,None,0,0,0,0,,,,,0,0,0,0,,,,,69,0,69,0,387.21899440000016,,,,,,,,,,,,,,,,,,,,,,,,,,,,,,,,,,,,,,,,,,,Dip,2.6097,387.2038917,387.2045446000002,387.2046499999997,387.21899440000016,389.83534359999976,389.8200343999997,389.82319649999954,389.83534359999976,389.83534359999976,389.83534359999976,389.83534359999976,391.8354951000001,391.8354951000001,391.8354951000001,391.8354951000001,391.8200490999998,3,0.819371399999909,0.30343059999995603,None,,,,,,,,,Guess_8294,22,female,1,2025-05-10_11h32.01.600,sm,2024.2.4,59.97015884895574,2025-05-10 11h32.28.212208 +0200,
70,0,70,,,,,,space,10.401843800000279,None,None,3,1.0861249999998108,0.28986559999975725,None,0,0,0,0,,,,,0,0,0,0,,,,,70,0,70,0,391.8354951000001,,,,,,,,,,,,,,,,,,,,,,,,,,,,,,,,,,,,,,,,,,,Reifen,2.4916,391.82055149999997,391.8210776999995,391.82118159999936,391.8354951000001,394.33528899999965,394.31958589999977,394.32373409999946,394.33528899999965,394.33528899999965,394.33528899999965,394.33528899999965,396.3351517000001,396.3351517000001,396.3351517000001,396.3351517000001,396.3200386999997,3,1.0861249999998108,0.28986559999975725,None,,,,,,,,,Guess_8294,22,female,1,2025-05-10_11h32.01.600,sm,2024.2.4,59.97015884895574,2025-05-10 11h32.28.212208 +0200,
71,0,71,,,,,,space,10.401843800000279,None,None,3,0.9429393999998865,0.3009204999998474,None,0,0,0,0,,,,,0,0,0,0,,,,,71,0,71,0,396.3351517000001,,,,,,,,,,,,,,,,,,,,,,,,,,,,,,,,,,,,,,,,,,,Nebel,2.9832,396.3205023999999,396.3211474999998,396.3212432999999,396.3351517000001,399.3183629999994,399.3027138999996,399.3075285999994,399.3183629999994,399.3183629999994,399.3183629999994,399.3183629999994,401.3187094999994,401.3187094999994,401.3187094999994,401.3187094999994,401.30266819999997,3,0.9429393999998865,0.3009204999998474,None,,,,,,,,,Guess_8294,22,female,1,2025-05-10_11h32.01.600,sm,2024.2.4,59.97015884895574,2025-05-10 11h32.28.212208 +0200,
72,0,72,,,,,,space,10.401843800000279,None,None,3,1.1405033000000913,0.28765019999991637,None,0,0,0,0,,,,,0,0,0,0,,,,,72,0,72,0,401.3187094999994,,,,,,,,,,,,,,,,,,,,,,,,,,,,,,,,,,,,,,,,,,,Fiktion,2.4521,401.3031545999993,401.30384439999943,401.30401319999964,401.3187094999994,403.7848353999998,403.7690388000001,403.7732597999993,403.7848353999998,403.7848353999998,403.7848353999998,403.7848353999998,405.78466059999937,405.78466059999937,405.78466059999937,405.78466059999937,405.7690074000002,3,1.1405033000000913,0.28765019999991637,None,,,,,,,,,Guess_8294,22,female,1,2025-05-10_11h32.01.600,sm,2024.2.4,59.97015884895574,2025-05-10 11h32.28.212208 +0200,
73,0,73,,,,,,space,10.401843800000279,None,None,3,1.0025838000001386,0.3161222999997335,None,0,0,0,0,,,,,0,0,0,0,,,,,73,0,73,0,405.78466059999937,,,,,,,,,,,,,,,,,,,,,,,,,,,,,,,,,,,,,,,,,,,Ozean,4.4767,405.7694965999999,405.7701352999993,405.77024040000015,405.78466059999937,410.26779309999984,410.25223689999984,410.25874250000015,410.26779309999984,410.26779309999984,410.26779309999984,410.26779309999984,412.2678484999997,412.2678484999997,412.2678484999997,412.2678484999997,412.2520805999993,3,1.0025838000001386,0.3161222999997335,None,,,,,,,,,Guess_8294,22,female,1,2025-05-10_11h32.01.600,sm,2024.2.4,59.97015884895574,2025-05-10 11h32.28.212208 +0200,
74,0,74,,,,,,space,10.401843800000279,None,None,2,1.051217700000052,0.2537192999998297,None,0,0,0,0,,,,,0,0,0,0,,,,,74,0,74,0,412.2678484999997,,,,,,,,,,,,,,,,,,,,,,,,,,,,,,,,,,,,,,,,,,,Liebe,2.3229,412.25258049999957,412.2530949000002,412.2532019999999,412.2678484999997,414.60045379999974,414.5850042000002,414.5885078000001,414.60045379999974,414.60045379999974,414.60045379999974,414.60045379999974,416.6007163999993,416.6007163999993,416.6007163999993,416.6007163999993,416.58513739999944,2,1.051217700000052,0.2537192999998297,None,,,,,,,,,Guess_8294,22,female,1,2025-05-10_11h32.01.600,sm,2024.2.4,59.97015884895574,2025-05-10 11h32.28.212208 +0200,
75,0,75,,,,,,space,10.401843800000279,None,None,2,0.6422503000003417,0.320844599999873,None,0,0,0,0,,,,,0,0,0,0,,,,,75,0,75,0,416.6007163999993,,,,,,,,,,,,,,,,,,,,,,,,,,,,,,,,,,,,,,,,,,,Ziege,2.1697,416.5856361999995,416.58614599999964,416.58624749999944,416.6007163999993,418.78455719999965,418.76827760000015,418.7715924999993,418.78455719999965,418.78455719999965,418.78455719999965,418.78455719999965,420.7837128000001,420.7837128000001,420.7837128000001,420.7837128000001,420.76831889999994,2,0.6422503000003417,0.320844599999873,None,,,,,,,,,Guess_8294,22,female,1,2025-05-10_11h32.01.600,sm,2024.2.4,59.97015884895574,2025-05-10 11h32.28.212208 +0200,
76,0,76,,,,,,space,10.401843800000279,None,None,3,0.8512386000002152,0.30268809999961377,None,0,0,0,0,,,,,0,0,0,0,,,,,76,0,76,0,420.7837128000001,,,,,,,,,,,,,,,,,,,,,,,,,,,,,,,,,,,,,,,,,,,Zucker,3.2825,420.76881689999936,420.76939869999933,420.76950119999947,420.7837128000001,424.0675446999994,424.0511888000001,424.0548936999994,424.0675446999994,424.0675446999994,424.0675446999994,424.0675446999994,426.0668689999993,426.0668689999993,426.0668689999993,426.0668689999993,426.0512560999996,3,0.8512386000002152,0.30268809999961377,None,,,,,,,,,Guess_8294,22,female,1,2025-05-10_11h32.01.600,sm,2024.2.4,59.97015884895574,2025-05-10 11h32.28.212208 +0200,
77,0,77,,,,,,space,10.401843800000279,None,None,3,1.0506212000000232,0.3169707000006383,None,0,0,0,0,,,,,0,0,0,0,,,,,77,0,77,0,426.0668689999993,,,,,,,,,,,,,,,,,,,,,,,,,,,,,,,,,,,,,,,,,,,Zeichnung,5.3655,426.05175059999965,426.0523469,426.05245099999956,426.0668689999993,431.4330799999998,431.4174671999999,431.4225571999996,431.4330799999998,431.4330799999998,431.4330799999998,431.4330799999998,433.4332872999994,433.4332872999994,433.4332872999994,433.4332872999994,433.4174979999998,3,1.0506212000000232,0.3169707000006383,None,,,,,,,,,Guess_8294,22,female,1,2025-05-10_11h32.01.600,sm,2024.2.4,59.97015884895574,2025-05-10 11h32.28.212208 +0200,
78,0,78,,,,,,space,10.401843800000279,None,None,2,0.9578626000002259,0.3087634999992588,None,0,0,0,0,,,,,0,0,0,0,,,,,78,0,78,0,433.4332872999994,,,,,,,,,,,,,,,,,,,,,,,,,,,,,,,,,,,,,,,,,,,Gras,2.2074,433.4179911000001,433.4185711,433.4186748000002,433.4332872999994,435.6495408999999,435.6339102000002,435.63761650000015,435.6495408999999,435.6495408999999,435.6495408999999,435.6495408999999,437.6497497999999,437.6497497999999,437.6497497999999,437.6497497999999,437.6338719999994,2,0.9578626000002259,0.3087634999992588,None,,,,,,,,,Guess_8294,22,female,1,2025-05-10_11h32.01.600,sm,2024.2.4,59.97015884895574,2025-05-10 11h32.28.212208 +0200,
79,0,79,,,,,,space,10.401843800000279,None,None,3,1.0951015000000552,0.28464590000021417,None,0,0,0,0,,,,,0,0,0,0,,,,,79,0,79,0,437.6497497999999,,,,,,,,,,,,,,,,,,,,,,,,,,,,,,,,,,,,,,,,,,,Tal,2.6446,437.6343810999997,437.6350292999996,437.6351347,437.6497497999999,440.2993035999998,440.2836023,440.28694369999994,440.2993035999998,440.2993035999998,440.2993035999998,440.2993035999998,442.3065134999997,442.3065134999997,442.3065134999997,442.3065134999997,442.28373509999983,3,1.0951015000000552,0.28464590000021417,None,,,,,,,,,Guess_8294,22,female,1,2025-05-10_11h32.01.600,sm,2024.2.4,59.97015884895574,2025-05-10 11h32.28.212208 +0200,
0,0,0,,,,,2.3861,space,10.393505500000174,None,None,3,0.9000388000004023,0.267777400000341,None,0,0,0,0,,,,,1,0,1,0,0,79,79,17,0,0,0,0,494.81292979999944,,,,,,,,,,,,,,,,,,,,,,,,,,459.5621805999999,459.5624219000001,459.5687306,459.5733301999999,459.5733301999999,469.98105339999984,space,10.393505500000174,None,469.9812106999998,469.99785939999947,469.99785939999947,482.7983276999994,None,482.79848200000015,482.8138021999994,494.7971133000001,Vulkan,2.3861,494.7984818999994,494.7992330999996,494.79933600000004,494.81292979999944,497.21231069999976,497.19671819999985,497.20030789999964,497.21231069999976,497.21231069999976,497.21231069999976,497.21231069999976,499.2127596999999,499.2127596999999,499.2127596999999,499.2127596999999,499.19728419999956,3,0.9000388000004023,0.267777400000341,None,454.29899169999953,454.3158309999999,454.3158309999999,459.5167088999997,3,5.193693600000188,None,494.81292979999944,Guess_8294,22,female,1,2025-05-10_11h32.01.600,sm,2024.2.4,59.97015884895574,2025-05-10 11h32.28.212208 +0200,
1,0,1,,,,,,space,10.393505500000174,None,None,2,0.7003120999997918,0.28806580000036774,None,0,0,0,0,,,,,1,0,1,0,,,,,1,0,1,0,499.2127596999999,,,,,,,,,,,,,,,,,,,,,,,,,,,,,,,,,,,,,,,,,,,Kellner,2.7584,499.1977718999997,499.19833089999975,499.1984367999994,499.2127596999999,501.9790736999994,501.9634490999997,501.96768189999966,501.9790736999994,501.9790736999994,501.9790736999994,501.9790736999994,503.9789172999999,503.9789172999999,503.9789172999999,503.9789172999999,503.96340469999996,2,0.7003120999997918,0.28806580000036774,None,,,,,,,,,Guess_8294,22,female,1,2025-05-10_11h32.01.600,sm,2024.2.4,59.97015884895574,2025-05-10 11h32.28.212208 +0200,
2,0,2,,,,,,space,10.393505500000174,None,None,2,0.841289300000426,0.28564949999963574,None,0,0,0,0,,,,,1,0,1,0,,,,,2,0,2,0,503.9789172999999,,,,,,,,,,,,,,,,,,,,,,,,,,,,,,,,,,,,,,,,,,,Riechen,2.3229,503.9638939999995,503.96454339999946,503.96464819999983,503.9789172999999,506.3120156999994,506.2962478999998,506.29979339999954,506.3120156999994,506.3120156999994,506.3120156999994,506.3120156999994,508.3125597999997,508.3125597999997,508.3125597999997,508.3125597999997,508.29640279999967,2,0.841289300000426,0.28564949999963574,None,,,,,,,,,Guess_8294,22,female,1,2025-05-10_11h32.01.600,sm,2024.2.4,59.97015884895574,2025-05-10 11h32.28.212208 +0200,
3,0,3,,,,,,space,10.393505500000174,None,None,2,1.0027911999995922,0.27826100000038423,None,0,0,0,0,,,,,1,0,1,0,,,,,3,0,3,0,508.3125597999997,,,,,,,,,,,,,,,,,,,,,,,,,,,,,,,,,,,,,,,,,,,Gemüse,2.9036,508.29689039999994,508.29740559999937,508.2975102999999,508.3125597999997,511.2283816999998,511.21280489999936,511.2167794999996,511.2283816999998,511.2283816999998,511.2283816999998,511.2283816999998,513.2285302999999,513.2285302999999,513.2285302999999,513.2285302999999,513.2127369,2,1.0027911999995922,0.27826100000038423,None,,,,,,,,,Guess_8294,22,female,1,2025-05-10_11h32.01.600,sm,2024.2.4,59.97015884895574,2025-05-10 11h32.28.212208 +0200,
4,0,4,,,,,,space,10.393505500000174,None,None,3,0.7655524000001606,0.22125489999962156,None,0,0,0,0,,,,,1,0,1,0,,,,,4,0,4,0,513.2285302999999,,,,,,,,,,,,,,,,,,,,,,,,,,,,,,,,,,,,,,,,,,,Gel,2.2639,513.2132401999997,513.2137597000001,513.2138685,513.2285302999999,515.4948188999997,515.4790935999999,515.4831828999995,515.4948188999997,515.4948188999997,515.4948188999997,515.4948188999997,517.4947677999999,517.4947677999999,517.4947677999999,517.4947677999999,517.4796150000002,3,0.7655524000001606,0.22125489999962156,None,,,,,,,,,Guess_8294,22,female,1,2025-05-10_11h32.01.600,sm,2024.2.4,59.97015884895574,2025-05-10 11h32.28.212208 +0200,
5,0,5,,,,,,space,10.393505500000174,None,None,3,1.0091207000004943,0.30159119999916584,None,0,0,0,0,,,,,1,0,1,0,,,,,5,0,5,0,517.4947677999999,,,,,,,,,,,,,,,,,,,,,,,,,,,,,,,,,,,,,,,,,,,Weihnachten,4.5959,517.4801072,517.4806288,517.4807344000001,517.4947677999999,522.0944079999999,522.0790791,522.0835140999998,522.0944079999999,522.0944079999999,522.0944079999999,522.0944079999999,524.0943668999998,524.0943668999998,524.0943668999998,524.0943668999998,524.0789498999993,3,1.0091207000004943,0.30159119999916584,None,,,,,,,,,Guess_8294,22,female,1,2025-05-10_11h32.01.600,sm,2024.2.4,59.97015884895574,2025-05-10 11h32.28.212208 +0200,
6,0,6,,,,,,space,10.393505500000174,None,None,3,1.4567250000000058,0.26867700000002515,None,0,0,0,0,,,,,1,0,1,0,,,,,6,0,6,0,524.0943668999998,,,,,,,,,,,,,,,,,,,,,,,,,,,,,,,,,,,,,,,,,,,Pflege,2.1697,524.0794405999995,524.0800853999999,524.0801892,524.0943668999998,526.2772602999994,526.2618765999996,526.2653868999996,526.2772602999994,526.2772602999994,526.2772602999994,526.2772602999994,528.2774077999993,528.2774077999993,528.2774077999993,528.2774077999993,528.2624267000001,3,1.4567250000000058,0.26867700000002515,None,,,,,,,,,Guess_8294,22,female,1,2025-05-10_11h32.01.600,sm,2024.2.4,59.97015884895574,2025-05-10 11h32.28.212208 +0200,
7,0,7,,,,,,space,10.393505500000174,None,None,2,0.7118081000007805,0.29306519999954617,None,0,0,0,0,,,,,1,0,1,0,,,,,7,0,7,0,528.2774077999993,,,,,,,,,,,,,,,,,,,,,,,,,,,,,,,,,,,,,,,,,,,Anführer,2.0946,528.2629137999993,528.2634987000001,528.2636032,528.2774077999993,530.3773366999994,530.3620691999995,530.3664054000001,530.3773366999994,530.3773366999994,530.3773366999994,530.3773366999994,532.3773536999997,532.3773536999997,532.3773536999997,532.3773536999997,532.3618495000001,2,0.7118081000007805,0.29306519999954617,None,,,,,,,,,Guess_8294,22,female,1,2025-05-10_11h32.01.600,sm,2024.2.4,59.97015884895574,2025-05-10 11h32.28.212208 +0200,
8,0,8,,,,,,space,10.393505500000174,None,None,3,0.7823387999997067,0.3341029000002891,None,0,0,0,0,,,,,1,0,1,0,,,,,8,0,8,0,532.3773536999997,,,,,,,,,,,,,,,,,,,,,,,,,,,,,,,,,,,,,,,,,,,Nummer,2.0052,532.3623332999996,532.3630202999993,532.3631244999997,532.3773536999997,534.3945825000001,534.3781485,534.3822135999999,534.3945825000001,534.3945825000001,534.3945825000001,534.3945825000001,536.3938107999993,536.3938107999993,536.3938107999993,536.3938107999993,536.3781762999997,3,0.7823387999997067,0.3341029000002891,None,,,,,,,,,Guess_8294,22,female,1,2025-05-10_11h32.01.600,sm,2024.2.4,59.97015884895574,2025-05-10 11h32.28.212208 +0200,
9,0,9,,,,,,space,10.393505500000174,None,None,3,0.8564973000002283,0.25532250000014756,None,0,0,0,0,,,,,1,0,1,0,,,,,9,0,9,0,536.3938107999993,,,,,,,,,,,,,,,,,,,,,,,,,,,,,,,,,,,,,,,,,,,Kartoffel,2.2385,536.3786761000001,536.3791885999999,536.3792948999999,536.3938107999993,538.6432334000001,538.6276925000002,538.6315439999998,538.6432334000001,538.6432334000001,538.6432334000001,538.6432334000001,540.6435149999998,540.6435149999998,540.6435149999998,540.6435149999998,540.6278654999996,3,0.8564973000002283,0.25532250000014756,None,,,,,,,,,Guess_8294,22,female,1,2025-05-10_11h32.01.600,sm,2024.2.4,59.97015884895574,2025-05-10 11h32.28.212208 +0200,
10,0,10,,,,,,space,10.393505500000174,None,None,3,1.1487042999997357,0.2572440000003553,None,0,0,0,0,,,,,1,0,1,0,,,,,10,0,10,0,540.6435149999998,,,,,,,,,,,,,,,,,,,,,,,,,,,,,,,,,,,,,,,,,,,Medaille,2.1413,540.6283610999999,540.6288771999998,540.6289820000002,540.6435149999998,542.7937291999997,542.7778018999998,542.7819173999997,542.7937291999997,542.7937291999997,542.7937291999997,542.7937291999997,544.7932457999996,544.7932457999996,544.7932457999996,544.7932457999996,544.7775763999998,3,1.1487042999997357,0.2572440000003553,None,,,,,,,,,Guess_8294,22,female,1,2025-05-10_11h32.01.600,sm,2024.2.4,59.97015884895574,2025-05-10 11h32.28.212208 +0200,
11,0,11,,,,,,space,10.393505500000174,None,None,2,1.0095079000002443,0.2305133999998361,None,0,0,0,0,,,,,1,0,1,0,,,,,11,0,11,0,544.7932457999996,,,,,,,,,,,,,,,,,,,,,,,,,,,,,,,,,,,,,,,,,,,Kiefer,2.8516,544.7781486999993,544.7788107999995,544.7789177999994,544.7932457999996,547.6595692999999,547.6445668999995,547.6495939999995,547.6595692999999,547.6595692999999,547.6595692999999,547.6595692999999,549.6597315999998,549.6597315999998,549.6597315999998,549.6597315999998,549.6440846999994,2,1.0095079000002443,0.2305133999998361,None,,,,,,,,,Guess_8294,22,female,1,2025-05-10_11h32.01.600,sm,2024.2.4,59.97015884895574,2025-05-10 11h32.28.212208 +0200,
12,0,12,,,,,,space,10.393505500000174,None,None,3,0.883717799999431,0.25754700000015873,None,0,0,0,0,,,,,1,0,1,0,,,,,12,0,12,0,549.6597315999998,,,,,,,,,,,,,,,,,,,,,,,,,,,,,,,,,,,,,,,,,,,Harmonie,3.6297,549.6445752999998,549.6451178999996,549.6452227,549.6597315999998,553.2927553999998,553.2775621000001,553.2818117999996,553.2927553999998,553.2927553999998,553.2927553999998,553.2927553999998,555.2926508,555.2926508,555.2926508,555.2926508,555.2771627000002,3,0.883717799999431,0.25754700000015873,None,,,,,,,,,Guess_8294,22,female,1,2025-05-10_11h32.01.600,sm,2024.2.4,59.97015884895574,2025-05-10 11h32.28.212208 +0200,
13,0,13,,,,,,space,10.393505500000174,None,None,3,0.8399909999998272,0.2671483000003718,None,0,0,0,0,,,,,1,0,1,0,,,,,13,0,13,0,555.2926508,,,,,,,,,,,,,,,,,,,,,,,,,,,,,,,,,,,,,,,,,,,Papier,2.0934,555.2776575999997,555.2782612000001,555.2783701999997,555.2926508,557.3924354000001,557.3767332999996,557.3802907999998,557.3924354000001,557.3924354000001,557.3924354000001,557.3924354000001,559.3923580999999,559.3923580999999,559.3923580999999,559.3923580999999,559.3769802999996,3,0.8399909999998272,0.2671483000003718,None,,,,,,,,,Guess_8294,22,female,1,2025-05-10_11h32.01.600,sm,2024.2.4,59.97015884895574,2025-05-10 11h32.28.212208 +0200,
14,0,14,,,,,,space,10.393505500000174,None,None,3,1.2324142999996184,0.26751400000011927,None,0,0,0,0,,,,,1,0,1,0,,,,,14,0,14,0,559.3923580999999,,,,,,,,,,,,,,,,,,,,,,,,,,,,,,,,,,,,,,,,,,,Sack,2.5377,559.3774834999995,559.3781365999994,559.3782443,559.3923580999999,561.9419260999994,561.9264476999997,561.9294470999994,561.9419260999994,561.9419260999994,561.9419260999994,561.9419260999994,563.9420175999994,563.9420175999994,563.9420175999994,563.9420175999994,563.9265771,3,1.2324142999996184,0.26751400000011927,None,,,,,,,,,Guess_8294,22,female,1,2025-05-10_11h32.01.600,sm,2024.2.4,59.97015884895574,2025-05-10 11h32.28.212208 +0200,
15,0,15,,,,,,space,10.393505500000174,None,None,2,1.506157499999972,0.25570560000051046,None,0,0,0,0,,,,,1,0,1,0,,,,,15,0,15,0,563.9420175999994,,,,,,,,,,,,,,,,,,,,,,,,,,,,,,,,,,,,,,,,,,,Käse,2.3843,563.9270725999995,563.9275871,563.9276918999994,563.9420175999994,566.3250171999998,566.3100371,566.3133053000001,566.3250171999998,566.3250171999998,566.3250171999998,566.3250171999998,568.3252121999994,568.3252121999994,568.3252121999994,568.3252121999994,568.3094547000001,2,1.506157499999972,0.25570560000051046,None,,,,,,,,,Guess_8294,22,female,1,2025-05-10_11h32.01.600,sm,2024.2.4,59.97015884895574,2025-05-10 11h32.28.212208 +0200,
16,0,16,,,,,,space,10.393505500000174,None,None,2,1.0527772000004916,0.2722185000002355,None,0,0,0,0,,,,,1,0,1,0,,,,,16,0,16,0,568.3252121999994,,,,,,,,,,,,,,,,,,,,,,,,,,,,,,,,,,,,,,,,,,,Milch,2.3006,568.3099437999999,568.3105899000002,568.3106956000001,568.3252121999994,570.6249569000001,570.6092005999999,570.6129756999999,570.6249569000001,570.6249569000001,570.6249569000001,570.6249569000001,572.6250645999999,572.6250645999999,572.6250645999999,572.6250645999999,572.6093237999994,2,1.0527772000004916,0.2722185000002355,None,,,,,,,,,Guess_8294,22,female,1,2025-05-10_11h32.01.600,sm,2024.2.4,59.97015884895574,2025-05-10 11h32.28.212208 +0200,
17,0,17,,,,,,space,10.393505500000174,None,None,3,1.1585608000004868,0.2706267999992633,None,0,0,0,0,,,,,1,0,1,0,,,,,17,0,17,0,572.6250645999999,,,,,,,,,,,,,,,,,,,,,,,,,,,,,,,,,,,,,,,,,,,Wasser,2.6446,572.6098103999993,572.6104439999999,572.6105514000001,572.6250645999999,575.2749266000001,575.2591431999999,575.2632033999998,575.2749266000001,575.2749266000001,575.2749266000001,575.2749266000001,577.2748855999998,577.2748855999998,577.2748855999998,577.2748855999998,577.2594375999997,3,1.1585608000004868,0.2706267999992633,None,,,,,,,,,Guess_8294,22,female,1,2025-05-10_11h32.01.600,sm,2024.2.4,59.97015884895574,2025-05-10 11h32.28.212208 +0200,
18,0,18,,,,,,space,10.393505500000174,None,None,2,0.7473757999996451,0.2113751000006232,None,0,0,0,0,,,,,1,0,1,0,,,,,18,0,18,0,577.2748855999998,,,,,,,,,,,,,,,,,,,,,,,,,,,,,,,,,,,,,,,,,,,Fuß,3.9589,577.2599313999999,577.2604430000001,577.2605487000001,577.2748855999998,581.2410819999996,581.2254259000001,581.2299202999993,581.2410819999996,581.2410819999996,581.2410819999996,581.2410819999996,583.2410291999995,583.2410291999995,583.2410291999995,583.2410291999995,583.2253956999994,2,0.7473757999996451,0.2113751000006232,None,,,,,,,,,Guess_8294,22,female,1,2025-05-10_11h32.01.600,sm,2024.2.4,59.97015884895574,2025-05-10 11h32.28.212208 +0200,
19,0,19,,,,,,space,10.393505500000174,None,None,2,0.8698037999993176,0.2954139000003124,None,0,0,0,0,,,,,1,0,1,0,,,,,19,0,19,0,583.2410291999995,,,,,,,,,,,,,,,,,,,,,,,,,,,,,,,,,,,,,,,,,,,Trinken,2.5519,583.2258849,583.2265313999997,583.2266362999999,583.2410291999995,585.8074116999996,585.7917936999993,585.7961295999994,585.8074116999996,585.8074116999996,585.8074116999996,585.8074116999996,587.8074160999995,587.8074160999995,587.8074160999995,587.8074160999995,587.7921772999998,2,0.8698037999993176,0.2954139000003124,None,,,,,,,,,Guess_8294,22,female,1,2025-05-10_11h32.01.600,sm,2024.2.4,59.97015884895574,2025-05-10 11h32.28.212208 +0200,
20,0,20,,,,,,space,10.393505500000174,None,None,2,0.6942759000003207,0.32110800000009476,None,0,0,0,0,,,,,1,0,1,0,,,,,20,0,20,0,587.8074160999995,,,,,,,,,,,,,,,,,,,,,,,,,,,,,,,,,,,,,,,,,,,Hand,2.4916,587.7926717999999,587.7931952999998,587.7933019000002,587.8074160999995,590.3071454999999,590.2923944999993,590.2954682,590.3071454999999,590.3071454999999,590.3071454999999,590.3071454999999,592.307159,592.307159,592.307159,592.307159,592.2914675000002,2,0.6942759000003207,0.32110800000009476,None,,,,,,,,,Guess_8294,22,female,1,2025-05-10_11h32.01.600,sm,2024.2.4,59.97015884895574,2025-05-10 11h32.28.212208 +0200,
21,0,21,,,,,,space,10.393505500000174,None,None,2,0.9829767999999603,0.31393480000042473,None,0,0,0,0,,,,,1,0,1,0,,,,,21,0,21,0,592.307159,,,,,,,,,,,,,,,,,,,,,,,,,,,,,,,,,,,,,,,,,,,Schwimmen,5.3655,592.2919578999999,592.2927006999998,592.292805,592.307159,597.6739135999997,597.6579511,597.6617588999998,597.6739135999997,597.6739135999997,597.6739135999997,597.6739135999997,599.6732666999997,599.6732666999997,599.6732666999997,599.6732666999997,599.6578113999994,2,0.9829767999999603,0.31393480000042473,None,,,,,,,,,Guess_8294,22,female,1,2025-05-10_11h32.01.600,sm,2024.2.4,59.97015884895574,2025-05-10 11h32.28.212208 +0200,
22,0,22,,,,,,space,10.393505500000174,None,None,3,0.9004901999996946,0.2561964000005901,None,0,0,0,0,,,,,1,0,1,0,,,,,22,0,22,0,599.6732666999997,,,,,,,,,,,,,,,,,,,,,,,,,,,,,,,,,,,,,,,,,,,Station,2.7378,599.6582866999997,599.6589223000001,599.6590290999993,599.6732666999997,602.4229962999998,602.4073677999995,602.4107733000001,602.4229962999998,602.4229962999998,602.4229962999998,602.4229962999998,604.4231266999996,604.4231266999996,604.4231266999996,604.4231266999996,604.4075856999998,3,0.9004901999996946,0.2561964000005901,None,,,,,,,,,Guess_8294,22,female,1,2025-05-10_11h32.01.600,sm,2024.2.4,59.97015884895574,2025-05-10 11h32.28.212208 +0200,
23,0,23,,,,,,space,10.393505500000174,None,None,3,0.7706673000002411,0.2587266999998974,None,0,0,0,0,,,,,1,0,1,0,,,,,23,0,23,0,604.4231266999996,,,,,,,,,,,,,,,,,,,,,,,,,,,,,,,,,,,,,,,,,,,Himmel,4.4429,604.4080708000001,604.4088010999994,604.4089083999997,604.4231266999996,608.8727285999994,608.8568566999993,608.8605575000001,608.8727285999994,608.8727285999994,608.8727285999994,608.8727285999994,610.8726717999998,610.8726717999998,610.8726717999998,610.8726717999998,610.8573234999994,3,0.7706673000002411,0.2587266999998974,None,,,,,,,,,Guess_8294,22,female,1,2025-05-10_11h32.01.600,sm,2024.2.4,59.97015884895574,2025-05-10 11h32.28.212208 +0200,
24,0,24,,,,,,space,10.393505500000174,None,None,3,0.952154800000244,0.24604709999948682,None,0,0,0,0,,,,,1,0,1,0,,,,,24,0,24,0,610.8726717999998,,,,,,,,,,,,,,,,,,,,,,,,,,,,,,,,,,,,,,,,,,,Statue,4.0852,610.8578213000001,610.8583250000001,610.8584309999997,610.8726717999998,614.9725222999996,614.9570253000002,614.9621206000002,614.9725222999996,614.9725222999996,614.9725222999996,614.9725222999996,616.9724078999998,616.9724078999998,616.9724078999998,616.9724078999998,616.9564764999996,3,0.952154800000244,0.24604709999948682,None,,,,,,,,,Guess_8294,22,female,1,2025-05-10_11h32.01.600,sm,2024.2.4,59.97015884895574,2025-05-10 11h32.28.212208 +0200,
25,0,25,,,,,,space,10.393505500000174,None,None,3,1.1450604999999996,0.2433786000001419,None,0,0,0,0,,,,,1,0,1,0,,,,,25,0,25,0,616.9724078999998,,,,,,,,,,,,,,,,,,,,,,,,,,,,,,,,,,,,,,,,,,,Zimt,2.83,616.9569157999995,616.9574420999998,616.9575367999996,616.9724078999998,619.8052719999996,619.7896246,619.7927948999995,619.8052719999996,619.8052719999996,619.8052719999996,619.8052719999996,621.8055624999997,621.8055624999997,621.8055624999997,621.8055624999997,621.7897948999998,3,1.1450604999999996,0.2433786000001419,None,,,,,,,,,Guess_8294,22,female,1,2025-05-10_11h32.01.600,sm,2024.2.4,59.97015884895574,2025-05-10 11h32.28.212208 +0200,
26,0,26,,,,,,space,10.393505500000174,None,None,3,0.9612571999996362,0.2324060000000827,None,0,0,0,0,,,,,1,0,1,0,,,,,26,0,26,0,621.8055624999997,,,,,,,,,,,,,,,,,,,,,,,,,,,,,,,,,,,,,,,,,,,Schlamm,2.021,621.7902894999997,621.7908154999996,621.7909220000001,621.8055624999997,623.8387439999997,623.8228015999994,623.8265707,623.8387439999997,623.8387439999997,623.8387439999997,623.8387439999997,625.8384695999994,625.8384695999994,625.8384695999994,625.8384695999994,625.8230555,3,0.9612571999996362,0.2324060000000827,None,,,,,,,,,Guess_8294,22,female,1,2025-05-10_11h32.01.600,sm,2024.2.4,59.97015884895574,2025-05-10 11h32.28.212208 +0200,
27,0,27,,,,,,space,10.393505500000174,None,None,3,0.7508542999994461,0.2399427000000287,None,0,0,0,0,,,,,1,0,1,0,,,,,27,0,27,0,625.8384695999994,,,,,,,,,,,,,,,,,,,,,,,,,,,,,,,,,,,,,,,,,,,Fakt,3.039,625.8235525,625.8240655,625.8241724,625.8384695999994,628.8882075000001,628.8724697999996,628.8753676999995,628.8882075000001,628.8882075000001,628.8882075000001,628.8882075000001,630.8881077999995,630.8881077999995,630.8881077999995,630.8881077999995,630.8726189999998,3,0.7508542999994461,0.2399427000000287,None,,,,,,,,,Guess_8294,22,female,1,2025-05-10_11h32.01.600,sm,2024.2.4,59.97015884895574,2025-05-10 11h32.28.212208 +0200,
28,0,28,,,,,,space,10.393505500000174,None,None,3,1.0841860000000452,0.2212829000000056,None,0,0,0,0,,,,,1,0,1,0,,,,,28,0,28,0,630.8881077999995,,,,,,,,,,,,,,,,,,,,,,,,,,,,,,,,,,,,,,,,,,,Pizza,2.1186,630.8731078000001,630.8737583000002,630.8738665000001,630.8881077999995,633.0212677999998,633.0057104999996,633.0093674,633.0212677999998,633.0212677999998,633.0212677999998,633.0212677999998,635.0213057999999,635.0213057999999,635.0213057999999,635.0213057999999,635.0056103999996,3,1.0841860000000452,0.2212829000000056,None,,,,,,,,,Guess_8294,22,female,1,2025-05-10_11h32.01.600,sm,2024.2.4,59.97015884895574,2025-05-10 11h32.28.212208 +0200,
29,0,29,,,,,,space,10.393505500000174,None,None,2,0.6439623000005668,0.27586539999992965,None,0,0,0,0,,,,,1,0,1,0,,,,,29,0,29,0,635.0213057999999,,,,,,,,,,,,,,,,,,,,,,,,,,,,,,,,,,,,,,,,,,,Freund,3.8592,635.0060859999994,635.0067218999993,635.0068276000002,635.0213057999999,638.8875756999996,638.8719495999994,638.8756232999995,638.8875756999996,638.8875756999996,638.8875756999996,638.8875756999996,640.8875934999996,640.8875934999996,640.8875934999996,640.8875934999996,640.8721344999994,2,0.6439623000005668,0.27586539999992965,None,,,,,,,,,Guess_8294,22,female,1,2025-05-10_11h32.01.600,sm,2024.2.4,59.97015884895574,2025-05-10 11h32.28.212208 +0200,
30,0,30,,,,,,space,10.393505500000174,None,None,2,0.7361700999999812,0.20974830000068323,None,0,0,0,0,,,,,1,0,1,0,,,,,30,0,30,0,640.8875934999996,,,,,,,,,,,,,,,,,,,,,,,,,,,,,,,,,,,,,,,,,,,Vampir,2.9832,640.8726207999998,640.8733125999997,640.8734316,640.8875934999996,643.8706263999993,643.8550691,643.8588604999995,643.8706263999993,643.8706263999993,643.8706263999993,643.8706263999993,645.8706627000001,645.8706627000001,645.8706627000001,645.8706627000001,645.8549775000001,2,0.7361700999999812,0.20974830000068323,None,,,,,,,,,Guess_8294,22,female,1,2025-05-10_11h32.01.600,sm,2024.2.4,59.97015884895574,2025-05-10 11h32.28.212208 +0200,
31,0,31,,,,,,space,10.393505500000174,None,None,3,0.8400031000001036,0.22843469999952504,None,0,0,0,0,,,,,1,0,1,0,,,,,31,0,31,0,645.8706627000001,,,,,,,,,,,,,,,,,,,,,,,,,,,,,,,,,,,,,,,,,,,Angriff,2.1949,645.8554337999994,645.8559212,645.8560303999993,645.8706627000001,648.0702050999998,648.0546840999996,648.0593326999997,648.0702050999998,648.0702050999998,648.0702050999998,648.0702050999998,650.0703575999996,650.0703575999996,650.0703575999996,650.0703575999996,650.0547164999998,3,0.8400031000001036,0.22843469999952504,None,,,,,,,,,Guess_8294,22,female,1,2025-05-10_11h32.01.600,sm,2024.2.4,59.97015884895574,2025-05-10 11h32.28.212208 +0200,
32,0,32,,,,,,space,10.393505500000174,None,None,3,0.6456895000001168,0.20404210000015155,None,0,0,0,0,,,,,1,0,1,0,,,,,32,0,32,0,650.0703575999996,,,,,,,,,,,,,,,,,,,,,,,,,,,,,,,,,,,,,,,,,,,Schreibtisch,2.2129,650.0551796,650.0556656999997,650.0557660999993,650.0703575999996,652.2867882,652.2713549999999,652.2761400999998,652.2867882,652.2867882,652.2867882,652.2867882,654.2868629999994,654.2868629999994,654.2868629999994,654.2868629999994,654.2712200999995,3,0.6456895000001168,0.20404210000015155,None,,,,,,,,,Guess_8294,22,female,1,2025-05-10_11h32.01.600,sm,2024.2.4,59.97015884895574,2025-05-10 11h32.28.212208 +0200,
33,0,33,,,,,,space,10.393505500000174,None,None,3,0.7018457000003764,0.21947030000046652,None,0,0,0,0,,,,,1,0,1,0,,,,,33,0,33,0,654.2868629999994,,,,,,,,,,,,,,,,,,,,,,,,,,,,,,,,,,,,,,,,,,,Kamera,2.8863,654.2717074000002,654.2723822999997,654.2724936999994,654.2868629999994,657.1866114999993,657.1712606000001,657.1753063999995,657.1866114999993,657.1866114999993,657.1866114999993,657.1866114999993,659.1867341999996,659.1867341999996,659.1867341999996,659.1867341999996,659.1709299999993,3,0.7018457000003764,0.21947030000046652,None,,,,,,,,,Guess_8294,22,female,1,2025-05-10_11h32.01.600,sm,2024.2.4,59.97015884895574,2025-05-10 11h32.28.212208 +0200,
34,0,34,,,,,,space,10.393505500000174,None,None,3,1.1574984000008044,0.24145629999929952,None,0,0,0,0,,,,,1,0,1,0,,,,,34,0,34,0,659.1867341999996,,,,,,,,,,,,,,,,,,,,,,,,,,,,,,,,,,,,,,,,,,,Gericht,2.4521,659.1714272999998,659.1719395,659.1720461999994,659.1867341999996,661.6527704999999,661.6373886000001,661.6413839999996,661.6527704999999,661.6527704999999,661.6527704999999,661.6527704999999,663.6532010000001,663.6532010000001,663.6532010000001,663.6532010000001,663.6372431,3,1.1574984000008044,0.24145629999929952,None,,,,,,,,,Guess_8294,22,female,1,2025-05-10_11h32.01.600,sm,2024.2.4,59.97015884895574,2025-05-10 11h32.28.212208 +0200,
35,0,35,,,,,,space,10.393505500000174,None,None,2,0.7640703999995822,0.28383519999988494,None,0,0,0,0,,,,,1,0,1,0,,,,,35,0,35,0,663.6532010000001,,,,,,,,,,,,,,,,,,,,,,,,,,,,,,,,,,,,,,,,,,,Mund,2.6097,663.6376857999994,663.6381635999996,663.6382539999995,663.6532010000001,666.2691756999993,666.2539314999995,666.2571904999995,666.2691756999993,666.2691756999993,666.2691756999993,666.2691756999993,668.2694612999994,668.2694612999994,668.2694612999994,668.2694612999994,668.2539633999995,2,0.7640703999995822,0.28383519999988494,None,,,,,,,,,Guess_8294,22,female,1,2025-05-10_11h32.01.600,sm,2024.2.4,59.97015884895574,2025-05-10 11h32.28.212208 +0200,
36,0,36,,,,,,space,10.393505500000174,None,None,3,0.7554348000003301,0.23978970000007394,None,0,0,0,0,,,,,1,0,1,0,,,,,36,0,36,0,668.2694612999994,,,,,,,,,,,,,,,,,,,,,,,,,,,,,,,,,,,,,,,,,,,Bild,2.3599,668.2544720999995,668.2549908999999,668.2551010999996,668.2694612999994,670.6357590999996,670.6203796999998,670.6239212999999,670.6357590999996,670.6357590999996,670.6357590999996,670.6357590999996,672.6358448999999,672.6358448999999,672.6358448999999,672.6358448999999,672.6206800999998,3,0.7554348000003301,0.23978970000007394,None,,,,,,,,,Guess_8294,22,female,1,2025-05-10_11h32.01.600,sm,2024.2.4,59.97015884895574,2025-05-10 11h32.28.212208 +0200,
37,0,37,,,,,,space,10.393505500000174,None,None,3,0.9639166999995723,0.25225420000060694,None,0,0,0,0,,,,,1,0,1,0,,,,,37,0,37,0,672.6358448999999,,,,,,,,,,,,,,,,,,,,,,,,,,,,,,,,,,,,,,,,,,,Keller,2.4137,672.6211655999996,672.6216730999995,672.6217781999994,672.6358448999999,675.0523259000001,675.0366226999995,675.0406136000001,675.0523259000001,675.0523259000001,675.0523259000001,675.0523259000001,677.0522580999996,677.0522580999996,677.0522580999996,677.0522580999996,677.0365785999993,3,0.9639166999995723,0.25225420000060694,None,,,,,,,,,Guess_8294,22,female,1,2025-05-10_11h32.01.600,sm,2024.2.4,59.97015884895574,2025-05-10 11h32.28.212208 +0200,
38,0,38,,,,,,space,10.393505500000174,None,None,3,0.656011000000035,0.21782179999991058,None,0,0,0,0,,,,,1,0,1,0,,,,,38,0,38,0,677.0522580999996,,,,,,,,,,,,,,,,,,,,,,,,,,,,,,,,,,,,,,,,,,,Gold,3.189,677.0370732000001,677.0375767999994,677.0376804999996,677.0522580999996,680.2520502999996,680.2364577999997,680.2414573999995,680.2520502999996,680.2520502999996,680.2520502999996,680.2520502999996,682.2521554999994,682.2521554999994,682.2521554999994,682.2521554999994,682.2364093999995,3,0.656011000000035,0.21782179999991058,None,,,,,,,,,Guess_8294,22,female,1,2025-05-10_11h32.01.600,sm,2024.2.4,59.97015884895574,2025-05-10 11h32.28.212208 +0200,
39,0,39,,,,,,space,10.393505500000174,None,None,3,0.6660283999999592,0.27743009999994683,None,0,0,0,0,,,,,1,0,1,0,,,,,39,0,39,0,682.2521554999994,,,,,,,,,,,,,,,,,,,,,,,,,,,,,,,,,,,,,,,,,,,Film,5.1698,682.2368729999998,682.2373612000001,682.2374590999998,682.2521554999994,687.4349198,687.4194779999998,687.4232384999996,687.4349198,687.4349198,687.4349198,687.4349198,689.4347547999996,689.4347547999996,689.4347547999996,689.4347547999996,689.4191721999996,3,0.6660283999999592,0.27743009999994683,None,,,,,,,,,Guess_8294,22,female,1,2025-05-10_11h32.01.600,sm,2024.2.4,59.97015884895574,2025-05-10 11h32.28.212208 +0200,
40,0,40,,,,,,space,10.393505500000174,None,None,3,0.679494999999406,0.2609189000004335,None,0,0,0,0,,,,,1,0,1,0,,,,,40,0,40,0,689.4347547999996,,,,,,,,,,,,,,,,,,,,,,,,,,,,,,,,,,,,,,,,,,,Kante,4.3756,689.4196691999996,689.4202465999997,689.4203528999997,689.4347547999996,693.8175835000002,693.8019306999995,693.8049907999994,693.8175835000002,693.8175835000002,693.8175835000002,693.8175835000002,695.8183131999995,695.8183131999995,695.8183131999995,695.8183131999995,695.8025387999996,3,0.679494999999406,0.2609189000004335,None,,,,,,,,,Guess_8294,22,female,1,2025-05-10_11h32.01.600,sm,2024.2.4,59.97015884895574,2025-05-10 11h32.28.212208 +0200,
41,0,41,,,,,,space,10.393505500000174,None,None,3,1.1947635999995327,0.24704790000032517,None,0,0,0,0,,,,,1,0,1,0,,,,,41,0,41,0,695.8183131999995,,,,,,,,,,,,,,,,,,,,,,,,,,,,,,,,,,,,,,,,,,,Berg,2.0842,695.8030714999995,695.8035872999999,695.8036974999995,695.8183131999995,697.9177608999998,697.9019029000001,697.9053047999996,697.9177608999998,697.9177608999998,697.9177608999998,697.9177608999998,699.9174924999998,699.9174924999998,699.9174924999998,699.9174924999998,699.9020860999999,3,1.1947635999995327,0.24704790000032517,None,,,,,,,,,Guess_8294,22,female,1,2025-05-10_11h32.01.600,sm,2024.2.4,59.97015884895574,2025-05-10 11h32.28.212208 +0200,
42,0,42,,,,,,space,10.393505500000174,None,None,3,0.7031286000001273,0.24391840000043885,None,0,0,0,0,,,,,1,0,1,0,,,,,42,0,42,0,699.9174924999998,,,,,,,,,,,,,,,,,,,,,,,,,,,,,,,,,,,,,,,,,,,Brief,2.9645,699.9025747999995,699.9031660999999,699.9032712999997,699.9174924999998,702.8839272999994,702.8685938999997,702.8725396,702.8839272999994,702.8839272999994,702.8839272999994,702.8839272999994,704.8841369000002,704.8841369000002,704.8841369000002,704.8841369000002,704.8681221999996,3,0.7031286000001273,0.24391840000043885,None,,,,,,,,,Guess_8294,22,female,1,2025-05-10_11h32.01.600,sm,2024.2.4,59.97015884895574,2025-05-10 11h32.28.212208 +0200,
43,0,43,,,,,,space,10.393505500000174,None,None,3,0.9042515999999523,0.2602050000004965,None,0,0,0,0,,,,,1,0,1,0,,,,,43,0,43,0,704.8841369000002,,,,,,,,,,,,,,,,,,,,,,,,,,,,,,,,,,,,,,,,,,,Sand,4.5524,704.8685598000002,704.8690249000001,704.8691152000001,704.8841369000002,709.4504769999994,709.4344566,709.4374558,709.4504769999994,709.4504769999994,709.4504769999994,709.4504769999994,711.4501934,711.4501934,711.4501934,711.4501934,711.4345789999998,3,0.9042515999999523,0.2602050000004965,None,,,,,,,,,Guess_8294,22,female,1,2025-05-10_11h32.01.600,sm,2024.2.4,59.97015884895574,2025-05-10 11h32.28.212208 +0200,
44,0,44,,,,,,space,10.393505500000174,None,None,3,0.7159459000004063,0.2575842999995075,None,0,0,0,0,,,,,1,0,1,0,,,,,44,0,44,0,711.4501934,,,,,,,,,,,,,,,,,,,,,,,,,,,,,,,,,,,,,,,,,,,Schloss,2.2074,711.4350721000001,711.4355887000002,711.4356954999994,711.4501934,713.6667168999993,713.6511494999995,713.6549440999997,713.6667168999993,713.6667168999993,713.6667168999993,713.6667168999993,715.6670405999994,715.6670405999994,715.6670405999994,715.6670405999994,715.6513783999999,3,0.7159459000004063,0.2575842999995075,None,,,,,,,,,Guess_8294,22,female,1,2025-05-10_11h32.01.600,sm,2024.2.4,59.97015884895574,2025-05-10 11h32.28.212208 +0200,
45,0,45,,,,,,space,10.393505500000174,None,None,3,0.9474806000007447,0.2602913999999146,None,0,0,0,0,,,,,1,0,1,0,,,,,45,0,45,0,715.6670405999994,,,,,,,,,,,,,,,,,,,,,,,,,,,,,,,,,,,,,,,,,,,Winter,5.3463,715.6518703000002,715.6523814000002,715.6524865000001,715.6670405999994,721.0160126999999,721.0010343999993,721.0052371000002,721.0160126999999,721.0160126999999,721.0160126999999,721.0160126999999,723.0161559999997,723.0161559999997,723.0161559999997,723.0161559999997,723.0005420999996,3,0.9474806000007447,0.2602913999999146,None,,,,,,,,,Guess_8294,22,female,1,2025-05-10_11h32.01.600,sm,2024.2.4,59.97015884895574,2025-05-10 11h32.28.212208 +0200,
46,0,46,,,,,,space,10.393505500000174,None,None,3,0.915123499999936,0.274114599999848,None,0,0,0,0,,,,,1,0,1,0,,,,,46,0,46,0,723.0161559999997,,,,,,,,,,,,,,,,,,,,,,,,,,,,,,,,,,,,,,,,,,,Platz,4.3942,723.0010342999994,723.001561,723.0016670999994,723.0161559999997,727.4158702999994,727.4003284999999,727.4044628000001,727.4158702999994,727.4158702999994,727.4158702999994,727.4158702999994,729.415841,729.415841,729.415841,729.415841,729.4004033000001,3,0.915123499999936,0.274114599999848,None,,,,,,,,,Guess_8294,22,female,1,2025-05-10_11h32.01.600,sm,2024.2.4,59.97015884895574,2025-05-10 11h32.28.212208 +0200,
47,0,47,,,,,,space,10.393505500000174,None,None,2,1.1219753999994282,0.2948472000007314,None,0,0,0,0,,,,,1,0,1,0,,,,,47,0,47,0,729.415841,,,,,,,,,,,,,,,,,,,,,,,,,,,,,,,,,,,,,,,,,,,Dschungel,3.4445,729.4008951999995,729.4014546999997,729.4015614,729.415841,732.8664171,732.8499391999994,732.8543644000001,732.8664171,732.8664171,732.8664171,732.8664171,734.8656022999994,734.8656022999994,734.8656022999994,734.8656022999994,734.8498576000002,2,1.1219753999994282,0.2948472000007314,None,,,,,,,,,Guess_8294,22,female,1,2025-05-10_11h32.01.600,sm,2024.2.4,59.97015884895574,2025-05-10 11h32.28.212208 +0200,
48,0,48,,,,,,space,10.393505500000174,None,None,3,0.6345653999997012,0.25497770000038145,None,0,0,0,0,,,,,1,0,1,0,,,,,48,0,48,0,734.8656022999994,,,,,,,,,,,,,,,,,,,,,,,,,,,,,,,,,,,,,,,,,,,Kerze,3.2825,734.8503542999997,734.8508748999993,734.8509803999996,734.8656022999994,738.1485402999997,738.1328579000001,738.1365451000001,738.1485402999997,738.1485402999997,738.1485402999997,738.1485402999997,740.1484973999995,740.1484973999995,740.1484973999995,740.1484973999995,740.1329804999996,3,0.6345653999997012,0.25497770000038145,None,,,,,,,,,Guess_8294,22,female,1,2025-05-10_11h32.01.600,sm,2024.2.4,59.97015884895574,2025-05-10 11h32.28.212208 +0200,
49,0,49,,,,,,space,10.393505500000174,None,None,3,0.7578234999991764,0.2683563000000504,None,0,0,0,0,,,,,1,0,1,0,,,,,49,0,49,0,740.1484973999995,,,,,,,,,,,,,,,,,,,,,,,,,,,,,,,,,,,,,,,,,,,Trennung,2.0589,740.1334645999996,740.1341051999998,740.1342114999998,740.1484973999995,742.2149294999999,742.1991883000001,742.2027449999996,742.2149294999999,742.2149294999999,742.2149294999999,742.2149294999999,744.2148745999993,744.2148745999993,744.2148745999993,744.2148745999993,744.1992780999999,3,0.7578234999991764,0.2683563000000504,None,,,,,,,,,Guess_8294,22,female,1,2025-05-10_11h32.01.600,sm,2024.2.4,59.97015884895574,2025-05-10 11h32.28.212208 +0200,
50,0,50,,,,,,space,10.393505500000174,None,None,2,1.0319225000002916,0.22303349999947386,None,0,0,0,0,,,,,1,0,1,0,,,,,50,0,50,0,744.2148745999993,,,,,,,,,,,,,,,,,,,,,,,,,,,,,,,,,,,,,,,,,,,Ei,2.6312,744.1997794999997,744.2004331999997,744.2005392000001,744.2148745999993,746.8480344999998,746.8324220999993,746.8357896999996,746.8480344999998,746.8480344999998,746.8480344999998,746.8480344999998,748.8481926999993,748.8481926999993,748.8481926999993,748.8481926999993,748.8325025999993,2,1.0319225000002916,0.22303349999947386,None,,,,,,,,,Guess_8294,22,female,1,2025-05-10_11h32.01.600,sm,2024.2.4,59.97015884895574,2025-05-10 11h32.28.212208 +0200,
51,0,51,,,,,,space,10.393505500000174,None,None,3,0.6345153000002028,0.27918729999964853,None,0,0,0,0,,,,,1,0,1,0,,,,,51,0,51,0,748.8481926999993,,,,,,,,,,,,,,,,,,,,,,,,,,,,,,,,,,,,,,,,,,,Netz,3.2059,748.8329995999993,748.8335047999999,748.8336135,748.8481926999993,752.0643493999996,752.0486405000001,752.0516226999998,752.0643493999996,752.0643493999996,752.0643493999996,752.0643493999996,754.0644778999995,754.0644778999995,754.0644778999995,754.0644778999995,754.0488039000002,3,0.6345153000002028,0.27918729999964853,None,,,,,,,,,Guess_8294,22,female,1,2025-05-10_11h32.01.600,sm,2024.2.4,59.97015884895574,2025-05-10 11h32.28.212208 +0200,
52,0,52,,,,,,space,10.393505500000174,None,None,2,0.7316774000000805,0.24266850000003615,None,0,0,0,0,,,,,1,0,1,0,,,,,52,0,52,0,754.0644778999995,,,,,,,,,,,,,,,,,,,,,,,,,,,,,,,,,,,,,,,,,,,Schulter,2.4167,754.0492863,754.0499271999997,754.0500306999993,754.0644778999995,756.4808649999995,756.4653694999997,756.4719631999997,756.4808649999995,756.4808649999995,756.4808649999995,756.4808649999995,758.4808241000001,758.4808241000001,758.4808241000001,758.4808241000001,758.4651524999999,2,0.7316774000000805,0.24266850000003615,None,,,,,,,,,Guess_8294,22,female,1,2025-05-10_11h32.01.600,sm,2024.2.4,59.97015884895574,2025-05-10 11h32.28.212208 +0200,
53,0,53,,,,,,space,10.393505500000174,None,None,2,1.068987399999969,0.2313853999994535,None,0,0,0,0,,,,,1,0,1,0,,,,,53,0,53,0,758.4808241000001,,,,,,,,,,,,,,,,,,,,,,,,,,,,,,,,,,,,,,,,,,,Rebe,2.1743,758.4656584999993,758.4661716,758.4662736999999,758.4808241000001,760.6640994999998,760.6482161999993,760.6513513,760.6640994999998,760.6640994999998,760.6640994999998,760.6640994999998,762.6644114999999,762.6644114999999,762.6644114999999,762.6644114999999,762.6484289,2,1.068987399999969,0.2313853999994535,None,,,,,,,,,Guess_8294,22,female,1,2025-05-10_11h32.01.600,sm,2024.2.4,59.97015884895574,2025-05-10 11h32.28.212208 +0200,
54,0,54,,,,,,space,10.393505500000174,None,None,3,1.0811831999999413,0.24122629999965284,None,0,0,0,0,,,,,1,0,1,0,,,,,54,0,54,0,762.6644114999999,,,,,,,,,,,,,,,,,,,,,,,,,,,,,,,,,,,,,,,,,,,Lehrer,2.7357,762.6488931999993,762.6494142000001,762.6495107999999,762.6644114999999,765.4136933999998,765.3980425999998,765.4018328000002,765.4136933999998,765.4136933999998,765.4136933999998,765.4136933999998,767.4135845999999,767.4135845999999,767.4135845999999,767.4135845999999,767.3980364999998,3,1.0811831999999413,0.24122629999965284,None,,,,,,,,,Guess_8294,22,female,1,2025-05-10_11h32.01.600,sm,2024.2.4,59.97015884895574,2025-05-10 11h32.28.212208 +0200,
55,0,55,,,,,,space,10.393505500000174,None,None,3,0.838437200000044,0.19716669999979786,None,0,0,0,0,,,,,1,0,1,0,,,,,55,0,55,0,767.4135845999999,,,,,,,,,,,,,,,,,,,,,,,,,,,,,,,,,,,,,,,,,,,Zirkus,2.5169,767.3985261999997,767.3991059,767.3992109000001,767.4135845999999,769.9300309999999,769.9145895000001,769.9182425999998,769.9300309999999,769.9300309999999,769.9300309999999,769.9300309999999,771.9299679999995,771.9299679999995,771.9299679999995,771.9299679999995,771.9144066999997,3,0.838437200000044,0.19716669999979786,None,,,,,,,,,Guess_8294,22,female,1,2025-05-10_11h32.01.600,sm,2024.2.4,59.97015884895574,2025-05-10 11h32.28.212208 +0200,
56,0,56,,,,,,space,10.393505500000174,None,None,3,0.9434574999995675,0.17398970000067493,None,0,0,0,0,,,,,1,0,1,0,,,,,56,0,56,0,771.9299679999995,,,,,,,,,,,,,,,,,,,,,,,,,,,,,,,,,,,,,,,,,,,Klub,2.9061,771.9149127999999,771.9154159999998,771.9155206999994,771.9299679999995,774.8467052999995,774.8307160999993,774.8343666999999,774.8467052999995,774.8467052999995,774.8467052999995,774.8467052999995,776.8464636999997,776.8464636999997,776.8464636999997,776.8464636999997,776.8307803999996,3,0.9434574999995675,0.17398970000067493,None,,,,,,,,,Guess_8294,22,female,1,2025-05-10_11h32.01.600,sm,2024.2.4,59.97015884895574,2025-05-10 11h32.28.212208 +0200,
57,0,57,,,,,,space,10.393505500000174,None,None,3,1.2785869999997885,0.22210240000003978,None,0,0,0,0,,,,,1,0,1,0,,,,,57,0,57,0,776.8464636999997,,,,,,,,,,,,,,,,,,,,,,,,,,,,,,,,,,,,,,,,,,,Lied,3.6564,776.8312775999993,776.8317948999993,776.8318976,776.8464636999997,780.5127376999999,780.4971409999998,780.5002004999997,780.5127376999999,780.5127376999999,780.5127376999999,780.5127376999999,782.5126947999997,782.5126947999997,782.5126947999997,782.5126947999997,782.4971544,3,1.2785869999997885,0.22210240000003978,None,,,,,,,,,Guess_8294,22,female,1,2025-05-10_11h32.01.600,sm,2024.2.4,59.97015884895574,2025-05-10 11h32.28.212208 +0200,
58,0,58,,,,,,space,10.393505500000174,None,None,2,0.59880449999946,0.2710458000001381,None,0,0,0,0,,,,,1,0,1,0,,,,,58,0,58,0,782.5126947999997,,,,,,,,,,,,,,,,,,,,,,,,,,,,,,,,,,,,,,,,,,,Knie,2.3916,782.4976468999994,782.4983683,782.4984773999995,782.5126947999997,784.9122862999993,784.8970027999994,784.9003588999994,784.9122862999993,784.9122862999993,784.9122862999993,784.9122862999993,786.9125075000002,786.9125075000002,786.9125075000002,786.9125075000002,786.8972459999995,2,0.59880449999946,0.2710458000001381,None,,,,,,,,,Guess_8294,22,female,1,2025-05-10_11h32.01.600,sm,2024.2.4,59.97015884895574,2025-05-10 11h32.28.212208 +0200,
59,0,59,,,,,,space,10.393505500000174,None,None,3,0.7109743999999409,0.24787350000042352,None,0,0,0,0,,,,,1,0,1,0,,,,,59,0,59,0,786.9125075000002,,,,,,,,,,,,,,,,,,,,,,,,,,,,,,,,,,,,,,,,,,,Fahrrad,3.6615,786.8977383000001,786.8982883999997,786.8983921999998,786.9125075000002,790.5790569999999,790.5630995000001,790.5677345999993,790.5790569999999,790.5790569999999,790.5790569999999,790.5790569999999,792.5788778999995,792.5788778999995,792.5788778999995,792.5788778999995,792.5634321999996,3,0.7109743999999409,0.24787350000042352,None,,,,,,,,,Guess_8294,22,female,1,2025-05-10_11h32.01.600,sm,2024.2.4,59.97015884895574,2025-05-10 11h32.28.212208 +0200,
60,0,60,,,,,,space,10.393505500000174,None,None,3,1.0047543999999107,0.2050441999999748,None,0,0,0,0,,,,,1,0,1,0,,,,,60,0,60,0,792.5788778999995,,,,,,,,,,,,,,,,,,,,,,,,,,,,,,,,,,,,,,,,,,,Schläger,2.1961,792.5639273999996,792.5644556999996,792.564558,792.5788778999995,794.7785657999993,794.7628084999997,794.7664931999998,794.7785657999993,794.7785657999993,794.7785657999993,794.7785657999993,796.7785581999997,796.7785581999997,796.7785581999997,796.7785581999997,796.7630381999998,3,1.0047543999999107,0.2050441999999748,None,,,,,,,,,Guess_8294,22,female,1,2025-05-10_11h32.01.600,sm,2024.2.4,59.97015884895574,2025-05-10 11h32.28.212208 +0200,
61,0,61,,,,,,space,10.393505500000174,None,None,3,1.3238934000000881,0.24834049999935814,None,0,0,0,0,,,,,1,0,1,0,,,,,61,0,61,0,796.7785581999997,,,,,,,,,,,,,,,,,,,,,,,,,,,,,,,,,,,,,,,,,,,Conditioner,3.6438,796.7635259999997,796.7640494999996,796.7641555999999,796.7785581999997,800.4287853999995,800.4124021999996,800.4192568999997,800.4287853999995,800.4287853999995,800.4287853999995,800.4287853999995,802.4282236999998,802.4282236999998,802.4282236999998,802.4282236999998,802.4127478999999,3,1.3238934000000881,0.24834049999935814,None,,,,,,,,,Guess_8294,22,female,1,2025-05-10_11h32.01.600,sm,2024.2.4,59.97015884895574,2025-05-10 11h32.28.212208 +0200,
62,0,62,,,,,,space,10.393505500000174,None,None,2,0.765555800000584,0.22973759999968024,None,0,0,0,0,,,,,1,0,1,0,,,,,62,0,62,0,802.4282236999998,,,,,,,,,,,,,,,,,,,,,,,,,,,,,,,,,,,,,,,,,,,Rose,3.0127,802.4132414999995,802.4137486,802.4138549999998,802.4282236999998,805.4445089000001,805.4292289999994,805.4326234,805.4445089000001,805.4445089000001,805.4445089000001,805.4445089000001,807.4445759,807.4445759,807.4445759,807.4445759,807.4291321000001,2,0.765555800000584,0.22973759999968024,None,,,,,,,,,Guess_8294,22,female,1,2025-05-10_11h32.01.600,sm,2024.2.4,59.97015884895574,2025-05-10 11h32.28.212208 +0200,
63,0,63,,,,,,space,10.393505500000174,None,None,3,0.7835340999999971,0.23620759999994334,None,0,0,0,0,,,,,1,0,1,0,,,,,63,0,63,0,807.4445759,,,,,,,,,,,,,,,,,,,,,,,,,,,,,,,,,,,,,,,,,,,Wanne,2.3362,807.4296402999998,807.4302483000001,807.4303554999997,807.4445759,809.7941006000001,809.7787540999998,809.7823731999997,809.7941006000001,809.7941006000001,809.7941006000001,809.7941006000001,811.7947393999993,811.7947393999993,811.7947393999993,811.7947393999993,811.7787037999997,3,0.7835340999999971,0.23620759999994334,None,,,,,,,,,Guess_8294,22,female,1,2025-05-10_11h32.01.600,sm,2024.2.4,59.97015884895574,2025-05-10 11h32.28.212208 +0200,
64,0,64,,,,,,space,10.393505500000174,None,None,2,0.6894990999999209,0.2592678999999407,None,0,0,0,0,,,,,1,0,1,0,,,,,64,0,64,0,811.7947393999993,,,,,,,,,,,,,,,,,,,,,,,,,,,,,,,,,,,,,,,,,,,Publikum,2.1831,811.7791931000002,811.7797016999994,811.7798118999999,811.7947393999993,813.9775149999996,813.9618894999994,813.9657489000001,813.9775149999996,813.9775149999996,813.9775149999996,813.9775149999996,815.9775441000002,815.9775441000002,815.9775441000002,815.9775441000002,815.9617386,2,0.6894990999999209,0.2592678999999407,None,,,,,,,,,Guess_8294,22,female,1,2025-05-10_11h32.01.600,sm,2024.2.4,59.97015884895574,2025-05-10 11h32.28.212208 +0200,
65,0,65,,,,,,space,10.393505500000174,None,None,3,0.8650216999994882,0.2168029000004026,None,0,0,0,0,,,,,1,0,1,0,,,,,65,0,65,0,815.9775441000002,,,,,,,,,,,,,,,,,,,,,,,,,,,,,,,,,,,,,,,,,,,Zeit,3.0547,815.9622338999998,815.9627359999995,815.9628416999994,815.9775441000002,819.0438340000001,819.0283550999993,819.0328025999997,819.0438340000001,819.0438340000001,819.0438340000001,819.0438340000001,821.0438101,821.0438101,821.0438101,821.0438101,821.0286392999997,3,0.8650216999994882,0.2168029000004026,None,,,,,,,,,Guess_8294,22,female,1,2025-05-10_11h32.01.600,sm,2024.2.4,59.97015884895574,2025-05-10 11h32.28.212208 +0200,
66,0,66,,,,,,space,10.393505500000174,None,None,2,0.6591483000001972,0.2554436000000351,None,0,0,0,0,,,,,1,0,1,0,,,,,66,0,66,0,821.0438101,,,,,,,,,,,,,,,,,,,,,,,,,,,,,,,,,,,,,,,,,,,Schwester,2.9109,821.0291404,821.0296496000001,821.0297535999998,821.0438101,823.9600057999996,823.9445129999995,823.9485183999996,823.9600057999996,823.9600057999996,823.9600057999996,823.9600057999996,825.9607134999997,825.9607134999997,825.9607134999997,825.9607134999997,825.9447703999995,2,0.6591483000001972,0.2554436000000351,None,,,,,,,,,Guess_8294,22,female,1,2025-05-10_11h32.01.600,sm,2024.2.4,59.97015884895574,2025-05-10 11h32.28.212208 +0200,
