thisN,thisTrialN,thisRepN,Cue,Target,Mediator1,Mediator2,iti,scanner_ready_press.keys,scanner_ready_press.rt,scanner_ready_press.duration,skip_trigger.keys,living_nonliving.keys,end_mapping.keys,living_nonliving.rt,living_nonliving.duration,blocks.thisRepN,blocks.thisTrialN,blocks.thisN,blocks.thisIndex,load_and_shuffle.thisRepN,load_and_shuffle.thisTrialN,load_and_shuffle.thisN,load_and_shuffle.thisIndex,runs.thisRepN,runs.thisTrialN,runs.thisN,runs.thisIndex,iti_loading_loop.thisRepN,iti_loading_loop.thisTrialN,iti_loading_loop.thisN,iti_loading_loop.thisIndex,semantic_mapping_run.thisRepN,semantic_mapping_run.thisTrialN,semantic_mapping_run.thisN,semantic_mapping_run.thisIndex,thisRow.t,notes,welcome.started,welcome_text.started,welcome_text.stopped,welcome.stopped,scout.started,scout_text.started,key_resp.started,scout.stopped,key_resp.keys,key_resp.rt,key_resp.duration,instructions_semantic_mapping1.started,sm_instructions1_text.started,sm_instructions1_key.started,instructions_semantic_mapping1.stopped,sm_instructions1_key.keys,sm_instructions1_key.rt,sm_instructions1_key.duration,instructions_semantic_mapping2.started,sm_instructions2_text.started,sm_instructions2_key.started,instructions_semantic_mapping2.stopped,sm_instructions2_key.keys,sm_instructions2_key.rt,sm_instructions2_key.duration,reset_run.started,reset_run.stopped,shuffle_items.started,shuffle_items.stopped,set_up_runs.started,set_up_runs.stopped,load_iti.started,load_iti.stopped,prep_scanner.started,scanner_ready_press.started,ready_set_text.started,prep_scanner.stopped,runs.scanner_ready_press.keys,runs.scanner_ready_press.rt,runs.scanner_ready_press.duration,wait_for_trigger.started,starting_soon.started,skip_trigger.started,wait_for_trigger.stopped,runs.skip_trigger.keys,blank.started,begin_end_run_cross.started,sound_1.started,sound_1.stopped,sound_2.started,sound_2.stopped,blank.stopped,CurrentItem,CurrentITI,set_up_trial.started,set_up_trial.stopped,sm_iti.started,iti_cross.started,iti_cross.stopped,sm_iti.stopped,item.started,living_nonliving.started,end_mapping.started,living_nonliving_text.started,semantic_map_item.started,living_nonliving.stopped,end_mapping.stopped,living_nonliving_text.stopped,semantic_map_item.stopped,item.stopped,semantic_mapping_run.living_nonliving.keys,semantic_mapping_run.end_mapping.keys,semantic_mapping_run.living_nonliving.rt,semantic_mapping_run.living_nonliving.duration,fieldmap.started,fieldmap.stopped,runs.fm_key.keys,task_break.started,task_break_text.started,task_break_resp.started,task_break.stopped,runs.task_break_resp.keys,runs.task_break_resp.rt,runs.task_break_resp.duration,fm_text.started,fm_key.started,runs.fm_key.rt,runs.fm_key.duration,begin_end_run_cross.stopped,thanks.started,thanks_text.started,thanks_text.stopped,thanks.stopped,PID,MRI,date,expName,psychopyVersion,frameRate,expStart,
,,,,,,,,,,,,,,,,,,,,,,,,,,,,,,,,,,,,,,0.004040599999825645,0.015483899999708228,3.016063199999735,3.0004986000003555,,,,,,,,,,,,,,,,,,,,,,,,,,,,,,,,,,,,,,,,,,,,,,,,,,,,,,,,,,,,,,,,,,,,,,,,,,,,,,,,,,,,,,,,,,9378,1,2025-05-19_13h59.52.039,sm,2024.2.4,59.916979033820574,2025-05-19 14h02.47.158289 +0200,
,,,,,,,,,,,,,,,,,,,,,,,,,,,,,,,,,,,,,,,,,,3.000589299999774,3.016063199999735,3.016063199999735,107.0677453999997,space,104.03353680000055,None,,,,,,,,,,,,,,,,,,,,,,,,,,,,,,,,,,,,,,,,,,,,,,,,,,,,,,,,,,,,,,,,,,,,,,,,,,,,,,,,,,,9378,1,2025-05-19_13h59.52.039,sm,2024.2.4,59.916979033820574,2025-05-19 14h02.47.158289 +0200,
,,,,,,,,,,,,,,,,,,,,,,,,,,,,,,,,,,,,,,,,,,,,,,,,,107.06786769999962,107.07644869999967,107.07644869999967,122.84225969999989,2,15.759134000000813,None,,,,,,,,,,,,,,,,,,,,,,,,,,,,,,,,,,,,,,,,,,,,,,,,,,,,,,,,,,,,,,,,,,,,,,,,,,,,9378,1,2025-05-19_13h59.52.039,sm,2024.2.4,59.916979033820574,2025-05-19 14h02.47.158289 +0200,
,,,,,,,,,,,,,,,,,,,,,,,,,,,,,,,,,,,,,,,,,,,,,,,,,,,,,,,,122.8423899999998,122.85902549999992,122.85902549999992,134.0599917999998,2,11.182627700000012,None,,,,,,,,,,,,,,,,,,,,,,,,,,,,,,,,,,,,,,,,,,,,,,,,,,,,,,,,,,,,,,,,,,,,,9378,1,2025-05-19_13h59.52.039,sm,2024.2.4,59.916979033820574,2025-05-19 14h02.47.158289 +0200,
0,0,0,Zahnpasta,Gel,Bürste,Tube,2.7357,space,4.1070431000007375,None,None,None,None,,,0,0,0,0,0,79,79,57,0,0,0,0,0,79,79,2,0,0,0,0,194.88774130000002,,,,,,,,,,,,,,,,,,,,,,,,,,,134.06083000000035,134.06138180000016,134.12609919999977,134.12636269999985,134.13079840000046,134.1310964000004,134.16126340000028,134.1615238000004,134.16818039999998,134.17522989999998,134.17522989999998,138.29171659999975,space,4.1070431000007375,None,138.29187999999976,138.3080918000005,138.3080918000005,182.85687020000023,None,182.8659176000001,182.8747284000001,182.87226906666663,184.0764992000004,192.87181466666632,193.8765411000004,194.87185099999988,Koch,2.7357,194.87329210000007,194.87399040000037,194.87730040000042,194.88774130000002,197.63837859999967,197.6223614999999,197.6285684000004,197.63837859999967,197.63837859999967,197.63837859999967,197.63837859999967,199.63770579999982,199.63770579999982,199.63770579999982,199.63770579999982,199.6221674999997,None,None,,,,,,,,,,,,,,,,,,,,,,9378,1,2025-05-19_13h59.52.039,sm,2024.2.4,59.916979033820574,2025-05-19 14h02.47.158289 +0200,
1,0,1,,,,,,space,4.1070431000007375,None,None,2,None,1.8704032999994524,None,0,0,0,0,,,,,0,0,0,0,,,,,1,0,1,0,199.63770579999982,,,,,,,,,,,,,,,,,,,,,,,,,,,,,,,,,,,,,,,,,,,,,,,,,,,,,,Weinen,3.6615,199.62264179999966,199.6232955000005,199.62341040000047,199.63770579999982,203.30417469999975,203.28866579999976,203.29335549999996,203.30417469999975,203.30417469999975,203.30417469999975,203.30417469999975,205.3039834000001,205.3039834000001,205.3039834000001,205.3039834000001,205.28859710000052,2,None,1.8704032999994524,None,,,,,,,,,,,,,,,,,,,,9378,1,2025-05-19_13h59.52.039,sm,2024.2.4,59.916979033820574,2025-05-19 14h02.47.158289 +0200,
2,0,2,,,,,,space,4.1070431000007375,None,None,None,None,,,0,0,0,0,,,,,0,0,0,0,,,,,2,0,2,0,205.3039834000001,,,,,,,,,,,,,,,,,,,,,,,,,,,,,,,,,,,,,,,,,,,,,,,,,,,,,,Sicherheit,2.5169,205.2891085000001,205.28966039999978,205.2897724000004,205.3039834000001,207.82112310000048,207.80488650000007,207.8094271,207.82112310000048,207.82112310000048,207.82112310000048,207.82112310000048,209.82069769999998,209.82069769999998,209.82069769999998,209.82069769999998,209.80515300000025,None,None,,,,,,,,,,,,,,,,,,,,,,9378,1,2025-05-19_13h59.52.039,sm,2024.2.4,59.916979033820574,2025-05-19 14h02.47.158289 +0200,
3,0,3,,,,,,space,4.1070431000007375,None,None,3,None,1.5408864999999423,0.2898897000004581,0,0,0,0,,,,,0,0,0,0,,,,,3,0,3,0,209.82069769999998,,,,,,,,,,,,,,,,,,,,,,,,,,,,,,,,,,,,,,,,,,,,,,,,,,,,,,Gleis,2.0052,209.80562540000028,209.8061944000001,209.80630930000007,209.82069769999998,211.83733349999966,211.82131190000018,211.82550700000047,211.83733349999966,211.83733349999966,211.83733349999966,211.83733349999966,213.83691550000003,213.83691550000003,213.83691550000003,213.83691550000003,213.8213338000005,3,None,1.5408864999999423,0.2898897000004581,,,,,,,,,,,,,,,,,,,,9378,1,2025-05-19_13h59.52.039,sm,2024.2.4,59.916979033820574,2025-05-19 14h02.47.158289 +0200,
4,0,4,,,,,,space,4.1070431000007375,None,None,2,None,1.8158927999993466,None,0,0,0,0,,,,,0,0,0,0,,,,,4,0,4,0,213.83691550000003,,,,,,,,,,,,,,,,,,,,,,,,,,,,,,,,,,,,,,,,,,,,,,,,,,,,,,Feld,2.9645,213.82183749999967,213.82248679999975,213.82259460000023,213.83691550000003,216.80348330000015,216.7882182000003,216.79424560000007,216.80348330000015,216.80348330000015,216.80348330000015,216.80348330000015,218.80339999999978,218.80339999999978,218.80339999999978,218.80339999999978,218.7881256999999,2,None,1.8158927999993466,None,,,,,,,,,,,,,,,,,,,,9378,1,2025-05-19_13h59.52.039,sm,2024.2.4,59.916979033820574,2025-05-19 14h02.47.158289 +0200,
5,0,5,,,,,,space,4.1070431000007375,None,None,None,None,,,0,0,0,0,,,,,0,0,0,0,,,,,5,0,5,0,218.80339999999978,,,,,,,,,,,,,,,,,,,,,,,,,,,,,,,,,,,,,,,,,,,,,,,,,,,,,,Trennung,2.0934,218.7886398999999,218.7893114999997,218.7894240000005,218.80339999999978,220.90309760000036,220.88751839999986,220.89140099999986,220.90309760000036,220.90309760000036,220.90309760000036,220.90309760000036,222.90308280000045,222.90308280000045,222.90308280000045,222.90308280000045,222.88776080000025,None,None,,,,,,,,,,,,,,,,,,,,,,9378,1,2025-05-19_13h59.52.039,sm,2024.2.4,59.916979033820574,2025-05-19 14h02.47.158289 +0200,
6,0,6,,,,,,space,4.1070431000007375,None,None,2,None,0.7453576999996585,0.24006649999955698,0,0,0,0,,,,,0,0,0,0,,,,,6,0,6,0,222.90308280000045,,,,,,,,,,,,,,,,,,,,,,,,,,,,,,,,,,,,,,,,,,,,,,,,,,,,,,Eltern,2.6446,222.8882335999997,222.88875780000035,222.8888668999998,222.90308280000045,225.5527729000005,225.5373122000001,225.54094869999972,225.5527729000005,225.5527729000005,225.5527729000005,225.5527729000005,227.5529588999998,227.5529588999998,227.5529588999998,227.5529588999998,227.53737,2,None,0.7453576999996585,0.24006649999955698,,,,,,,,,,,,,,,,,,,,9378,1,2025-05-19_13h59.52.039,sm,2024.2.4,59.916979033820574,2025-05-19 14h02.47.158289 +0200,
7,0,7,,,,,,space,4.1070431000007375,None,None,3,None,1.3748375999994096,0.30690340000001015,0,0,0,0,,,,,0,0,0,0,,,,,7,0,7,0,227.5529588999998,,,,,,,,,,,,,,,,,,,,,,,,,,,,,,,,,,,,,,,,,,,,,,,,,,,,,,Lava,2.6312,227.53787050000028,227.53852970000025,227.53863879999972,227.5529588999998,230.1859645000004,230.16994820000036,230.1733062000003,230.1859645000004,230.1859645000004,230.1859645000004,230.1859645000004,232.18589239999983,232.18589239999983,232.18589239999983,232.18589239999983,232.17044480000004,3,None,1.3748375999994096,0.30690340000001015,,,,,,,,,,,,,,,,,,,,9378,1,2025-05-19_13h59.52.039,sm,2024.2.4,59.916979033820574,2025-05-19 14h02.47.158289 +0200,
8,0,8,,,,,,space,4.1070431000007375,None,None,2,None,1.487952100000257,0.25711190000038187,0,0,0,0,,,,,0,0,0,0,,,,,8,0,8,0,232.18589239999983,,,,,,,,,,,,,,,,,,,,,,,,,,,,,,,,,,,,,,,,,,,,,,,,,,,,,,Vergangenheit,2.6097,232.17094600000019,232.17160570000033,232.17171570000028,232.18589239999983,234.8023536999999,234.78675639999983,234.79137309999987,234.8023536999999,234.8023536999999,234.8023536999999,234.8023536999999,236.8023022999996,236.8023022999996,236.8023022999996,236.8023022999996,236.78670580000016,2,None,1.487952100000257,0.25711190000038187,,,,,,,,,,,,,,,,,,,,9378,1,2025-05-19_13h59.52.039,sm,2024.2.4,59.916979033820574,2025-05-19 14h02.47.158289 +0200,
9,0,9,,,,,,space,4.1070431000007375,None,None,3,None,1.3227434000000358,0.342381800000112,0,0,0,0,,,,,0,0,0,0,,,,,9,0,9,0,236.8023022999996,,,,,,,,,,,,,,,,,,,,,,,,,,,,,,,,,,,,,,,,,,,,,,,,,,,,,,Schlamm,3.0547,236.78721789999963,236.78774090000024,236.7878541,236.8023022999996,239.86903830000028,239.8532610000002,239.85757269999976,239.86903830000028,239.86903830000028,239.86903830000028,239.86903830000028,241.86868690000028,241.86868690000028,241.86868690000028,241.86868690000028,241.85315730000002,3,None,1.3227434000000358,0.342381800000112,,,,,,,,,,,,,,,,,,,,9378,1,2025-05-19_13h59.52.039,sm,2024.2.4,59.916979033820574,2025-05-19 14h02.47.158289 +0200,
10,0,10,,,,,,space,4.1070431000007375,None,None,3,None,1.5543713999995816,0.31951960000060353,0,0,0,0,,,,,0,0,0,0,,,,,10,0,10,0,241.86868690000028,,,,,,,,,,,,,,,,,,,,,,,,,,,,,,,,,,,,,,,,,,,,,,,,,,,,,,Station,3.6005,241.85366599999998,241.8541911000002,241.85430150000047,241.86868690000028,245.46830810000029,245.45270900000014,245.4568833000003,245.46830810000029,245.46830810000029,245.46830810000029,245.46830810000029,247.46854050000002,247.46854050000002,247.46854050000002,247.46854050000002,247.45296010000038,3,None,1.5543713999995816,0.31951960000060353,,,,,,,,,,,,,,,,,,,,9378,1,2025-05-19_13h59.52.039,sm,2024.2.4,59.916979033820574,2025-05-19 14h02.47.158289 +0200,
11,0,11,,,,,,space,4.1070431000007375,None,None,2,None,0.8560657999996693,0.39398890000029496,0,0,0,0,,,,,0,0,0,0,,,,,11,0,11,0,247.46854050000002,,,,,,,,,,,,,,,,,,,,,,,,,,,,,,,,,,,,,,,,,,,,,,,,,,,,,,Agent,2.1743,247.4534881999998,247.45403069999975,247.45414549999987,247.46854050000002,249.6514588,249.63579219999974,249.63969819999966,249.6514588,249.6514588,249.6514588,249.6514588,251.65134020000005,251.65134020000005,251.65134020000005,251.65134020000005,251.6357521,2,None,0.8560657999996693,0.39398890000029496,,,,,,,,,,,,,,,,,,,,9378,1,2025-05-19_13h59.52.039,sm,2024.2.4,59.916979033820574,2025-05-19 14h02.47.158289 +0200,
12,0,12,,,,,,space,4.1070431000007375,None,None,3,None,1.4782534000005398,None,0,0,0,0,,,,,0,0,0,0,,,,,12,0,12,0,251.65134020000005,,,,,,,,,,,,,,,,,,,,,,,,,,,,,,,,,,,,,,,,,,,,,,,,,,,,,,Bett,2.3006,251.6362323000003,251.63674079999964,251.6368438999998,251.65134020000005,253.95123799999965,253.93561150000005,253.93916509999963,253.95123799999965,253.95123799999965,253.95123799999965,253.95123799999965,255.95109390000016,255.95109390000016,255.95109390000016,255.95109390000016,255.93557950000013,3,None,1.4782534000005398,None,,,,,,,,,,,,,,,,,,,,9378,1,2025-05-19_13h59.52.039,sm,2024.2.4,59.916979033820574,2025-05-19 14h02.47.158289 +0200,
13,0,13,,,,,,space,4.1070431000007375,None,None,3,None,1.2926501000001736,0.3779979999999341,0,0,0,0,,,,,0,0,0,0,,,,,13,0,13,0,255.95109390000016,,,,,,,,,,,,,,,,,,,,,,,,,,,,,,,,,,,,,,,,,,,,,,,,,,,,,,Monument,2.7584,255.93608330000006,255.93678329999966,255.9368940000004,255.95109390000016,258.71767269999964,258.7020067000003,258.7061980999997,258.71767269999964,258.71767269999964,258.71767269999964,258.71767269999964,260.7175771000002,260.7175771000002,260.7175771000002,260.7175771000002,260.7019977,3,None,1.2926501000001736,0.3779979999999341,,,,,,,,,,,,,,,,,,,,9378,1,2025-05-19_13h59.52.039,sm,2024.2.4,59.916979033820574,2025-05-19 14h02.47.158289 +0200,
14,0,14,,,,,,space,4.1070431000007375,None,None,None,None,,,0,0,0,0,,,,,0,0,0,0,,,,,14,0,14,0,260.7175771000002,,,,,,,,,,,,,,,,,,,,,,,,,,,,,,,,,,,,,,,,,,,,,,,,,,,,,,Pizza,2.1413,260.70250020000003,260.7031612999999,260.7032706,260.7175771000002,262.8670586999997,262.8514863999999,262.8555139,262.8670586999997,262.8670586999997,262.8670586999997,262.8670586999997,264.86726,264.86726,264.86726,264.86726,264.85208669999975,None,None,,,,,,,,,,,,,,,,,,,,,,9378,1,2025-05-19_13h59.52.039,sm,2024.2.4,59.916979033820574,2025-05-19 14h02.47.158289 +0200,
15,0,15,,,,,,space,4.1070431000007375,None,None,2,None,1.3639407999999094,0.30416820000027656,0,0,0,0,,,,,0,0,0,0,,,,,15,0,15,0,264.86726,,,,,,,,,,,,,,,,,,,,,,,,,,,,,,,,,,,,,,,,,,,,,,,,,,,,,,Sprache,2.0842,264.8525576000002,264.8530754000003,264.85318149999966,264.86726,266.9503013000003,266.9350639000004,266.93853390000004,266.9503013000003,266.9503013000003,266.9503013000003,266.9503013000003,268.9508544,268.9508544,268.9508544,268.9508544,268.9350027999999,2,None,1.3639407999999094,0.30416820000027656,,,,,,,,,,,,,,,,,,,,9378,1,2025-05-19_13h59.52.039,sm,2024.2.4,59.916979033820574,2025-05-19 14h02.47.158289 +0200,
16,0,16,,,,,,space,4.1070431000007375,None,None,3,None,1.0080026000005091,0.4188700999993671,0,0,0,0,,,,,0,0,0,0,,,,,16,0,16,0,268.9508544,,,,,,,,,,,,,,,,,,,,,,,,,,,,,,,,,,,,,,,,,,,,,,,,,,,,,,Zahnpasta,4.3756,268.9355105000004,268.93613619999996,268.9362460000002,268.9508544,273.33334209999975,273.31758549999995,273.3236775000005,273.33334209999975,273.33334209999975,273.33334209999975,273.33334209999975,275.33334130000003,275.33334130000003,275.33334130000003,275.33334130000003,275.3178058000003,3,None,1.0080026000005091,0.4188700999993671,,,,,,,,,,,,,,,,,,,,9378,1,2025-05-19_13h59.52.039,sm,2024.2.4,59.916979033820574,2025-05-19 14h02.47.158289 +0200,
17,0,17,,,,,,space,4.1070431000007375,None,None,3,None,1.3317972000004374,0.47438340000007884,0,0,0,0,,,,,0,0,0,0,,,,,17,0,17,0,275.33334130000003,,,,,,,,,,,,,,,,,,,,,,,,,,,,,,,,,,,,,,,,,,,,,,,,,,,,,,Datei,2.3362,275.31834979999985,275.31887579999966,275.3189861999999,275.33334130000003,277.6833538000001,277.6675608000005,277.6715542000002,277.6833538000001,277.6833538000001,277.6833538000001,277.6833538000001,279.6835984999998,279.6835984999998,279.6835984999998,279.6835984999998,279.66750950000005,3,None,1.3317972000004374,0.47438340000007884,,,,,,,,,,,,,,,,,,,,9378,1,2025-05-19_13h59.52.039,sm,2024.2.4,59.916979033820574,2025-05-19 14h02.47.158289 +0200,
18,0,18,,,,,,space,4.1070431000007375,None,None,3,None,1.2060567999997147,0.6063426000000618,0,0,0,0,,,,,0,0,0,0,,,,,18,0,18,0,279.6835984999998,,,,,,,,,,,,,,,,,,,,,,,,,,,,,,,,,,,,,,,,,,,,,,,,,,,,,,Weihnachten,4.4767,279.6680606,279.6685930000003,279.6687032,279.6835984999998,284.1660807999997,284.15051140000014,284.15482150000025,284.1660807999997,284.1660807999997,284.1660807999997,284.1660807999997,286.1662231999999,286.1662231999999,286.1662231999999,286.1662231999999,286.1504796999998,3,None,1.2060567999997147,0.6063426000000618,,,,,,,,,,,,,,,,,,,,9378,1,2025-05-19_13h59.52.039,sm,2024.2.4,59.916979033820574,2025-05-19 14h02.47.158289 +0200,
19,0,19,,,,,,space,4.1070431000007375,None,None,None,None,,,0,0,0,0,,,,,0,0,0,0,,,,,19,0,19,0,286.1662231999999,,,,,,,,,,,,,,,,,,,,,,,,,,,,,,,,,,,,,,,,,,,,,,,,,,,,,,Schnee,5.3463,286.1509801000002,286.1514957999998,286.15161050000006,286.1662231999999,291.5158871000003,291.5000167999997,291.50375840000015,291.5158871000003,291.5158871000003,291.5158871000003,291.5158871000003,293.5156033000003,293.5156033000003,293.5156033000003,293.5156033000003,293.4999023999999,None,None,,,,,,,,,,,,,,,,,,,,,,9378,1,2025-05-19_13h59.52.039,sm,2024.2.4,59.916979033820574,2025-05-19 14h02.47.158289 +0200,
20,0,20,,,,,,space,4.1070431000007375,None,None,3,None,1.04736690000027,0.34564899999986665,0,0,0,0,,,,,0,0,0,0,,,,,20,0,20,0,293.5156033000003,,,,,,,,,,,,,,,,,,,,,,,,,,,,,,,,,,,,,,,,,,,,,,,,,,,,,,Stiefel,4.4429,293.5003615000005,293.5008764000004,293.50099150000005,293.5156033000003,297.9659322999996,297.9498180999999,297.9549906000002,297.9659322999996,297.9659322999996,297.9659322999996,297.9659322999996,299.9653242000004,299.9653242000004,299.9653242000004,299.9653242000004,299.9497086000001,3,None,1.04736690000027,0.34564899999986665,,,,,,,,,,,,,,,,,,,,9378,1,2025-05-19_13h59.52.039,sm,2024.2.4,59.916979033820574,2025-05-19 14h02.47.158289 +0200,
21,0,21,,,,,,space,4.1070431000007375,None,None,3,None,1.0572009999996226,0.3062148999997589,0,0,0,0,,,,,0,0,0,0,,,,,21,0,21,0,299.9653242000004,,,,,,,,,,,,,,,,,,,,,,,,,,,,,,,,,,,,,,,,,,,,,,,,,,,,,,Pumpe,2.0946,299.95022059999974,299.9507450000001,299.9508539999997,299.9653242000004,302.0650462000003,302.0492626000005,302.0526877000002,302.0650462000003,302.0650462000003,302.0650462000003,302.0650462000003,304.0655138000002,304.0655138000002,304.0655138000002,304.0655138000002,304.04989490000025,3,None,1.0572009999996226,0.3062148999997589,,,,,,,,,,,,,,,,,,,,9378,1,2025-05-19_13h59.52.039,sm,2024.2.4,59.916979033820574,2025-05-19 14h02.47.158289 +0200,
22,0,22,,,,,,space,4.1070431000007375,None,None,3,None,1.3471828000001551,0.3498883999991449,0,0,0,0,,,,,0,0,0,0,,,,,22,0,22,0,304.0655138000002,,,,,,,,,,,,,,,,,,,,,,,,,,,,,,,,,,,,,,,,,,,,,,,,,,,,,,Flasche,2.2129,304.0504069999997,304.05092520000017,304.0510327000002,304.0655138000002,306.28152190000037,306.26595309999993,306.27027290000024,306.28152190000037,306.28152190000037,306.28152190000037,306.28152190000037,308.2813507000001,308.2813507000001,308.2813507000001,308.2813507000001,308.2658376999998,3,None,1.3471828000001551,0.3498883999991449,,,,,,,,,,,,,,,,,,,,9378,1,2025-05-19_13h59.52.039,sm,2024.2.4,59.916979033820574,2025-05-19 14h02.47.158289 +0200,
23,0,23,,,,,,space,4.1070431000007375,None,None,3,None,1.3377666000005775,0.40373299999919254,0,0,0,0,,,,,0,0,0,0,,,,,23,0,23,0,308.2813507000001,,,,,,,,,,,,,,,,,,,,,,,,,,,,,,,,,,,,,,,,,,,,,,,,,,,,,,Zeichnung,3.6564,308.2663488999997,308.2668650000005,308.26697460000014,308.2813507000001,311.9477671000004,311.93212550000044,311.93641469999966,311.9477671000004,311.9477671000004,311.9477671000004,311.9477671000004,313.9481800000003,313.9481800000003,313.9481800000003,313.9481800000003,313.93233429999964,3,None,1.3377666000005775,0.40373299999919254,,,,,,,,,,,,,,,,,,,,9378,1,2025-05-19_13h59.52.039,sm,2024.2.4,59.916979033820574,2025-05-19 14h02.47.158289 +0200,
24,0,24,,,,,,space,4.1070431000007375,None,None,2,None,1.3990567000000738,0.3753366000000824,0,0,0,0,,,,,0,0,0,0,,,,,24,0,24,0,313.9481800000003,,,,,,,,,,,,,,,,,,,,,,,,,,,,,,,,,,,,,,,,,,,,,,,,,,,,,,Käse,2.83,313.9328462000003,313.9334963000001,313.9336043000003,313.9481800000003,316.7810053000003,316.76524770000015,316.7687394000004,316.7810053000003,316.7810053000003,316.7810053000003,316.7810053000003,318.78081269999984,318.78081269999984,318.78081269999984,318.78081269999984,318.7655842000004,2,None,1.3990567000000738,0.3753366000000824,,,,,,,,,,,,,,,,,,,,9378,1,2025-05-19_13h59.52.039,sm,2024.2.4,59.916979033820574,2025-05-19 14h02.47.158289 +0200,
25,0,25,,,,,,space,4.1070431000007375,None,None,2,None,0.9375424999998359,0.36322850000033213,0,0,0,0,,,,,0,0,0,0,,,,,25,0,25,0,318.78081269999984,,,,,,,,,,,,,,,,,,,,,,,,,,,,,,,,,,,,,,,,,,,,,,,,,,,,,,Journalistin,2.4167,318.7660923000003,318.7666072000002,318.7667177000003,318.78081269999984,321.19709859999966,321.1815256,321.1881678,321.19709859999966,321.19709859999966,321.19709859999966,321.19709859999966,323.19775389999995,323.19775389999995,323.19775389999995,323.19775389999995,323.1818658000002,2,None,0.9375424999998359,0.36322850000033213,,,,,,,,,,,,,,,,,,,,9378,1,2025-05-19_13h59.52.039,sm,2024.2.4,59.916979033820574,2025-05-19 14h02.47.158289 +0200,
26,0,26,,,,,,space,4.1070431000007375,None,None,3,None,1.1704172999998264,0.40154849999998987,0,0,0,0,,,,,0,0,0,0,,,,,26,0,26,0,323.19775389999995,,,,,,,,,,,,,,,,,,,,,,,,,,,,,,,,,,,,,,,,,,,,,,,,,,,,,,Wärme,2.2074,323.18237190000036,323.1828986999999,323.1830157000004,323.19775389999995,325.41381230000025,325.3981310999998,325.4029410000003,325.41381230000025,325.41381230000025,325.41381230000025,325.41381230000025,327.41422500000044,327.41422500000044,327.41422500000044,327.41422500000044,327.3984677999997,3,None,1.1704172999998264,0.40154849999998987,,,,,,,,,,,,,,,,,,,,9378,1,2025-05-19_13h59.52.039,sm,2024.2.4,59.916979033820574,2025-05-19 14h02.47.158289 +0200,
27,0,27,,,,,,space,4.1070431000007375,None,None,3,None,1.0056433999998262,0.3320909000003667,0,0,0,0,,,,,0,0,0,0,,,,,27,0,27,0,327.41422500000044,,,,,,,,,,,,,,,,,,,,,,,,,,,,,,,,,,,,,,,,,,,,,,,,,,,,,,Album,2.3229,327.3989769,327.39950060000047,327.3996127999999,327.41422500000044,329.74688760000026,329.7310444000004,329.7349291999999,329.74688760000026,329.74688760000026,329.74688760000026,329.74688760000026,331.7468280000003,331.7468280000003,331.7468280000003,331.7468280000003,331.7312801999997,3,None,1.0056433999998262,0.3320909000003667,,,,,,,,,,,,,,,,,,,,9378,1,2025-05-19_13h59.52.039,sm,2024.2.4,59.916979033820574,2025-05-19 14h02.47.158289 +0200,
28,0,28,,,,,,space,4.1070431000007375,None,None,2,None,1.1102833000004466,0.2936087999996744,0,0,0,0,,,,,0,0,0,0,,,,,28,0,28,0,331.7468280000003,,,,,,,,,,,,,,,,,,,,,,,,,,,,,,,,,,,,,,,,,,,,,,,,,,,,,,Baum,2.7378,331.7317860000003,331.73230409999996,331.7324157000003,331.7468280000003,334.49633939999967,334.48088800000005,334.48373660000016,334.49633939999967,334.49633939999967,334.49633939999967,334.49633939999967,336.49652609999976,336.49652609999976,336.49652609999976,336.49652609999976,336.48078390000046,2,None,1.1102833000004466,0.2936087999996744,,,,,,,,,,,,,,,,,,,,9378,1,2025-05-19_13h59.52.039,sm,2024.2.4,59.916979033820574,2025-05-19 14h02.47.158289 +0200,
29,0,29,,,,,,space,4.1070431000007375,None,None,3,None,1.3137586000002557,0.5999569999994492,0,0,0,0,,,,,0,0,0,0,,,,,29,0,29,0,336.49652609999976,,,,,,,,,,,,,,,,,,,,,,,,,,,,,,,,,,,,,,,,,,,,,,,,,,,,,,Klippe,2.5982,336.48128559999986,336.4819416,336.48204929999974,336.49652609999976,339.0962330000002,339.0804810999998,339.0840149000005,339.0962330000002,339.0962330000002,339.0962330000002,339.0962330000002,341.09617119999984,341.09617119999984,341.09617119999984,341.09617119999984,341.08051009999963,3,None,1.3137586000002557,0.5999569999994492,,,,,,,,,,,,,,,,,,,,9378,1,2025-05-19_13h59.52.039,sm,2024.2.4,59.916979033820574,2025-05-19 14h02.47.158289 +0200,
30,0,30,,,,,,space,4.1070431000007375,None,None,3,None,1.561831500000153,0.3999645000003511,0,0,0,0,,,,,0,0,0,0,,,,,30,0,30,0,341.09617119999984,,,,,,,,,,,,,,,,,,,,,,,,,,,,,,,,,,,,,,,,,,,,,,,,,,,,,,Schule,2.0168,341.0810124999998,341.0815279999997,341.0816354999997,341.09617119999984,343.1127408000002,343.09692220000034,343.10050000000047,343.1127408000002,343.1127408000002,343.1127408000002,343.1127408000002,345.1129780000001,345.1129780000001,345.1129780000001,345.1129780000001,345.09719060000043,3,None,1.561831500000153,0.3999645000003511,,,,,,,,,,,,,,,,,,,,9378,1,2025-05-19_13h59.52.039,sm,2024.2.4,59.916979033820574,2025-05-19 14h02.47.158289 +0200,
31,0,31,,,,,,space,4.1070431000007375,None,None,2,None,1.4595282000000225,0.4040638999995281,0,0,0,0,,,,,0,0,0,0,,,,,31,0,31,0,345.1129780000001,,,,,,,,,,,,,,,,,,,,,,,,,,,,,,,,,,,,,,,,,,,,,,,,,,,,,,Weltraum,2.8863,345.0976900000005,345.098473,345.09858069999973,345.1129780000001,348.0123203000003,347.99677260000044,348.0008921999997,348.0123203000003,348.0123203000003,348.0123203000003,348.0123203000003,350.01237969999966,350.01237969999966,350.01237969999966,350.01237969999966,349.9969049000001,2,None,1.4595282000000225,0.4040638999995281,,,,,,,,,,,,,,,,,,,,9378,1,2025-05-19_13h59.52.039,sm,2024.2.4,59.916979033820574,2025-05-19 14h02.47.158289 +0200,
32,0,32,,,,,,space,4.1070431000007375,None,None,2,None,1.704322300000058,None,0,0,0,0,,,,,0,0,0,0,,,,,32,0,32,0,350.01237969999966,,,,,,,,,,,,,,,,,,,,,,,,,,,,,,,,,,,,,,,,,,,,,,,,,,,,,,Trinken,2.3419,349.9974063999998,349.99808740000026,349.9982004000003,350.01237969999966,352.3620071000005,352.34630949999973,352.34985229999984,352.3620071000005,352.3620071000005,352.3620071000005,352.3620071000005,354.3622561000002,354.3622561000002,354.3622561000002,354.3622561000002,354.34690690000025,2,None,1.704322300000058,None,,,,,,,,,,,,,,,,,,,,9378,1,2025-05-19_13h59.52.039,sm,2024.2.4,59.916979033820574,2025-05-19 14h02.47.158289 +0200,
33,0,33,,,,,,space,4.1070431000007375,None,None,2,None,1.5087044000001697,None,0,0,0,0,,,,,0,0,0,0,,,,,33,0,33,0,354.3622561000002,,,,,,,,,,,,,,,,,,,,,,,,,,,,,,,,,,,,,,,,,,,,,,,,,,,,,,Flut,2.3599,354.3474076000002,354.3480872,354.34819460000017,354.3622561000002,356.7290036000004,356.7127094999996,356.71677,356.7290036000004,356.7290036000004,356.7290036000004,356.7290036000004,358.72850689999996,358.72850689999996,358.72850689999996,358.72850689999996,358.712681,2,None,1.5087044000001697,None,,,,,,,,,,,,,,,,,,,,9378,1,2025-05-19_13h59.52.039,sm,2024.2.4,59.916979033820574,2025-05-19 14h02.47.158289 +0200,
34,0,34,,,,,,space,4.1070431000007375,None,None,3,None,1.282937099999799,0.552486399999907,0,0,0,0,,,,,0,0,0,0,,,,,34,0,34,0,358.72850689999996,,,,,,,,,,,,,,,,,,,,,,,,,,,,,,,,,,,,,,,,,,,,,,,,,,,,,,Krone,3.9589,358.71314900000016,358.71367519999967,358.71377779999966,358.72850689999996,362.6950944,362.6791957000005,362.68319489999976,362.6950944,362.6950944,362.6950944,362.6950944,364.69677279999996,364.69677279999996,364.69677279999996,364.69677279999996,364.67933900000025,3,None,1.282937099999799,0.552486399999907,,,,,,,,,,,,,,,,,,,,9378,1,2025-05-19_13h59.52.039,sm,2024.2.4,59.916979033820574,2025-05-19 14h02.47.158289 +0200,
35,0,35,,,,,,space,4.1070431000007375,None,None,2,None,1.4220023000007131,0.4356203999996069,0,0,0,0,,,,,0,0,0,0,,,,,35,0,35,0,364.69677279999996,,,,,,,,,,,,,,,,,,,,,,,,,,,,,,,,,,,,,,,,,,,,,,,,,,,,,,Besucher,5.1698,364.67985020000015,364.6803639999998,364.68047170000045,364.69677279999996,369.8778137999998,369.8619924000004,369.8654557,369.8778137999998,369.8778137999998,369.8778137999998,369.8778137999998,371.87795579999965,371.87795579999965,371.87795579999965,371.87795579999965,371.8622538999998,2,None,1.4220023000007131,0.4356203999996069,,,,,,,,,,,,,,,,,,,,9378,1,2025-05-19_13h59.52.039,sm,2024.2.4,59.916979033820574,2025-05-19 14h02.47.158289 +0200,
36,0,36,,,,,,space,4.1070431000007375,None,None,3,None,1.1303931000002194,0.5224895999999717,0,0,0,0,,,,,0,0,0,0,,,,,36,0,36,0,371.87795579999965,,,,,,,,,,,,,,,,,,,,,,,,,,,,,,,,,,,,,,,,,,,,,,,,,,,,,,Helm,2.9109,371.8627709000002,371.8632871,371.86339899999984,371.87795579999965,374.7938458999997,374.77837329999966,374.78392239999994,374.7938458999997,374.7938458999997,374.7938458999997,374.7938458999997,376.79409769999984,376.79409769999984,376.79409769999984,376.79409769999984,376.7785713000003,3,None,1.1303931000002194,0.5224895999999717,,,,,,,,,,,,,,,,,,,,9378,1,2025-05-19_13h59.52.039,sm,2024.2.4,59.916979033820574,2025-05-19 14h02.47.158289 +0200,
37,0,37,,,,,,space,4.1070431000007375,None,None,2,None,1.4483138000005056,0.4078922999997303,0,0,0,0,,,,,0,0,0,0,,,,,37,0,37,0,376.79409769999984,,,,,,,,,,,,,,,,,,,,,,,,,,,,,,,,,,,,,,,,,,,,,,,,,,,,,,Turnerin,4.5524,376.7790793000004,376.7796307999997,376.7797392000002,376.79409769999984,381.3603536999999,381.34479660000034,381.3486972999999,381.3603536999999,381.3603536999999,381.3603536999999,381.3603536999999,383.3603281000005,383.3603281000005,383.3603281000005,383.3603281000005,383.3446918999998,2,None,1.4483138000005056,0.4078922999997303,,,,,,,,,,,,,,,,,,,,9378,1,2025-05-19_13h59.52.039,sm,2024.2.4,59.916979033820574,2025-05-19 14h02.47.158289 +0200,
38,0,38,,,,,,space,4.1070431000007375,None,None,2,None,1.9382517000003645,None,0,0,0,0,,,,,0,0,0,0,,,,,38,0,38,0,383.3603281000005,,,,,,,,,,,,,,,,,,,,,,,,,,,,,,,,,,,,,,,,,,,,,,,,,,,,,,Nase,2.0589,383.3451961999999,383.3458449,383.3459515000004,383.3603281000005,385.4266668999999,385.4109957999999,385.4140232999998,385.4266668999999,385.4266668999999,385.4266668999999,385.4266668999999,387.42687230000047,387.42687230000047,387.42687230000047,387.42687230000047,387.4113490999998,2,None,1.9382517000003645,None,,,,,,,,,,,,,,,,,,,,9378,1,2025-05-19_13h59.52.039,sm,2024.2.4,59.916979033820574,2025-05-19 14h02.47.158289 +0200,
39,0,39,,,,,,space,4.1070431000007375,None,None,3,None,0.9454912999999578,0.3530790999993769,0,0,0,0,,,,,0,0,0,0,,,,,39,0,39,0,387.42687230000047,,,,,,,,,,,,,,,,,,,,,,,,,,,,,,,,,,,,,,,,,,,,,,,,,,,,,,Netz,2.1697,387.4118615999996,387.41243510000004,387.4125457,387.42687230000047,389.6100366999999,389.5943109,389.5974014000003,389.6100366999999,389.6100366999999,389.6100366999999,389.6100366999999,391.60999040000024,391.60999040000024,391.60999040000024,391.60999040000024,391.59423549999974,3,None,0.9454912999999578,0.3530790999993769,,,,,,,,,,,,,,,,,,,,9378,1,2025-05-19_13h59.52.039,sm,2024.2.4,59.916979033820574,2025-05-19 14h02.47.158289 +0200,
40,0,40,,,,,,space,4.1070431000007375,None,None,3,None,1.8127067999994324,None,0,0,0,0,,,,,0,0,0,0,,,,,40,0,40,0,391.60999040000024,,,,,,,,,,,,,,,,,,,,,,,,,,,,,,,,,,,,,,,,,,,,,,,,,,,,,,Salz,2.5519,391.5947438000003,391.59540089999973,391.59551079999983,391.60999040000024,394.17630220000046,394.1607399000004,394.16477920000034,394.17630220000046,394.17630220000046,394.17630220000046,394.17630220000046,396.17625510000016,396.17625510000016,396.17625510000016,396.17625510000016,396.16072989999975,3,None,1.8127067999994324,None,,,,,,,,,,,,,,,,,,,,9378,1,2025-05-19_13h59.52.039,sm,2024.2.4,59.916979033820574,2025-05-19 14h02.47.158289 +0200,
41,0,41,,,,,,space,4.1070431000007375,None,None,2,None,1.4004242000000886,0.404303099999197,0,0,0,0,,,,,0,0,0,0,,,,,41,0,41,0,396.17625510000016,,,,,,,,,,,,,,,,,,,,,,,,,,,,,,,,,,,,,,,,,,,,,,,,,,,,,,Spaß,3.2059,396.1612353999999,396.1617937000001,396.1619032999997,396.17625510000016,399.39245690000007,399.37754310000037,399.3845025999999,399.39245690000007,399.39245690000007,399.39245690000007,399.39245690000007,401.3928017999997,401.3928017999997,401.3928017999997,401.3928017999997,401.377246,2,None,1.4004242000000886,0.404303099999197,,,,,,,,,,,,,,,,,,,,9378,1,2025-05-19_13h59.52.039,sm,2024.2.4,59.916979033820574,2025-05-19 14h02.47.158289 +0200,
42,0,42,,,,,,space,4.1070431000007375,None,None,2,None,1.40417669999988,0.2640021999995952,0,0,0,0,,,,,0,0,0,0,,,,,42,0,42,0,401.3928017999997,,,,,,,,,,,,,,,,,,,,,,,,,,,,,,,,,,,,,,,,,,,,,,,,,,,,,,Leute,2.4521,401.3777594000003,401.3783314000002,401.37844159999986,401.3928017999997,403.85914779999985,403.8435000999998,403.8473702000001,403.85914779999985,403.85914779999985,403.85914779999985,403.85914779999985,405.8591742999997,405.8591742999997,405.8591742999997,405.8591742999997,405.84320320000006,2,None,1.40417669999988,0.2640021999995952,,,,,,,,,,,,,,,,,,,,9378,1,2025-05-19_13h59.52.039,sm,2024.2.4,59.916979033820574,2025-05-19 14h02.47.158289 +0200,
43,0,43,,,,,,space,4.1070431000007375,None,None,3,None,1.5648890000002211,0.3013741000004302,0,0,0,0,,,,,0,0,0,0,,,,,43,0,43,0,405.8591742999997,,,,,,,,,,,,,,,,,,,,,,,,,,,,,,,,,,,,,,,,,,,,,,,,,,,,,,Schloss,2.3916,405.8436265,405.8441149,405.8442074000004,405.8591742999997,408.2591416000005,408.24306030000025,408.2468197999997,408.2591416000005,408.2591416000005,408.2591416000005,408.2591416000005,410.2587067000004,410.2587067000004,410.2587067000004,410.2587067000004,410.24332400000003,3,None,1.5648890000002211,0.3013741000004302,,,,,,,,,,,,,,,,,,,,9378,1,2025-05-19_13h59.52.039,sm,2024.2.4,59.916979033820574,2025-05-19 14h02.47.158289 +0200,
44,0,44,,,,,,space,4.1070431000007375,None,None,3,None,1.352408199999445,0.2727512999999817,0,0,0,0,,,,,0,0,0,0,,,,,44,0,44,0,410.2587067000004,,,,,,,,,,,,,,,,,,,,,,,,,,,,,,,,,,,,,,,,,,,,,,,,,,,,,,Ringe,4.5959,410.2438118,410.2443202000004,410.24442799999997,410.2587067000004,414.85881249999966,414.84293590000016,414.8470964999997,414.85881249999966,414.85881249999966,414.85881249999966,414.85881249999966,416.85838539999986,416.85838539999986,416.85838539999986,416.85838539999986,416.8429403,3,None,1.352408199999445,0.2727512999999817,,,,,,,,,,,,,,,,,,,,9378,1,2025-05-19_13h59.52.039,sm,2024.2.4,59.916979033820574,2025-05-19 14h02.47.158289 +0200,
45,0,45,,,,,,space,4.1070431000007375,None,None,3,None,1.7321289999999863,None,0,0,0,0,,,,,0,0,0,0,,,,,45,0,45,0,416.85838539999986,,,,,,,,,,,,,,,,,,,,,,,,,,,,,,,,,,,,,,,,,,,,,,,,,,,,,,Zähne,2.9832,416.84344450000026,416.84395180000047,416.8440588000003,416.85838539999986,419.8414614000003,419.82630169999993,419.8299212000002,419.8414614000003,419.8414614000003,419.8414614000003,419.8414614000003,421.8414399000003,421.8414399000003,421.8414399000003,421.8414399000003,421.8259858000001,3,None,1.7321289999999863,None,,,,,,,,,,,,,,,,,,,,9378,1,2025-05-19_13h59.52.039,sm,2024.2.4,59.916979033820574,2025-05-19 14h02.47.158289 +0200,
46,0,46,,,,,,space,4.1070431000007375,None,None,2,None,1.0746867000007114,0.39197799999965355,0,0,0,0,,,,,0,0,0,0,,,,,46,0,46,0,421.8414399000003,,,,,,,,,,,,,,,,,,,,,,,,,,,,,,,,,,,,,,,,,,,,,,,,,,,,,,Fledermaus,2.3861,421.8264962000003,421.82704300000023,421.82715129999997,421.8414399000003,424.2409826000003,424.2253897999999,424.2301187000003,424.2409826000003,424.2409826000003,424.2409826000003,424.2409826000003,426.24120180000045,426.24120180000045,426.24120180000045,426.24120180000045,426.22562819999985,2,None,1.0746867000007114,0.39197799999965355,,,,,,,,,,,,,,,,,,,,9378,1,2025-05-19_13h59.52.039,sm,2024.2.4,59.916979033820574,2025-05-19 14h02.47.158289 +0200,
47,0,47,,,,,,space,4.1070431000007375,None,None,3,None,1.4305968999997276,0.38568450000002485,0,0,0,0,,,,,0,0,0,0,,,,,47,0,47,0,426.24120180000045,,,,,,,,,,,,,,,,,,,,,,,,,,,,,,,,,,,,,,,,,,,,,,,,,,,,,,Pflege,2.9061,426.2261395000005,426.2266558000001,426.2267631000004,426.24120180000045,429.1574662000003,429.1418727999999,429.1453022000005,429.1574662000003,429.1574662000003,429.1574662000003,429.1574662000003,431.15765459999966,431.15765459999966,431.15765459999966,431.15765459999966,431.1421528000001,3,None,1.4305968999997276,0.38568450000002485,,,,,,,,,,,,,,,,,,,,9378,1,2025-05-19_13h59.52.039,sm,2024.2.4,59.916979033820574,2025-05-19 14h02.47.158289 +0200,
48,0,48,,,,,,space,4.1070431000007375,None,None,3,None,1.371600700000272,0.4808674999994764,0,0,0,0,,,,,0,0,0,0,,,,,48,0,48,0,431.15765459999966,,,,,,,,,,,,,,,,,,,,,,,,,,,,,,,,,,,,,,,,,,,,,,,,,,,,,,Spitze,3.2825,431.14265479999995,431.14330789999985,431.1434165999999,431.15765459999966,434.4407928999999,434.42522420000023,434.42926629999965,434.4407928999999,434.4407928999999,434.4407928999999,434.4407928999999,436.44067280000036,436.44067280000036,436.44067280000036,436.44067280000036,436.4250468,3,None,1.371600700000272,0.4808674999994764,,,,,,,,,,,,,,,,,,,,9378,1,2025-05-19_13h59.52.039,sm,2024.2.4,59.916979033820574,2025-05-19 14h02.47.158289 +0200,
49,0,49,,,,,,space,4.1070431000007375,None,None,3,None,1.6380466999999044,None,0,0,0,0,,,,,0,0,0,0,,,,,49,0,49,0,436.44067280000036,,,,,,,,,,,,,,,,,,,,,,,,,,,,,,,,,,,,,,,,,,,,,,,,,,,,,,Beutel,4.0852,436.42553880000014,436.4260479000004,436.4261580000002,436.44067280000036,440.5401916999999,440.5245267999999,440.52826040000036,440.5401916999999,440.5401916999999,440.5401916999999,440.5401916999999,442.5402746,442.5402746,442.5402746,442.5402746,442.5246694999996,3,None,1.6380466999999044,None,,,,,,,,,,,,,,,,,,,,9378,1,2025-05-19_13h59.52.039,sm,2024.2.4,59.916979033820574,2025-05-19 14h02.47.158289 +0200,
50,0,50,,,,,,space,4.1070431000007375,None,None,None,None,,,0,0,0,0,,,,,0,0,0,0,,,,,50,0,50,0,442.5402746,,,,,,,,,,,,,,,,,,,,,,,,,,,,,,,,,,,,,,,,,,,,,,,,,,,,,,Club,2.9443,442.5251791999999,442.5257240000001,442.5258332000003,442.5402746,445.48988740000004,445.47458860000006,445.48041850000027,445.48988740000004,445.48988740000004,445.48988740000004,445.48988740000004,447.4898665999999,447.4898665999999,447.4898665999999,447.4898665999999,447.4745802999996,None,None,,,,,,,,,,,,,,,,,,,,,,9378,1,2025-05-19_13h59.52.039,sm,2024.2.4,59.916979033820574,2025-05-19 14h02.47.158289 +0200,
51,0,51,,,,,,space,4.1070431000007375,None,None,2,None,0.8851134000005914,0.40316299999994953,0,0,0,0,,,,,0,0,0,0,,,,,51,0,51,0,447.4898665999999,,,,,,,,,,,,,,,,,,,,,,,,,,,,,,,,,,,,,,,,,,,,,,,,,,,,,,Professor,3.0127,447.4750415999997,447.4755485000005,447.4756623000003,447.4898665999999,450.50659499999983,450.49084219999986,450.4944707000004,450.50659499999983,450.50659499999983,450.50659499999983,450.50659499999983,452.5066489000001,452.5066489000001,452.5066489000001,452.5066489000001,452.49083659999997,2,None,0.8851134000005914,0.40316299999994953,,,,,,,,,,,,,,,,,,,,9378,1,2025-05-19_13h59.52.039,sm,2024.2.4,59.916979033820574,2025-05-19 14h02.47.158289 +0200,
52,0,52,,,,,,space,4.1070431000007375,None,None,None,None,,,0,0,0,0,,,,,0,0,0,0,,,,,52,0,52,0,452.5066489000001,,,,,,,,,,,,,,,,,,,,,,,,,,,,,,,,,,,,,,,,,,,,,,,,,,,,,,Afrika,3.6297,452.4913416999998,452.49185339999985,452.4919617000005,452.5066489000001,456.1392420000002,456.12381019999975,456.12806739999996,456.1392420000002,456.1392420000002,456.1392420000002,456.1392420000002,458.1393766000001,458.1393766000001,458.1393766000001,458.1393766000001,458.123912,None,None,,,,,,,,,,,,,,,,,,,,,,9378,1,2025-05-19_13h59.52.039,sm,2024.2.4,59.916979033820574,2025-05-19 14h02.47.158289 +0200,
53,0,53,,,,,,space,4.1070431000007375,None,None,2,None,1.4473606999999902,0.253287000000455,0,0,0,0,,,,,0,0,0,0,,,,,53,0,53,0,458.1393766000001,,,,,,,,,,,,,,,,,,,,,,,,,,,,,,,,,,,,,,,,,,,,,,,,,,,,,,Lied,2.021,458.12439110000014,458.12489600000026,458.1250081999997,458.1393766000001,460.1722718000001,460.15674860000036,460.1597965000001,460.1722718000001,460.1722718000001,460.1722718000001,460.1722718000001,462.1724812000002,462.1724812000002,462.1724812000002,462.1724812000002,462.1568801000003,2,None,1.4473606999999902,0.253287000000455,,,,,,,,,,,,,,,,,,,,9378,1,2025-05-19_13h59.52.039,sm,2024.2.4,59.916979033820574,2025-05-19 14h02.47.158289 +0200,
54,0,54,,,,,,space,4.1070431000007375,None,None,2,None,1.3124362999997174,0.32289250000030734,0,0,0,0,,,,,0,0,0,0,,,,,54,0,54,0,462.1724812000002,,,,,,,,,,,,,,,,,,,,,,,,,,,,,,,,,,,,,,,,,,,,,,,,,,,,,,Wissen,2.2639,462.1573791999999,462.1579633000001,462.15807510000013,462.1724812000002,464.4389099,464.4232542,464.4264978000001,464.4389099,464.4389099,464.4389099,464.4389099,466.4388589,466.4388589,466.4388589,466.4388589,466.4236547999999,2,None,1.3124362999997174,0.32289250000030734,,,,,,,,,,,,,,,,,,,,9378,1,2025-05-19_13h59.52.039,sm,2024.2.4,59.916979033820574,2025-05-19 14h02.47.158289 +0200,
55,0,55,,,,,,space,4.1070431000007375,None,None,2,None,1.4063851999999315,0.3723923999996259,0,0,0,0,,,,,0,0,0,0,,,,,55,0,55,0,466.4388589,,,,,,,,,,,,,,,,,,,,,,,,,,,,,,,,,,,,,,,,,,,,,,,,,,,,,,Feier,2.0031,466.4241595000003,466.42468540000027,466.42479360000016,466.4388589,468.45514809999986,468.4394054000004,468.4427923000003,468.45514809999986,468.45514809999986,468.45514809999986,468.45514809999986,470.4554569000002,470.4554569000002,470.4554569000002,470.4554569000002,470.43979860000036,2,None,1.4063851999999315,0.3723923999996259,,,,,,,,,,,,,,,,,,,,9378,1,2025-05-19_13h59.52.039,sm,2024.2.4,59.916979033820574,2025-05-19 14h02.47.158289 +0200,
56,0,56,,,,,,space,4.1070431000007375,None,None,2,None,1.5547733000003063,0.3749854999996387,0,0,0,0,,,,,0,0,0,0,,,,,56,0,56,0,470.4554569000002,,,,,,,,,,,,,,,,,,,,,,,,,,,,,,,,,,,,,,,,,,,,,,,,,,,,,,Hand,2.2385,470.4402998000005,470.4408448000004,470.4409538,470.4554569000002,472.70514770000045,472.6899677000001,472.6936920999997,472.70514770000045,472.70514770000045,472.70514770000045,472.70514770000045,474.7051373000004,474.7051373000004,474.7051373000004,474.7051373000004,474.6898289999999,2,None,1.5547733000003063,0.3749854999996387,,,,,,,,,,,,,,,,,,,,9378,1,2025-05-19_13h59.52.039,sm,2024.2.4,59.916979033820574,2025-05-19 14h02.47.158289 +0200,
57,0,57,,,,,,space,4.1070431000007375,None,None,3,None,1.3288274999995338,0.37582210000073246,0,0,0,0,,,,,0,0,0,0,,,,,57,0,57,0,474.7051373000004,,,,,,,,,,,,,,,,,,,,,,,,,,,,,,,,,,,,,,,,,,,,,,,,,,,,,,Rebe,4.7208,474.6903546000003,474.6909015000001,474.6910254000004,474.7051373000004,479.4379463000005,479.4223197000001,479.42607299999963,479.4379463000005,479.4379463000005,479.4379463000005,479.4379463000005,481.43834530000004,481.43834530000004,481.43834530000004,481.43834530000004,481.4226395000005,3,None,1.3288274999995338,0.37582210000073246,,,,,,,,,,,,,,,,,,,,9378,1,2025-05-19_13h59.52.039,sm,2024.2.4,59.916979033820574,2025-05-19 14h02.47.158289 +0200,
58,0,58,,,,,,space,4.1070431000007375,None,None,3,None,1.1322578999997859,0.36791400000038266,0,0,0,0,,,,,0,0,0,0,,,,,58,0,58,0,481.43834530000004,,,,,,,,,,,,,,,,,,,,,,,,,,,,,,,,,,,,,,,,,,,,,,,,,,,,,,Popcorn,3.039,481.4231520000003,481.42367620000005,481.4237869999997,481.43834530000004,484.4879259999998,484.4724806000004,484.47672859999966,484.4879259999998,484.4879259999998,484.4879259999998,484.4879259999998,486.4878273000004,486.4878273000004,486.4878273000004,486.4878273000004,486.47221640000043,3,None,1.1322578999997859,0.36791400000038266,,,,,,,,,,,,,,,,,,,,9378,1,2025-05-19_13h59.52.039,sm,2024.2.4,59.916979033820574,2025-05-19 14h02.47.158289 +0200,
59,0,59,,,,,,space,4.1070431000007375,None,None,2,None,1.7320159999999305,None,0,0,0,0,,,,,0,0,0,0,,,,,59,0,59,0,486.4878273000004,,,,,,,,,,,,,,,,,,,,,,,,,,,,,,,,,,,,,,,,,,,,,,,,,,,,,,Knöchel,5.3655,486.4727244000005,486.4733081000004,486.47341529999994,486.4878273000004,491.8540174999998,491.8386283,491.84374879999996,491.8540174999998,491.8540174999998,491.8540174999998,491.8540174999998,493.85399400000006,493.85399400000006,493.85399400000006,493.85399400000006,493.8382993000005,2,None,1.7320159999999305,None,,,,,,,,,,,,,,,,,,,,9378,1,2025-05-19_13h59.52.039,sm,2024.2.4,59.916979033820574,2025-05-19 14h02.47.158289 +0200,
60,0,60,,,,,,space,4.1070431000007375,None,None,2,None,1.6288911999999982,None,0,0,0,0,,,,,0,0,0,0,,,,,60,0,60,0,493.85399400000006,,,,,,,,,,,,,,,,,,,,,,,,,,,,,,,,,,,,,,,,,,,,,,,,,,,,,,Ei,3.6438,493.83885329999976,493.8394175000003,493.8395309999996,493.85399400000006,497.5036884000001,497.4883517999997,497.49215509999976,497.5036884000001,497.5036884000001,497.5036884000001,497.5036884000001,499.5036336000003,499.5036336000003,499.5036336000003,499.5036336000003,499.48862240000017,2,None,1.6288911999999982,None,,,,,,,,,,,,,,,,,,,,9378,1,2025-05-19_13h59.52.039,sm,2024.2.4,59.916979033820574,2025-05-19 14h02.47.158289 +0200,
61,0,61,,,,,,space,4.1070431000007375,None,None,None,None,,,0,0,0,0,,,,,0,0,0,0,,,,,61,0,61,0,499.5036336000003,,,,,,,,,,,,,,,,,,,,,,,,,,,,,,,,,,,,,,,,,,,,,,,,,,,,,,Rot,2.1949,499.4891441999998,499.48970240000017,499.4898131,499.5036336000003,501.7031536000004,501.6878733000003,501.69090959999994,501.7031536000004,501.7031536000004,501.7031536000004,501.7031536000004,503.7032478000001,503.7032478000001,503.7032478000001,503.7032478000001,503.68796420000035,None,None,,,,,,,,,,,,,,,,,,,,,,9378,1,2025-05-19_13h59.52.039,sm,2024.2.4,59.916979033820574,2025-05-19 14h02.47.158289 +0200,
62,0,62,,,,,,space,4.1070431000007375,None,None,2,None,1.1098805000001448,0.4040735999997196,0,0,0,0,,,,,0,0,0,0,,,,,62,0,62,0,503.7032478000001,,,,,,,,,,,,,,,,,,,,,,,,,,,,,,,,,,,,,,,,,,,,,,,,,,,,,,Schwimmen,4.3424,503.68843560000005,503.68895320000047,503.68906440000046,503.7032478000001,508.0530711000001,508.0374818999999,508.0417126000002,508.0530711000001,508.0530711000001,508.0530711000001,508.0530711000001,510.0530331,510.0530331,510.0530331,510.0530331,510.03773920000003,2,None,1.1098805000001448,0.4040735999997196,,,,,,,,,,,,,,,,,,,,9378,1,2025-05-19_13h59.52.039,sm,2024.2.4,59.916979033820574,2025-05-19 14h02.47.158289 +0200,
63,0,63,,,,,,space,4.1070431000007375,None,None,3,None,1.2053199000001769,0.3235417999994752,0,0,0,0,,,,,0,0,0,0,,,,,63,0,63,0,510.0530331,,,,,,,,,,,,,,,,,,,,,,,,,,,,,,,,,,,,,,,,,,,,,,,,,,,,,,Nummer,2.5377,510.0382692000003,510.0387883000003,510.0388988000004,510.0530331,512.6034411,512.5872446000003,512.5909787,512.6034411,512.6034411,512.6034411,512.6034411,514.6029681,514.6029681,514.6029681,514.6029681,514.5870918,3,None,1.2053199000001769,0.3235417999994752,,,,,,,,,,,,,,,,,,,,9378,1,2025-05-19_13h59.52.039,sm,2024.2.4,59.916979033820574,2025-05-19 14h02.47.158289 +0200,
64,0,64,,,,,,space,4.1070431000007375,None,None,None,None,,,0,0,0,0,,,,,0,0,0,0,,,,,64,0,64,0,514.6029681,,,,,,,,,,,,,,,,,,,,,,,,,,,,,,,,,,,,,,,,,,,,,,,,,,,,,,Conditioner,2.9036,514.5875985000002,514.5881148999997,514.5882240999999,514.6029681,517.5192198000004,517.5036669000001,517.5084583999997,517.5192198000004,517.5192198000004,517.5192198000004,517.5192198000004,519.5193154999997,519.5193154999997,519.5193154999997,519.5193154999997,519.5040102000003,None,None,,,,,,,,,,,,,,,,,,,,,,9378,1,2025-05-19_13h59.52.039,sm,2024.2.4,59.916979033820574,2025-05-19 14h02.47.158289 +0200,
65,0,65,,,,,,space,4.1070431000007375,None,None,2,None,1.0441312000002654,0.26591929999995045,0,0,0,0,,,,,0,0,0,0,,,,,65,0,65,0,519.5193154999997,,,,,,,,,,,,,,,,,,,,,,,,,,,,,,,,,,,,,,,,,,,,,,,,,,,,,,Feuer,2.3843,519.5044794000005,519.5051372999997,519.5052514999998,519.5193154999997,521.9186049,521.9031571000005,521.9085881000001,521.9186049,521.9186049,521.9186049,521.9186049,523.9188953000003,523.9188953000003,523.9188953000003,523.9188953000003,523.9031451000001,2,None,1.0441312000002654,0.26591929999995045,,,,,,,,,,,,,,,,,,,,9378,1,2025-05-19_13h59.52.039,sm,2024.2.4,59.916979033820574,2025-05-19 14h02.47.158289 +0200,
66,0,66,,,,,,space,4.1070431000007375,None,None,3,None,1.7341750999994474,None,0,0,0,0,,,,,0,0,0,0,,,,,66,0,66,0,523.9188953000003,,,,,,,,,,,,,,,,,,,,,,,,,,,,,,,,,,,,,,,,,,,,,,,,,,,,,,Schreibtisch,3.8592,523.9036524000003,523.9041647000004,523.9042731,523.9188953000003,527.7853562,527.7698520000004,527.7745070000001,527.7853562,527.7853562,527.7853562,527.7853562,529.7852745,529.7852745,529.7852745,529.7852745,529.7700260000001,3,None,1.7341750999994474,None,,,,,,,,,,,,,,,,,,,,9378,1,2025-05-19_13h59.52.039,sm,2024.2.4,59.916979033820574,2025-05-19 14h02.47.158289 +0200,
67,0,67,,,,,,space,4.1070431000007375,None,None,2,None,1.5115238999997018,0.4045188000000053,0,0,0,0,,,,,0,0,0,0,,,,,67,0,67,0,529.7852745,,,,,,,,,,,,,,,,,,,,,,,,,,,,,,,,,,,,,,,,,,,,,,,,,,,,,,Essen,2.1186,529.7705249,529.7712186999997,529.7713279,529.7852745,531.9182424999999,531.9027796999999,531.9065920000003,531.9182424999999,531.9182424999999,531.9182424999999,531.9182424999999,533.9188203000003,533.9188203000003,533.9188203000003,533.9188203000003,533.9032016000001,2,None,1.5115238999997018,0.4045188000000053,,,,,,,,,,,,,,,,,,,,9378,1,2025-05-19_13h59.52.039,sm,2024.2.4,59.916979033820574,2025-05-19 14h02.47.158289 +0200,
68,0,68,,,,,,space,4.1070431000007375,None,None,2,None,1.0842518999997992,0.2975916999994297,0,0,0,0,,,,,0,0,0,0,,,,,68,0,68,0,533.9188203000003,,,,,,,,,,,,,,,,,,,,,,,,,,,,,,,,,,,,,,,,,,,,,,,,,,,,,,Schnecke,2.1961,533.9037064000004,533.9042969000002,533.9044101,533.9188203000003,536.1180928000003,536.1031879000002,536.1067525999997,536.1180928000003,536.1180928000003,536.1180928000003,536.1180928000003,538.1180967,538.1180967,538.1180967,538.1180967,538.1023801000001,2,None,1.0842518999997992,0.2975916999994297,,,,,,,,,,,,,,,,,,,,9378,1,2025-05-19_13h59.52.039,sm,2024.2.4,59.916979033820574,2025-05-19 14h02.47.158289 +0200,
69,0,69,,,,,,space,4.1070431000007375,None,None,3,None,1.1206019999999626,0.38519169999926817,0,0,0,0,,,,,0,0,0,0,,,,,69,0,69,0,538.1180967,,,,,,,,,,,,,,,,,,,,,,,,,,,,,,,,,,,,,,,,,,,,,,,,,,,,,,Postkarte,2.4916,538.1028850000002,538.1035343000003,538.1036423000005,538.1180967,540.6178712000001,540.6019133,540.6056329000003,540.6178712000001,540.6178712000001,540.6178712000001,540.6178712000001,542.6180549000001,542.6180549000001,542.6180549000001,542.6180549000001,542.6022779000004,3,None,1.1206019999999626,0.38519169999926817,,,,,,,,,,,,,,,,,,,,9378,1,2025-05-19_13h59.52.039,sm,2024.2.4,59.916979033820574,2025-05-19 14h02.47.158289 +0200,
70,0,70,,,,,,space,4.1070431000007375,None,None,2,None,1.6394681000001583,0.22223719999965397,0,0,0,0,,,,,0,0,0,0,,,,,70,0,70,0,542.6180549000001,,,,,,,,,,,,,,,,,,,,,,,,,,,,,,,,,,,,,,,,,,,,,,,,,,,,,,Präsident,2.7992,542.6027888999997,542.6033133999999,542.6034237000003,542.6180549000001,545.4177701999997,545.4022143000002,545.4065385000004,545.4177701999997,545.4177701999997,545.4177701999997,545.4177701999997,547.4176462000005,547.4176462000005,547.4176462000005,547.4176462000005,547.4020553,2,None,1.6394681000001583,0.22223719999965397,,,,,,,,,,,,,,,,,,,,9378,1,2025-05-19_13h59.52.039,sm,2024.2.4,59.916979033820574,2025-05-19 14h02.47.158289 +0200,
71,0,71,,,,,,space,4.1070431000007375,None,None,2,None,1.591497899999922,0.2035141999995176,0,0,0,0,,,,,0,0,0,0,,,,,71,0,71,0,547.4176462000005,,,,,,,,,,,,,,,,,,,,,,,,,,,,,,,,,,,,,,,,,,,,,,,,,,,,,,Schwung,3.4445,547.4025616999998,547.4030762000002,547.4031839999998,547.4176462000005,550.8669757999996,550.8515196999997,550.8551133000001,550.8669757999996,550.8669757999996,550.8669757999996,550.8669757999996,552.8669195000002,552.8669195000002,552.8669195000002,552.8669195000002,552.8514661999998,2,None,1.591497899999922,0.2035141999995176,,,,,,,,,,,,,,,,,,,,9378,1,2025-05-19_13h59.52.039,sm,2024.2.4,59.916979033820574,2025-05-19 14h02.47.158289 +0200,
72,0,72,,,,,,space,4.1070431000007375,None,None,2,None,1.1226967000002332,0.334842899999785,0,0,0,0,,,,,0,0,0,0,,,,,72,0,72,0,552.8669195000002,,,,,,,,,,,,,,,,,,,,,,,,,,,,,,,,,,,,,,,,,,,,,,,,,,,,,,Luft,2.4137,552.8518863999998,552.8524090000001,552.8525034000004,552.8669195000002,555.2836259000005,555.2680848,555.2724748999999,555.2836259000005,555.2836259000005,555.2836259000005,555.2836259000005,557.2837182000003,557.2837182000003,557.2837182000003,557.2837182000003,557.2682682000004,2,None,1.1226967000002332,0.334842899999785,,,,,,,,,,,,,,,,,,,,9378,1,2025-05-19_13h59.52.039,sm,2024.2.4,59.916979033820574,2025-05-19 14h02.47.158289 +0200,
73,0,73,,,,,,space,4.1070431000007375,None,None,2,None,1.0002397999996901,0.2707260999995924,0,0,0,0,,,,,0,0,0,0,,,,,73,0,73,0,557.2837182000003,,,,,,,,,,,,,,,,,,,,,,,,,,,,,,,,,,,,,,,,,,,,,,,,,,,,,,Augen,3.6723,557.2687803999997,557.2693302999996,557.2694374000002,557.2837182000003,560.9667132000004,560.9510861999997,560.9553267000001,560.9667132000004,560.9667132000004,560.9667132000004,560.9667132000004,562.9669429000005,562.9669429000005,562.9669429000005,562.9669429000005,562.9511027999997,2,None,1.0002397999996901,0.2707260999995924,,,,,,,,,,,,,,,,,,,,9378,1,2025-05-19_13h59.52.039,sm,2024.2.4,59.916979033820574,2025-05-19 14h02.47.158289 +0200,
74,0,74,,,,,,space,4.1070431000007375,None,None,3,None,0.9287008000001151,0.28899189999992814,0,0,0,0,,,,,0,0,0,0,,,,,74,0,74,0,562.9669429000005,,,,,,,,,,,,,,,,,,,,,,,,,,,,,,,,,,,,,,,,,,,,,,,,,,,,,,Wanne,4.3942,562.9516199,562.9521439999999,562.9522515999997,562.9669429000005,567.3660501000004,567.3506066999998,567.3541094000002,567.3660501000004,567.3660501000004,567.3660501000004,567.3660501000004,569.3661965000001,569.3661965000001,569.3661965000001,569.3661965000001,569.3508440000005,3,None,0.9287008000001151,0.28899189999992814,,,,,,,,,,,,,,,,,,,,9378,1,2025-05-19_13h59.52.039,sm,2024.2.4,59.916979033820574,2025-05-19 14h02.47.158289 +0200,
75,0,75,,,,,,space,4.1070431000007375,None,None,3,None,1.9611437999992631,None,0,0,0,0,,,,,0,0,0,0,,,,,75,0,75,0,569.3661965000001,,,,,,,,,,,,,,,,,,,,,,,,,,,,,,,,,,,,,,,,,,,,,,,,,,,,,,Krieg,2.1831,569.3513463999998,569.3518719000003,569.3519809,569.3661965000001,571.5501045999999,571.5337175000004,571.5372230000003,571.5501045999999,571.5501045999999,571.5501045999999,571.5501045999999,573.5493357000005,573.5493357000005,573.5493357000005,573.5493357000005,573.5337740000004,3,None,1.9611437999992631,None,,,,,,,,,,,,,,,,,,,,9378,1,2025-05-19_13h59.52.039,sm,2024.2.4,59.916979033820574,2025-05-19 14h02.47.158289 +0200,
76,0,76,,,,,,space,4.1070431000007375,None,None,3,None,1.3567978000000949,0.28460199999972247,0,0,0,0,,,,,0,0,0,0,,,,,76,0,76,0,573.5493357000005,,,,,,,,,,,,,,,,,,,,,,,,,,,,,,,,,,,,,,,,,,,,,,,,,,,,,,Wüste,3.1264,573.5342829000001,573.5348715,573.5349828999997,573.5493357000005,576.6824833000001,576.6667843000005,576.6710163999996,576.6824833000001,576.6824833000001,576.6824833000001,576.6824833000001,578.6826266999997,578.6826266999997,578.6826266999997,578.6826266999997,578.6668012999999,3,None,1.3567978000000949,0.28460199999972247,,,,,,,,,,,,,,,,,,,,9378,1,2025-05-19_13h59.52.039,sm,2024.2.4,59.916979033820574,2025-05-19 14h02.47.158289 +0200,
77,0,77,,,,,,space,4.1070431000007375,None,None,2,None,1.7875813000000562,None,0,0,0,0,,,,,0,0,0,0,,,,,77,0,77,0,578.6826266999997,,,,,,,,,,,,,,,,,,,,,,,,,,,,,,,,,,,,,,,,,,,,,,,,,,,,,,Garten,2.8516,578.6672657999998,578.6677423000001,578.6678399000002,578.6826266999997,581.5496826999997,581.5330627000003,581.5373185999997,581.5496826999997,581.5496826999997,581.5496826999997,581.5496826999997,583.5488133999997,583.5488133999997,583.5488133999997,583.5488133999997,583.5333724000002,2,None,1.7875813000000562,None,,,,,,,,,,,,,,,,,,,,9378,1,2025-05-19_13h59.52.039,sm,2024.2.4,59.916979033820574,2025-05-19 14h02.47.158289 +0200,
78,0,78,,,,,,space,4.1070431000007375,None,None,3,None,1.880494400000316,None,0,0,0,0,,,,,0,0,0,0,,,,,78,0,78,0,583.5488133999997,,,,,,,,,,,,,,,,,,,,,,,,,,,,,,,,,,,,,,,,,,,,,,,,,,,,,,Rolle,3.189,583.5338879999999,583.5344447999996,583.5345565999996,583.5488133999997,586.7482663000001,586.7326909000003,586.7361600000004,586.7482663000001,586.7482663000001,586.7482663000001,586.7482663000001,588.7485113000002,588.7485113000002,588.7485113000002,588.7485113000002,588.7329743,3,None,1.880494400000316,None,,,,,,,,,,,,,,,,,,,,9378,1,2025-05-19_13h59.52.039,sm,2024.2.4,59.916979033820574,2025-05-19 14h02.47.158289 +0200,
79,0,79,,,,,,space,4.1070431000007375,None,None,2,None,1.0907274999999572,0.30013899999994464,0,0,0,0,,,,,0,0,0,0,,,,,79,0,79,0,588.7485113000002,,,,,,,,,,,,,,,,,,,,,,,,,,,,,,,,,,,,,,,,,,,,,,,,,,,,,,Tischler,2.8901,588.7334799,588.7341687999997,588.7342792999998,588.7485113000002,591.6482106000003,591.6325509999997,591.6376049999999,591.6482106000003,591.6482106000003,591.6482106000003,591.6482106000003,593.6611147000003,593.6611147000003,593.6611147000003,593.6611147000003,593.6325958999996,2,None,1.0907274999999572,0.30013899999994464,,,,,,,,,,,,,,,,,,,,9378,1,2025-05-19_13h59.52.039,sm,2024.2.4,59.916979033820574,2025-05-19 14h02.47.158289 +0200,
0,0,0,,,,,2.4916,space,2.9410846000000674,None,None,3,None,1.9100338000007469,None,0,0,0,0,,,,,1,0,1,0,0,79,79,43,0,0,0,0,644.5618424000004,,,,,,,,,,,,,,,,,,,,,,,,,,,,,,,,,616.2267523999999,616.2270017000001,616.2332512000003,616.2368979000003,616.2368979000003,619.1818788,space,2.9410846000000674,None,619.1820312,619.1966951000004,619.1966951000004,632.5309005999998,None,632.5387862999996,632.5461746999999,632.5462606666663,633.7558707999997,642.5454042666663,643.5560004999998,644.5453052000003,Universität,2.4916,644.5465084999996,644.5473358999998,644.5474394000003,644.5618424000004,647.061479,647.0461696000002,647.0536662000004,647.061479,647.061479,647.061479,647.061479,649.0616548999997,649.0616548999997,649.0616548999997,649.0616548999997,649.0463858000003,3,None,1.9100338000007469,None,605.6476080000002,605.6476803000005,None,605.6478262,605.6640544000002,605.6640544000002,616.1803970000001,2,10.511622999999418,None,,,,,,,,,,9378,1,2025-05-19_13h59.52.039,sm,2024.2.4,59.916979033820574,2025-05-19 14h02.47.158289 +0200,
1,0,1,,,,,,space,2.9410846000000674,None,None,2,None,1.1754434999993464,0.2863446000001204,0,0,0,0,,,,,1,0,1,0,,,,,1,0,1,0,649.0616548999997,,,,,,,,,,,,,,,,,,,,,,,,,,,,,,,,,,,,,,,,,,,,,,,,,,,,,,Kunst,4.3942,649.0468959999998,649.0474531,649.0475618999999,649.0616548999997,653.4610857999996,653.4455274000002,653.4489279,653.4610857999996,653.4610857999996,653.4610857999996,653.4610857999996,655.4612205000003,655.4612205000003,655.4612205000003,655.4612205000003,655.4456043,2,None,1.1754434999993464,0.2863446000001204,,,,,,,,,,,,,,,,,,,,9378,1,2025-05-19_13h59.52.039,sm,2024.2.4,59.916979033820574,2025-05-19 14h02.47.158289 +0200,
2,0,2,,,,,,space,2.9410846000000674,None,None,3,None,1.47891940000045,0.343679699999484,0,0,0,0,,,,,1,0,1,0,,,,,2,0,2,0,655.4612205000003,,,,,,,,,,,,,,,,,,,,,,,,,,,,,,,,,,,,,,,,,,,,,,,,,,,,,,Zeitung,2.5519,655.4461129000001,655.4466296,655.4467388000003,655.4612205000003,658.0276721999999,658.0119212999998,658.0161816,658.0276721999999,658.0276721999999,658.0276721999999,658.0276721999999,660.0276493000001,660.0276493000001,660.0276493000001,660.0276493000001,660.0122905999997,3,None,1.47891940000045,0.343679699999484,,,,,,,,,,,,,,,,,,,,9378,1,2025-05-19_13h59.52.039,sm,2024.2.4,59.916979033820574,2025-05-19 14h02.47.158289 +0200,
3,0,3,,,,,,space,2.9410846000000674,None,None,None,None,,,0,0,0,0,,,,,1,0,1,0,,,,,3,0,3,0,660.0276493000001,,,,,,,,,,,,,,,,,,,,,,,,,,,,,,,,,,,,,,,,,,,,,,,,,,,,,,Komödie,2.7378,660.0127917,660.0134424999997,660.0135520000003,660.0276493000001,662.7775465000004,662.7618467000002,662.7656502,662.7775465000004,662.7775465000004,662.7775465000004,662.7775465000004,664.7774279000005,664.7774279000005,664.7774279000005,664.7774279000005,664.7619088000001,None,None,,,,,,,,,,,,,,,,,,,,,,9378,1,2025-05-19_13h59.52.039,sm,2024.2.4,59.916979033820574,2025-05-19 14h02.47.158289 +0200,
4,0,4,,,,,,space,2.9410846000000674,None,None,3,None,1.323649199999636,0.48344340000039665,0,0,0,0,,,,,1,0,1,0,,,,,4,0,4,0,664.7774279000005,,,,,,,,,,,,,,,,,,,,,,,,,,,,,,,,,,,,,,,,,,,,,,,,,,,,,,Schleim,4.5524,664.7623741999996,664.7629047,664.7630146000001,664.7774279000005,669.3271657000005,669.3136790999997,669.3176979,669.3271657000005,669.3271657000005,669.3271657000005,669.3271657000005,671.3270333,671.3270333,671.3270333,671.3270333,671.3113315999999,3,None,1.323649199999636,0.48344340000039665,,,,,,,,,,,,,,,,,,,,9378,1,2025-05-19_13h59.52.039,sm,2024.2.4,59.916979033820574,2025-05-19 14h02.47.158289 +0200,
5,0,5,,,,,,space,2.9410846000000674,None,None,3,None,1.258415199999945,0.3247373999993215,0,0,0,0,,,,,1,0,1,0,,,,,5,0,5,0,671.3270333,,,,,,,,,,,,,,,,,,,,,,,,,,,,,,,,,,,,,,,,,,,,,,,,,,,,,,Bürste,2.4167,671.3118377000001,671.3124926,671.3126036000003,671.3270333,673.7435569999998,673.7280418999999,673.7321573999998,673.7435569999998,673.7435569999998,673.7435569999998,673.7435569999998,675.7434979999998,675.7434979999998,675.7434979999998,675.7434979999998,675.7278493000003,3,None,1.258415199999945,0.3247373999993215,,,,,,,,,,,,,,,,,,,,9378,1,2025-05-19_13h59.52.039,sm,2024.2.4,59.916979033820574,2025-05-19 14h02.47.158289 +0200,
6,0,6,,,,,,space,2.9410846000000674,None,None,2,None,1.0574777000001632,0.3590578999992431,0,0,0,0,,,,,1,0,1,0,,,,,6,0,6,0,675.7434979999998,,,,,,,,,,,,,,,,,,,,,,,,,,,,,,,,,,,,,,,,,,,,,,,,,,,,,,Ziege,2.1697,675.7284000999998,675.7289191,675.7290284000001,675.7434979999998,677.9265297000002,677.9106156999997,677.9139289000004,677.9265297000002,677.9265297000002,677.9265297000002,677.9265297000002,679.9263475999996,679.9263475999996,679.9263475999996,679.9263475999996,679.9113980000002,2,None,1.0574777000001632,0.3590578999992431,,,,,,,,,,,,,,,,,,,,9378,1,2025-05-19_13h59.52.039,sm,2024.2.4,59.916979033820574,2025-05-19 14h02.47.158289 +0200,
7,0,7,,,,,,space,2.9410846000000674,None,None,2,None,1.6427085999994233,None,0,0,0,0,,,,,1,0,1,0,,,,,7,0,7,0,679.9263475999996,,,,,,,,,,,,,,,,,,,,,,,,,,,,,,,,,,,,,,,,,,,,,,,,,,,,,,Ostern,4.5959,679.9118988999999,679.9126568000001,679.9127675,679.9263475999996,684.5259360999999,684.5109079000003,684.5173992,684.5259360999999,684.5259360999999,684.5259360999999,684.5259360999999,686.5261577000001,686.5261577000001,686.5261577000001,686.5261577000001,686.5109052999996,2,None,1.6427085999994233,None,,,,,,,,,,,,,,,,,,,,9378,1,2025-05-19_13h59.52.039,sm,2024.2.4,59.916979033820574,2025-05-19 14h02.47.158289 +0200,
8,0,8,,,,,,space,2.9410846000000674,None,None,3,None,1.795379299999695,None,0,0,0,0,,,,,1,0,1,0,,,,,8,0,8,0,686.5261577000001,,,,,,,,,,,,,,,,,,,,,,,,,,,,,,,,,,,,,,,,,,,,,,,,,,,,,,Nebel,2.5169,686.5114087000002,686.5119364000002,686.5120448999996,686.5261577000001,689.0427946999998,689.0271604999998,689.0319995,689.0427946999998,689.0427946999998,689.0427946999998,689.0427946999998,691.0425963999996,691.0425963999996,691.0425963999996,691.0425963999996,691.0274829,3,None,1.795379299999695,None,,,,,,,,,,,,,,,,,,,,9378,1,2025-05-19_13h59.52.039,sm,2024.2.4,59.916979033820574,2025-05-19 14h02.47.158289 +0200,
9,0,9,,,,,,space,2.9410846000000674,None,None,3,None,1.4046843999994962,0.4591383000006317,0,0,0,0,,,,,1,0,1,0,,,,,9,0,9,0,691.0425963999996,,,,,,,,,,,,,,,,,,,,,,,,,,,,,,,,,,,,,,,,,,,,,,,,,,,,,,Dusche,2.5377,691.0280333000001,691.0285928000003,691.0287059000002,691.0425963999996,693.5923405000003,693.5766291,693.5804724,693.5923405000003,693.5923405000003,693.5923405000003,693.5923405000003,695.5924929000003,695.5924929000003,695.5924929000003,695.5924929000003,695.5765331000002,3,None,1.4046843999994962,0.4591383000006317,,,,,,,,,,,,,,,,,,,,9378,1,2025-05-19_13h59.52.039,sm,2024.2.4,59.916979033820574,2025-05-19 14h02.47.158289 +0200,
10,0,10,,,,,,space,2.9410846000000674,None,None,2,None,1.3029077999999572,0.229304399999819,0,0,0,0,,,,,1,0,1,0,,,,,10,0,10,0,695.5924929000003,,,,,,,,,,,,,,,,,,,,,,,,,,,,,,,,,,,,,,,,,,,,,,,,,,,,,,Harmonie,3.6297,695.5770093000001,695.5775064,695.5776074000005,695.5924929000003,699.2253146000003,699.2095576000002,699.2132369000001,699.2253146000003,699.2253146000003,699.2253146000003,699.2253146000003,701.2253570000003,701.2253570000003,701.2253570000003,701.2253570000003,701.2098408000002,2,None,1.3029077999999572,0.229304399999819,,,,,,,,,,,,,,,,,,,,9378,1,2025-05-19_13h59.52.039,sm,2024.2.4,59.916979033820574,2025-05-19 14h02.47.158289 +0200,
11,0,11,,,,,,space,2.9410846000000674,None,None,3,None,1.1843464999992648,0.32639800000015384,0,0,0,0,,,,,1,0,1,0,,,,,11,0,11,0,701.2253570000003,,,,,,,,,,,,,,,,,,,,,,,,,,,,,,,,,,,,,,,,,,,,,,,,,,,,,,Kante,3.189,701.2103459999998,701.2110232000005,701.2111332000004,701.2253570000003,704.4250313000002,704.4091768999997,704.4125933000005,704.4250313000002,704.4250313000002,704.4250313000002,704.4250313000002,706.4249187000005,706.4249187000005,706.4249187000005,706.4249187000005,706.4094016999998,3,None,1.1843464999992648,0.32639800000015384,,,,,,,,,,,,,,,,,,,,9378,1,2025-05-19_13h59.52.039,sm,2024.2.4,59.916979033820574,2025-05-19 14h02.47.158289 +0200,
12,0,12,,,,,,space,2.9410846000000674,None,None,3,None,0.8251096999993024,0.17652560000078665,0,0,0,0,,,,,1,0,1,0,,,,,12,0,12,0,706.4249187000005,,,,,,,,,,,,,,,,,,,,,,,,,,,,,,,,,,,,,,,,,,,,,,,,,,,,,,Benzin,2.1186,706.4099094000003,706.4104119000003,706.4105206000004,706.4249187000005,708.5580493999996,708.5425941000003,708.5462709000003,708.5580493999996,708.5580493999996,708.5580493999996,708.5580493999996,710.5580906000005,710.5580906000005,710.5580906000005,710.5580906000005,710.5422771000003,3,None,0.8251096999993024,0.17652560000078665,,,,,,,,,,,,,,,,,,,,9378,1,2025-05-19_13h59.52.039,sm,2024.2.4,59.916979033820574,2025-05-19 14h02.47.158289 +0200,
13,0,13,,,,,,space,2.9410846000000674,None,None,3,None,0.9320706999997128,0.2885761999996248,0,0,0,0,,,,,1,0,1,0,,,,,13,0,13,0,710.5580906000005,,,,,,,,,,,,,,,,,,,,,,,,,,,,,,,,,,,,,,,,,,,,,,,,,,,,,,Keller,3.6615,710.5427834000002,710.5432987000004,710.5434092000005,710.5580906000005,714.2253385000004,714.2086888000003,714.2124085000005,714.2253385000004,714.2253385000004,714.2253385000004,714.2253385000004,716.2244894000005,716.2244894000005,716.2244894000005,716.2244894000005,716.2086658999997,3,None,0.9320706999997128,0.2885761999996248,,,,,,,,,,,,,,,,,,,,9378,1,2025-05-19_13h59.52.039,sm,2024.2.4,59.916979033820574,2025-05-19 14h02.47.158289 +0200,
14,0,14,,,,,,space,2.9410846000000674,None,None,3,None,1.2049182000000656,0.23518029999922874,0,0,0,0,,,,,1,0,1,0,,,,,14,0,14,0,716.2244894000005,,,,,,,,,,,,,,,,,,,,,,,,,,,,,,,,,,,,,,,,,,,,,,,,,,,,,,Trauben,3.6005,716.2091718000001,716.2097055000004,716.2098140999997,716.2244894000005,719.8241562000003,719.8085446000005,719.8127541000003,719.8241562000003,719.8241562000003,719.8241562000003,719.8241562000003,721.8241722000002,721.8241722000002,721.8241722000002,721.8241722000002,721.8082952000004,3,None,1.2049182000000656,0.23518029999922874,,,,,,,,,,,,,,,,,,,,9378,1,2025-05-19_13h59.52.039,sm,2024.2.4,59.916979033820574,2025-05-19 14h02.47.158289 +0200,
15,0,15,,,,,,space,2.9410846000000674,None,None,2,None,0.8379528999994363,0.29220600000007835,0,0,0,0,,,,,1,0,1,0,,,,,15,0,15,0,721.8241722000002,,,,,,,,,,,,,,,,,,,,,,,,,,,,,,,,,,,,,,,,,,,,,,,,,,,,,,Elephant,3.8592,721.8087439000001,721.8092454999996,721.8093423,721.8241722000002,725.6910310000003,725.6748592000004,725.6792305999998,725.6910310000003,725.6910310000003,725.6910310000003,725.6910310000003,727.6903773000004,727.6903773000004,727.6903773000004,727.6903773000004,727.6749714999996,2,None,0.8379528999994363,0.29220600000007835,,,,,,,,,,,,,,,,,,,,9378,1,2025-05-19_13h59.52.039,sm,2024.2.4,59.916979033820574,2025-05-19 14h02.47.158289 +0200,
16,0,16,,,,,,space,2.9410846000000674,None,None,3,None,1.5287940999996863,None,0,0,0,0,,,,,1,0,1,0,,,,,16,0,16,0,727.6903773000004,,,,,,,,,,,,,,,,,,,,,,,,,,,,,,,,,,,,,,,,,,,,,,,,,,,,,,Bus,2.4521,727.6754522000001,727.6759551000005,727.6760567000001,727.6903773000004,730.1570246000001,730.1410831000003,730.1439575000004,730.1570246000001,730.1570246000001,730.1570246000001,730.1570246000001,732.1567845,732.1567845,732.1567845,732.1567845,732.1411914999999,3,None,1.5287940999996863,None,,,,,,,,,,,,,,,,,,,,9378,1,2025-05-19_13h59.52.039,sm,2024.2.4,59.916979033820574,2025-05-19 14h02.47.158289 +0200,
17,0,17,,,,,,space,2.9410846000000674,None,None,2,None,0.9669375000003129,0.3091768000003867,0,0,0,0,,,,,1,0,1,0,,,,,17,0,17,0,732.1567845,,,,,,,,,,,,,,,,,,,,,,,,,,,,,,,,,,,,,,,,,,,,,,,,,,,,,,Gras,4.7208,732.1416928999997,732.1422559000002,732.1423621000004,732.1567845,736.889768,736.8740666000003,736.8773882000005,736.889768,736.889768,736.889768,736.889768,738.8898830999997,738.8898830999997,738.8898830999997,738.8898830999997,738.8742926000004,2,None,0.9669375000003129,0.3091768000003867,,,,,,,,,,,,,,,,,,,,9378,1,2025-05-19_13h59.52.039,sm,2024.2.4,59.916979033820574,2025-05-19 14h02.47.158289 +0200,
18,0,18,,,,,,space,2.9410846000000674,None,None,3,None,1.8820029999997132,None,0,0,0,0,,,,,1,0,1,0,,,,,18,0,18,0,738.8898830999997,,,,,,,,,,,,,,,,,,,,,,,,,,,,,,,,,,,,,,,,,,,,,,,,,,,,,,Vulkan,2.3843,738.8747996000002,738.8754516999998,738.8755592999996,738.8898830999997,741.2896504,741.2739290999998,741.2778170000001,741.2896504,741.2896504,741.2896504,741.2896504,743.2896825999997,743.2896825999997,743.2896825999997,743.2896825999997,743.2740788000001,3,None,1.8820029999997132,None,,,,,,,,,,,,,,,,,,,,9378,1,2025-05-19_13h59.52.039,sm,2024.2.4,59.916979033820574,2025-05-19 14h02.47.158289 +0200,
19,0,19,,,,,,space,2.9410846000000674,None,None,2,None,0.7261349999998856,0.2582929999998669,0,0,0,0,,,,,1,0,1,0,,,,,19,0,19,0,743.2896825999997,,,,,,,,,,,,,,,,,,,,,,,,,,,,,,,,,,,,,,,,,,,,,,,,,,,,,,Vogel,3.2825,743.2745803999996,743.2752649000004,743.2753709999997,743.2896825999997,746.5725336000005,746.5574874000004,746.5615846000001,746.5725336000005,746.5725336000005,746.5725336000005,746.5725336000005,748.5730110000004,748.5730110000004,748.5730110000004,748.5730110000004,748.5571234999998,2,None,0.7261349999998856,0.2582929999998669,,,,,,,,,,,,,,,,,,,,9378,1,2025-05-19_13h59.52.039,sm,2024.2.4,59.916979033820574,2025-05-19 14h02.47.158289 +0200,
20,0,20,,,,,,space,2.9410846000000674,None,None,3,None,1.7194804000000659,None,0,0,0,0,,,,,1,0,1,0,,,,,20,0,20,0,748.5730110000004,,,,,,,,,,,,,,,,,,,,,,,,,,,,,,,,,,,,,,,,,,,,,,,,,,,,,,Kerze,3.4445,748.5576269000003,748.5581899999997,748.5583004999999,748.5730110000004,752.0222360999996,752.0066582999998,752.0107827000002,752.0222360999996,752.0222360999996,752.0222360999996,752.0222360999996,754.0223972000003,754.0223972000003,754.0223972000003,754.0223972000003,754.0065727000001,3,None,1.7194804000000659,None,,,,,,,,,,,,,,,,,,,,9378,1,2025-05-19_13h59.52.039,sm,2024.2.4,59.916979033820574,2025-05-19 14h02.47.158289 +0200,
21,0,21,,,,,,space,2.9410846000000674,None,None,3,None,1.6012462999997297,0.3093084000001909,0,0,0,0,,,,,1,0,1,0,,,,,21,0,21,0,754.0223972000003,,,,,,,,,,,,,,,,,,,,,,,,,,,,,,,,,,,,,,,,,,,,,,,,,,,,,,Poesie,2.1743,754.0070210000003,754.0076071000003,754.0077029000004,754.0223972000003,756.2051947,756.1898259999998,756.1938354000004,756.2051947,756.2051947,756.2051947,756.2051947,758.2053083000001,758.2053083000001,758.2053083000001,758.2053083000001,758.1897177999999,3,None,1.6012462999997297,0.3093084000001909,,,,,,,,,,,,,,,,,,,,9378,1,2025-05-19_13h59.52.039,sm,2024.2.4,59.916979033820574,2025-05-19 14h02.47.158289 +0200,
22,0,22,,,,,,space,2.9410846000000674,None,None,2,None,1.4794075999998313,0.28760549999969953,0,0,0,0,,,,,1,0,1,0,,,,,22,0,22,0,758.2053083000001,,,,,,,,,,,,,,,,,,,,,,,,,,,,,,,,,,,,,,,,,,,,,,,,,,,,,,Gast,2.021,758.1902342000003,758.1908914000005,758.1910003000003,758.2053083000001,760.2387896,760.2227487999999,760.2265915999997,760.2387896,760.2387896,760.2387896,760.2387896,762.2383864000003,762.2383864000003,762.2383864000003,762.2383864000003,762.2229791,2,None,1.4794075999998313,0.28760549999969953,,,,,,,,,,,,,,,,,,,,9378,1,2025-05-19_13h59.52.039,sm,2024.2.4,59.916979033820574,2025-05-19 14h02.47.158289 +0200,
23,0,23,,,,,,space,2.9410846000000674,None,None,3,None,1.1177354999999807,0.37198219999936555,0,0,0,0,,,,,1,0,1,0,,,,,23,0,23,0,762.2383864000003,,,,,,,,,,,,,,,,,,,,,,,,,,,,,,,,,,,,,,,,,,,,,,,,,,,,,,Gold,2.3362,762.2234868000005,762.2240051999997,762.2241130000002,762.2383864000003,764.5882414999996,764.5729228999999,764.5766997999999,764.5882414999996,764.5882414999996,764.5882414999996,764.5882414999996,766.5883016999996,766.5883016999996,766.5883016999996,766.5883016999996,766.5729161999998,3,None,1.1177354999999807,0.37198219999936555,,,,,,,,,,,,,,,,,,,,9378,1,2025-05-19_13h59.52.039,sm,2024.2.4,59.916979033820574,2025-05-19 14h02.47.158289 +0200,
24,0,24,,,,,,space,2.9410846000000674,None,None,None,None,,,0,0,0,0,,,,,1,0,1,0,,,,,24,0,24,0,766.5883016999996,,,,,,,,,,,,,,,,,,,,,,,,,,,,,,,,,,,,,,,,,,,,,,,,,,,,,,Seife,2.9832,766.5734172000002,766.5740796999999,766.5741893000004,766.5883016999996,769.5710546,769.5557294,769.5593408000004,769.5710546,769.5710546,769.5710546,769.5710546,771.5711768000001,771.5711768000001,771.5711768000001,771.5711768000001,771.5556533999998,None,None,,,,,,,,,,,,,,,,,,,,,,9378,1,2025-05-19_13h59.52.039,sm,2024.2.4,59.916979033820574,2025-05-19 14h02.47.158289 +0200,
25,0,25,,,,,,space,2.9410846000000674,None,None,3,None,1.0060397999995985,0.3415043000004516,0,0,0,0,,,,,1,0,1,0,,,,,25,0,25,0,771.5711768000001,,,,,,,,,,,,,,,,,,,,,,,,,,,,,,,,,,,,,,,,,,,,,,,,,,,,,,Dorn,3.6438,771.5561313999997,771.5566484000001,771.5567560999998,771.5711768000001,775.2211397000001,775.2052734999997,775.2088307000004,775.2211397000001,775.2211397000001,775.2211397000001,775.2211397000001,777.2209075000001,777.2209075000001,777.2209075000001,777.2209075000001,777.2053513999999,3,None,1.0060397999995985,0.3415043000004516,,,,,,,,,,,,,,,,,,,,9378,1,2025-05-19_13h59.52.039,sm,2024.2.4,59.916979033820574,2025-05-19 14h02.47.158289 +0200,
26,0,26,,,,,,space,2.9410846000000674,None,None,2,None,1.7623005999994348,None,0,0,0,0,,,,,1,0,1,0,,,,,26,0,26,0,777.2209075000001,,,,,,,,,,,,,,,,,,,,,,,,,,,,,,,,,,,,,,,,,,,,,,,,,,,,,,Service,2.6097,777.2058575000001,777.2065419,777.2066519999998,777.2209075000001,779.8373309999997,779.8214606000001,779.8247999000005,779.8373309999997,779.8373309999997,779.8373309999997,779.8373309999997,781.8372614999998,781.8372614999998,781.8372614999998,781.8372614999998,781.8220613000003,2,None,1.7623005999994348,None,,,,,,,,,,,,,,,,,,,,9378,1,2025-05-19_13h59.52.039,sm,2024.2.4,59.916979033820574,2025-05-19 14h02.47.158289 +0200,
27,0,27,,,,,,space,2.9410846000000674,None,None,2,None,0.7519769000000451,0.22084389999963605,0,0,0,0,,,,,1,0,1,0,,,,,27,0,27,0,781.8372614999998,,,,,,,,,,,,,,,,,,,,,,,,,,,,,,,,,,,,,,,,,,,,,,,,,,,,,,Gesellschaft,2.1831,781.8225868999998,781.8231759999999,781.8232900000003,781.8372614999998,784.0204307000004,784.0047431000003,784.0089483000002,784.0204307000004,784.0204307000004,784.0204307000004,784.0204307000004,786.0205693999997,786.0205693999997,786.0205693999997,786.0205693999997,786.0045941999997,2,None,0.7519769000000451,0.22084389999963605,,,,,,,,,,,,,,,,,,,,9378,1,2025-05-19_13h59.52.039,sm,2024.2.4,59.916979033820574,2025-05-19 14h02.47.158289 +0200,
28,0,28,,,,,,space,2.9410846000000674,None,None,3,None,1.7263562999996793,None,0,0,0,0,,,,,1,0,1,0,,,,,28,0,28,0,786.0205693999997,,,,,,,,,,,,,,,,,,,,,,,,,,,,,,,,,,,,,,,,,,,,,,,,,,,,,,Puppe,2.0589,786.0050944000004,786.0057577999996,786.0058664999997,786.0205693999997,788.0867927999998,788.0711923999997,788.0746076000005,788.0867927999998,788.0867927999998,788.0867927999998,788.0867927999998,790.0867318,790.0867318,790.0867318,790.0867318,790.0712421999997,3,None,1.7263562999996793,None,,,,,,,,,,,,,,,,,,,,9378,1,2025-05-19_13h59.52.039,sm,2024.2.4,59.916979033820574,2025-05-19 14h02.47.158289 +0200,
29,0,29,,,,,,space,2.9410846000000674,None,None,3,None,0.9617167000005793,0.34471039999971254,0,0,0,0,,,,,1,0,1,0,,,,,29,0,29,0,790.0867318,,,,,,,,,,,,,,,,,,,,,,,,,,,,,,,,,,,,,,,,,,,,,,,,,,,,,,Kissen,5.3463,790.0717190000005,790.0723323000002,790.0724442000001,790.0867318,795.4363848000003,795.4208312000001,795.4256974999998,795.4363848000003,795.4363848000003,795.4363848000003,795.4363848000003,797.4365054,797.4365054,797.4365054,797.4365054,797.4207299,3,None,0.9617167000005793,0.34471039999971254,,,,,,,,,,,,,,,,,,,,9378,1,2025-05-19_13h59.52.039,sm,2024.2.4,59.916979033820574,2025-05-19 14h02.47.158289 +0200,
30,0,30,,,,,,space,2.9410846000000674,None,None,3,None,1.7831187000001592,None,0,0,0,0,,,,,1,0,1,0,,,,,30,0,30,0,797.4365054,,,,,,,,,,,,,,,,,,,,,,,,,,,,,,,,,,,,,,,,,,,,,,,,,,,,,,Sterne,2.2385,797.4212364000005,797.4218802000005,797.4219868,797.4365054,799.6860186000004,799.6705551000005,799.6743898000004,799.6860186000004,799.6860186000004,799.6860186000004,799.6860186000004,801.6862861999998,801.6862861999998,801.6862861999998,801.6862861999998,801.6708871999999,3,None,1.7831187000001592,None,,,,,,,,,,,,,,,,,,,,9378,1,2025-05-19_13h59.52.039,sm,2024.2.4,59.916979033820574,2025-05-19 14h02.47.158289 +0200,
31,0,31,,,,,,space,2.9410846000000674,None,None,2,None,1.9113409000001411,None,0,0,0,0,,,,,1,0,1,0,,,,,31,0,31,0,801.6862861999998,,,,,,,,,,,,,,,,,,,,,,,,,,,,,,,,,,,,,,,,,,,,,,,,,,,,,,Blatt,2.8901,801.6713946999998,801.6721063000005,801.6722246999998,801.6862861999998,804.5857746000001,804.5702087999998,804.5736618000001,804.5857746000001,804.5857746000001,804.5857746000001,804.5857746000001,806.5857464000001,806.5857464000001,806.5857464000001,806.5857464000001,806.5703919999996,2,None,1.9113409000001411,None,,,,,,,,,,,,,,,,,,,,9378,1,2025-05-19_13h59.52.039,sm,2024.2.4,59.916979033820574,2025-05-19 14h02.47.158289 +0200,
32,0,32,,,,,,space,2.9410846000000674,None,None,3,None,1.3504038000000946,0.3429986999999528,0,0,0,0,,,,,1,0,1,0,,,,,32,0,32,0,806.5857464000001,,,,,,,,,,,,,,,,,,,,,,,,,,,,,,,,,,,,,,,,,,,,,,,,,,,,,,Erbe,2.8863,806.5708703999999,806.5714645999997,806.5715759000004,806.5857464000001,809.485345,809.4698672000004,809.4733185000005,809.485345,809.485345,809.485345,809.485345,811.4855064000003,811.4855064000003,811.4855064000003,811.4855064000003,811.4700069999999,3,None,1.3504038000000946,0.3429986999999528,,,,,,,,,,,,,,,,,,,,9378,1,2025-05-19_13h59.52.039,sm,2024.2.4,59.916979033820574,2025-05-19 14h02.47.158289 +0200,
33,0,33,,,,,,space,2.9410846000000674,None,None,3,None,1.3940793000001577,0.30517409999993106,0,0,0,0,,,,,1,0,1,0,,,,,33,0,33,0,811.4855064000003,,,,,,,,,,,,,,,,,,,,,,,,,,,,,,,,,,,,,,,,,,,,,,,,,,,,,,Kälte,2.7357,811.4705193,811.4710335999998,811.4711421000002,811.4855064000003,814.2355742,814.2199050999998,814.2238434000001,814.2355742,814.2355742,814.2355742,814.2355742,816.2354267000001,816.2354267000001,816.2354267000001,816.2354267000001,816.2198496999999,3,None,1.3940793000001577,0.30517409999993106,,,,,,,,,,,,,,,,,,,,9378,1,2025-05-19_13h59.52.039,sm,2024.2.4,59.916979033820574,2025-05-19 14h02.47.158289 +0200,
34,0,34,,,,,,space,2.9410846000000674,None,None,3,None,0.9090734000001248,0.3135997999997926,0,0,0,0,,,,,1,0,1,0,,,,,34,0,34,0,816.2354267000001,,,,,,,,,,,,,,,,,,,,,,,,,,,,,,,,,,,,,,,,,,,,,,,,,,,,,,Geschäft,2.3419,816.2203213000003,816.2208732999998,816.2209765999996,816.2354267000001,818.5850412,818.5699961999999,818.5737982999999,818.5850412,818.5850412,818.5850412,818.5850412,820.5849461999996,820.5849461999996,820.5849461999996,820.5849461999996,820.5693927000002,3,None,0.9090734000001248,0.3135997999997926,,,,,,,,,,,,,,,,,,,,9378,1,2025-05-19_13h59.52.039,sm,2024.2.4,59.916979033820574,2025-05-19 14h02.47.158289 +0200,
35,0,35,,,,,,space,2.9410846000000674,None,None,3,None,1.1624037000001408,0.3610508999990998,0,0,0,0,,,,,1,0,1,0,,,,,35,0,35,0,820.5849461999996,,,,,,,,,,,,,,,,,,,,,,,,,,,,,,,,,,,,,,,,,,,,,,,,,,,,,,Gabel,2.9036,820.5698820999996,820.5704611000001,820.5705714000005,820.5849461999996,823.5014313000001,823.4857010000005,823.4894704999997,823.5014313000001,823.5014313000001,823.5014313000001,823.5014313000001,825.5014624000005,825.5014624000005,825.5014624000005,825.5014624000005,825.4857234000001,3,None,1.1624037000001408,0.3610508999990998,,,,,,,,,,,,,,,,,,,,9378,1,2025-05-19_13h59.52.039,sm,2024.2.4,59.916979033820574,2025-05-19 14h02.47.158289 +0200,
36,0,36,,,,,,space,2.9410846000000674,None,None,2,None,1.9596325000002253,None,0,0,0,0,,,,,1,0,1,0,,,,,36,0,36,0,825.5014624000005,,,,,,,,,,,,,,,,,,,,,,,,,,,,,,,,,,,,,,,,,,,,,,,,,,,,,,Schmerz,2.7584,825.4862377,825.4868997000003,825.4870125999996,825.5014624000005,828.2682371999999,828.2520241000002,828.2578699000005,828.2682371999999,828.2682371999999,828.2682371999999,828.2682371999999,830.2680436,830.2680436,830.2680436,830.2680436,830.2526128,2,None,1.9596325000002253,None,,,,,,,,,,,,,,,,,,,,9378,1,2025-05-19_13h59.52.039,sm,2024.2.4,59.916979033820574,2025-05-19 14h02.47.158289 +0200,
37,0,37,,,,,,space,2.9410846000000674,None,None,3,None,1.3810383999998521,0.40191610000056244,0,0,0,0,,,,,1,0,1,0,,,,,37,0,37,0,830.2680436,,,,,,,,,,,,,,,,,,,,,,,,,,,,,,,,,,,,,,,,,,,,,,,,,,,,,,Ordner,3.9589,830.2531052000004,830.2536699000002,830.2537902000004,830.2680436,834.2341980000001,834.2183971000004,834.22253,834.2341980000001,834.2341980000001,834.2341980000001,834.2341980000001,836.2341317999999,836.2341317999999,836.2341317999999,836.2341317999999,836.2186721999997,3,None,1.3810383999998521,0.40191610000056244,,,,,,,,,,,,,,,,,,,,9378,1,2025-05-19_13h59.52.039,sm,2024.2.4,59.916979033820574,2025-05-19 14h02.47.158289 +0200,
38,0,38,,,,,,space,2.9410846000000674,None,None,2,None,1.4894848999992973,0.3540693000004467,0,0,0,0,,,,,1,0,1,0,,,,,38,0,38,0,836.2341317999999,,,,,,,,,,,,,,,,,,,,,,,,,,,,,,,,,,,,,,,,,,,,,,,,,,,,,,Känguru,2.3229,836.2191805000002,836.2196955999998,836.2198036,836.2341317999999,838.5671809000005,838.5516403000001,838.5555014000001,838.5671809000005,838.5671809000005,838.5671809000005,838.5671809000005,840.5672196000005,840.5672196000005,840.5672196000005,840.5672196000005,840.5516994999998,2,None,1.4894848999992973,0.3540693000004467,,,,,,,,,,,,,,,,,,,,9378,1,2025-05-19_13h59.52.039,sm,2024.2.4,59.916979033820574,2025-05-19 14h02.47.158289 +0200,
39,0,39,,,,,,space,2.9410846000000674,None,None,2,None,1.5336691000002247,0.3011975999997958,0,0,0,0,,,,,1,0,1,0,,,,,39,0,39,0,840.5672196000005,,,,,,,,,,,,,,,,,,,,,,,,,,,,,,,,,,,,,,,,,,,,,,,,,,,,,,Konzert,5.1698,840.5522054000003,840.5527263000004,840.5528395000001,840.5672196000005,845.75025,845.7345453999997,845.7388990999998,845.75025,845.75025,845.75025,845.75025,847.7502290000002,847.7502290000002,847.7502290000002,847.7502290000002,847.7343509000002,2,None,1.5336691000002247,0.3011975999997958,,,,,,,,,,,,,,,,,,,,9378,1,2025-05-19_13h59.52.039,sm,2024.2.4,59.916979033820574,2025-05-19 14h02.47.158289 +0200,
40,0,40,,,,,,space,2.9410846000000674,None,None,2,None,1.4001021000003675,0.31960499999968306,0,0,0,0,,,,,1,0,1,0,,,,,40,0,40,0,847.7502290000002,,,,,,,,,,,,,,,,,,,,,,,,,,,,,,,,,,,,,,,,,,,,,,,,,,,,,,Team,2.9109,847.7347969000002,847.7354143000002,847.7355101000003,847.7502290000002,850.6663521,850.6506642000004,850.6540350000005,850.6663521,850.6663521,850.6663521,850.6663521,852.6664737000001,852.6664737000001,852.6664737000001,852.6664737000001,852.6508856,2,None,1.4001021000003675,0.31960499999968306,,,,,,,,,,,,,,,,,,,,9378,1,2025-05-19_13h59.52.039,sm,2024.2.4,59.916979033820574,2025-05-19 14h02.47.158289 +0200,
41,0,41,,,,,,space,2.9410846000000674,None,None,None,None,,,0,0,0,0,,,,,1,0,1,0,,,,,41,0,41,0,852.6664737000001,,,,,,,,,,,,,,,,,,,,,,,,,,,,,,,,,,,,,,,,,,,,,,,,,,,,,,Sturm,4.4429,852.6513722999998,852.6518789000002,852.6519909999997,852.6664737000001,857.1161694000002,857.1011613000001,857.1044893999997,857.1161694000002,857.1161694000002,857.1161694000002,857.1161694000002,859.1160735000003,859.1160735000003,859.1160735000003,859.1160735000003,859.1004676000002,None,None,,,,,,,,,,,,,,,,,,,,,,9378,1,2025-05-19_13h59.52.039,sm,2024.2.4,59.916979033820574,2025-05-19 14h02.47.158289 +0200,
42,0,42,,,,,,space,2.9410846000000674,None,None,3,None,1.4352146000001085,None,0,0,0,0,,,,,1,0,1,0,,,,,42,0,42,0,859.1160735000003,,,,,,,,,,,,,,,,,,,,,,,,,,,,,,,,,,,,,,,,,,,,,,,,,,,,,,Fahrrad,3.2059,859.1009380000005,859.1014397999998,859.1015564999998,859.1160735000003,862.3325815999997,862.3169602999997,862.3215700000001,862.3325815999997,862.3325815999997,862.3325815999997,862.3325815999997,864.3325740999999,864.3325740999999,864.3325740999999,864.3325740999999,864.3172630999998,3,None,1.4352146000001085,None,,,,,,,,,,,,,,,,,,,,9378,1,2025-05-19_13h59.52.039,sm,2024.2.4,59.916979033820574,2025-05-19 14h02.47.158289 +0200,
43,0,43,,,,,,space,2.9410846000000674,None,None,None,None,,,0,0,0,0,,,,,1,0,1,0,,,,,43,0,43,0,864.3325740999999,,,,,,,,,,,,,,,,,,,,,,,,,,,,,,,,,,,,,,,,,,,,,,,,,,,,,,Zeit,5.3655,864.3177953000004,864.3184947999998,864.3186695000004,864.3325740999999,869.6987932000002,869.6831119999997,869.6865137000004,869.6987932000002,869.6987932000002,869.6987932000002,869.6987932000002,871.6987036999999,871.6987036999999,871.6987036999999,871.6987036999999,871.6831260999998,None,None,,,,,,,,,,,,,,,,,,,,,,9378,1,2025-05-19_13h59.52.039,sm,2024.2.4,59.916979033820574,2025-05-19 14h02.47.158289 +0200,
44,0,44,,,,,,space,2.9410846000000674,None,None,3,None,1.1967618999997285,0.24189910000040982,0,0,0,0,,,,,1,0,1,0,,,,,44,0,44,0,871.6987036999999,,,,,,,,,,,,,,,,,,,,,,,,,,,,,,,,,,,,,,,,,,,,,,,,,,,,,,Wahrheit,2.3599,871.6835956000004,871.6841802999998,871.6842932999998,871.6987036999999,874.0650563999998,874.0497397999998,874.0539316000004,874.0650563999998,874.0650563999998,874.0650563999998,874.0650563999998,876.0652762,876.0652762,876.0652762,876.0652762,876.0499568000005,3,None,1.1967618999997285,0.24189910000040982,,,,,,,,,,,,,,,,,,,,9378,1,2025-05-19_13h59.52.039,sm,2024.2.4,59.916979033820574,2025-05-19 14h02.47.158289 +0200,
45,0,45,,,,,,space,2.9410846000000674,None,None,3,None,0.8311862000000474,0.26194590000068274,0,0,0,0,,,,,1,0,1,0,,,,,45,0,45,0,876.0652762,,,,,,,,,,,,,,,,,,,,,,,,,,,,,,,,,,,,,,,,,,,,,,,,,,,,,,Wind,3.1264,876.0504560999998,876.0512342000002,876.0513477000004,876.0652762,879.1984216000001,879.1822680000005,879.1851475000003,879.1984216000001,879.1984216000001,879.1984216000001,879.1984216000001,881.1982391000001,881.1982391000001,881.1982391000001,881.1982391000001,881.1827856,3,None,0.8311862000000474,0.26194590000068274,,,,,,,,,,,,,,,,,,,,9378,1,2025-05-19_13h59.52.039,sm,2024.2.4,59.916979033820574,2025-05-19 14h02.47.158289 +0200,
46,0,46,,,,,,space,2.9410846000000674,None,None,2,None,1.4136679000002914,0.22633089999999356,0,0,0,0,,,,,1,0,1,0,,,,,46,0,46,0,881.1982391000001,,,,,,,,,,,,,,,,,,,,,,,,,,,,,,,,,,,,,,,,,,,,,,,,,,,,,,Vampir,2.3006,881.1832900999998,881.1839412999998,881.1840517,881.1982391000001,883.4981500000004,883.4821915000002,883.4855336,883.4981500000004,883.4981500000004,883.4981500000004,883.4981500000004,885.4980177999996,885.4980177999996,885.4980177999996,885.4980177999996,885.4822237999997,2,None,1.4136679000002914,0.22633089999999356,,,,,,,,,,,,,,,,,,,,9378,1,2025-05-19_13h59.52.039,sm,2024.2.4,59.916979033820574,2025-05-19 14h02.47.158289 +0200,
47,0,47,,,,,,space,2.9410846000000674,None,None,3,None,1.5974353000001429,0.29853629999979603,0,0,0,0,,,,,1,0,1,0,,,,,47,0,47,0,885.4980177999996,,,,,,,,,,,,,,,,,,,,,,,,,,,,,,,,,,,,,,,,,,,,,,,,,,,,,,Waschbecken,4.3424,885.4827298999999,885.4833076000004,885.4834151000005,885.4980177999996,889.8477233000003,889.8320368000004,889.8364004000005,889.8477233000003,889.8477233000003,889.8477233000003,889.8477233000003,891.8478909000005,891.8478909000005,891.8478909000005,891.8478909000005,891.8320807,3,None,1.5974353000001429,0.29853629999979603,,,,,,,,,,,,,,,,,,,,9378,1,2025-05-19_13h59.52.039,sm,2024.2.4,59.916979033820574,2025-05-19 14h02.47.158289 +0200,
48,0,48,,,,,,space,2.9410846000000674,None,None,2,None,1.3629155999997238,0.2749094000000696,0,0,0,0,,,,,1,0,1,0,,,,,48,0,48,0,891.8478909000005,,,,,,,,,,,,,,,,,,,,,,,,,,,,,,,,,,,,,,,,,,,,,,,,,,,,,,Geschwister,4.3756,891.8325860000004,891.8331030999998,891.8332121000003,891.8478909000005,896.2306961000004,896.2151733000001,896.2194509000001,896.2306961000004,896.2306961000004,896.2306961000004,896.2306961000004,898.2306213000002,898.2306213000002,898.2306213000002,898.2306213000002,898.2154349000002,2,None,1.3629155999997238,0.2749094000000696,,,,,,,,,,,,,,,,,,,,9378,1,2025-05-19_13h59.52.039,sm,2024.2.4,59.916979033820574,2025-05-19 14h02.47.158289 +0200,
49,0,49,,,,,,space,2.9410846000000674,None,None,3,None,0.9964131000006091,0.27486580000004324,0,0,0,0,,,,,1,0,1,0,,,,,49,0,49,0,898.2306213000002,,,,,,,,,,,,,,,,,,,,,,,,,,,,,,,,,,,,,,,,,,,,,,,,,,,,,,Nachricht,3.6564,898.2159438999997,898.2165272000002,898.2166389000004,898.2306213000002,901.8974475000005,901.8811065,901.8856918000001,901.8974475000005,901.8974475000005,901.8974475000005,901.8974475000005,903.8969902999997,903.8969902999997,903.8969902999997,903.8969902999997,903.881284,3,None,0.9964131000006091,0.27486580000004324,,,,,,,,,,,,,,,,,,,,9378,1,2025-05-19_13h59.52.039,sm,2024.2.4,59.916979033820574,2025-05-19 14h02.47.158289 +0200,
50,0,50,,,,,,space,2.9410846000000674,None,None,2,None,1.2193983000006483,0.2613479000001462,0,0,0,0,,,,,1,0,1,0,,,,,50,0,50,0,903.8969902999997,,,,,,,,,,,,,,,,,,,,,,,,,,,,,,,,,,,,,,,,,,,,,,,,,,,,,,Kiefer,2.3916,903.8817924000004,903.8823041000005,903.8824174000001,903.8969902999997,906.2967042,906.2810436,906.2851326999998,906.2967042,906.2967042,906.2967042,906.2967042,908.2966567000003,908.2966567000003,908.2966567000003,908.2966567000003,908.2814035000001,2,None,1.2193983000006483,0.2613479000001462,,,,,,,,,,,,,,,,,,,,9378,1,2025-05-19_13h59.52.039,sm,2024.2.4,59.916979033820574,2025-05-19 14h02.47.158289 +0200,
51,0,51,,,,,,space,2.9410846000000674,None,None,2,None,0.8273527000001195,0.2799862000001667,0,0,0,0,,,,,1,0,1,0,,,,,51,0,51,0,908.2966567000003,,,,,,,,,,,,,,,,,,,,,,,,,,,,,,,,,,,,,,,,,,,,,,,,,,,,,,Knie,2.0052,908.2819093999997,908.2824228999998,908.2825363000002,908.2966567000003,910.3130867,910.2976583,910.3012670999997,910.3130867,910.3130867,910.3130867,910.3130867,912.3132741,912.3132741,912.3132741,912.3132741,912.2973629999997,2,None,0.8273527000001195,0.2799862000001667,,,,,,,,,,,,,,,,,,,,9378,1,2025-05-19_13h59.52.039,sm,2024.2.4,59.916979033820574,2025-05-19 14h02.47.158289 +0200,
52,0,52,,,,,,space,2.9410846000000674,None,None,2,None,1.0572286000005988,0.33158449999973527,0,0,0,0,,,,,1,0,1,0,,,,,52,0,52,0,912.3132741,,,,,,,,,,,,,,,,,,,,,,,,,,,,,,,,,,,,,,,,,,,,,,,,,,,,,,Mund,2.6446,912.2978733,912.2983906999998,912.2985034000003,912.3132741,914.9626513000003,914.9471857999997,914.9509960000005,914.9626513000003,914.9626513000003,914.9626513000003,914.9626513000003,916.9627836999998,916.9627836999998,916.9627836999998,916.9627836999998,916.9470315999997,2,None,1.0572286000005988,0.33158449999973527,,,,,,,,,,,,,,,,,,,,9378,1,2025-05-19_13h59.52.039,sm,2024.2.4,59.916979033820574,2025-05-19 14h02.47.158289 +0200,
53,0,53,,,,,,space,2.9410846000000674,None,None,3,None,1.1705947000000378,0.38398270000016055,0,0,0,0,,,,,1,0,1,0,,,,,53,0,53,0,916.9627836999998,,,,,,,,,,,,,,,,,,,,,,,,,,,,,,,,,,,,,,,,,,,,,,,,,,,,,,Lernen,2.3861,916.9474851000004,916.9479563000004,916.9480706000004,916.9627836999998,919.3625457999997,919.3469247000003,919.3503363999998,919.3625457999997,919.3625457999997,919.3625457999997,919.3625457999997,921.3625712000003,921.3625712000003,921.3625712000003,921.3625712000003,921.3473730000005,3,None,1.1705947000000378,0.38398270000016055,,,,,,,,,,,,,,,,,,,,9378,1,2025-05-19_13h59.52.039,sm,2024.2.4,59.916979033820574,2025-05-19 14h02.47.158289 +0200,
54,0,54,,,,,,space,2.9410846000000674,None,None,3,None,1.2114059999994424,0.365017799999805,0,0,0,0,,,,,1,0,1,0,,,,,54,0,54,0,921.3625712000003,,,,,,,,,,,,,,,,,,,,,,,,,,,,,,,,,,,,,,,,,,,,,,,,,,,,,,Chips,2.5982,921.3478612999997,921.3483750000005,921.3484903999997,921.3625712000003,923.9625114,923.9465726999997,923.9504428999999,923.9625114,923.9625114,923.9625114,923.9625114,925.9623199999996,925.9623199999996,925.9623199999996,925.9623199999996,925.9468084,3,None,1.2114059999994424,0.365017799999805,,,,,,,,,,,,,,,,,,,,9378,1,2025-05-19_13h59.52.039,sm,2024.2.4,59.916979033820574,2025-05-19 14h02.47.158289 +0200,
55,0,55,,,,,,space,2.9410846000000674,None,None,3,None,1.9027900999999474,None,0,0,0,0,,,,,1,0,1,0,,,,,55,0,55,0,925.9623199999996,,,,,,,,,,,,,,,,,,,,,,,,,,,,,,,,,,,,,,,,,,,,,,,,,,,,,,Ehe,2.0842,925.9473178999997,925.9478386999999,925.9479475999997,925.9623199999996,928.0451629999998,928.0297324000003,928.0327041,928.0451629999998,928.0451629999998,928.0451629999998,928.0451629999998,930.0453276999997,930.0453276999997,930.0453276999997,930.0453276999997,930.0295716,3,None,1.9027900999999474,None,,,,,,,,,,,,,,,,,,,,9378,1,2025-05-19_13h59.52.039,sm,2024.2.4,59.916979033820574,2025-05-19 14h02.47.158289 +0200,
56,0,56,,,,,,space,2.9410846000000674,None,None,3,None,1.2302357999997184,0.2928529000000708,0,0,0,0,,,,,1,0,1,0,,,,,56,0,56,0,930.0453276999997,,,,,,,,,,,,,,,,,,,,,,,,,,,,,,,,,,,,,,,,,,,,,,,,,,,,,,Sitzgurt,2.4137,930.0300741000001,930.0308432000002,930.0309540999997,930.0453276999997,932.4615589000005,932.4462278000001,932.4507167000002,932.4615589000005,932.4615589000005,932.4615589000005,932.4615589000005,934.4617146,934.4617146,934.4617146,934.4617146,934.4462574999998,3,None,1.2302357999997184,0.2928529000000708,,,,,,,,,,,,,,,,,,,,9378,1,2025-05-19_13h59.52.039,sm,2024.2.4,59.916979033820574,2025-05-19 14h02.47.158289 +0200,
57,0,57,,,,,,space,2.9410846000000674,None,None,3,None,0.9064785000000484,0.32719059999999445,0,0,0,0,,,,,1,0,1,0,,,,,57,0,57,0,934.4617146,,,,,,,,,,,,,,,,,,,,,,,,,,,,,,,,,,,,,,,,,,,,,,,,,,,,,,Gewürz,2.2639,934.4467612999997,934.4472899000002,934.4473982999998,934.4617146,936.7283485999997,936.7128911999998,936.7165832000001,936.7283485999997,936.7283485999997,936.7283485999997,936.7283485999997,938.7281315999999,938.7281315999999,938.7281315999999,938.7281315999999,938.7127387999999,3,None,0.9064785000000484,0.32719059999999445,,,,,,,,,,,,,,,,,,,,9378,1,2025-05-19_13h59.52.039,sm,2024.2.4,59.916979033820574,2025-05-19 14h02.47.158289 +0200,
58,0,58,,,,,,space,2.9410846000000674,None,None,3,None,1.3561597000007168,0.3131703999997626,0,0,0,0,,,,,1,0,1,0,,,,,58,0,58,0,938.7281315999999,,,,,,,,,,,,,,,,,,,,,,,,,,,,,,,,,,,,,,,,,,,,,,,,,,,,,,Gemüse,2.1413,938.7132462999998,938.7137726999999,938.7138803999997,938.7281315999999,940.8780673000001,940.8623791,940.8665471000004,940.8780673000001,940.8780673000001,940.8780673000001,940.8780673000001,942.8780139,942.8780139,942.8780139,942.8780139,942.8627974000001,3,None,1.3561597000007168,0.3131703999997626,,,,,,,,,,,,,,,,,,,,9378,1,2025-05-19_13h59.52.039,sm,2024.2.4,59.916979033820574,2025-05-19 14h02.47.158289 +0200,
59,0,59,,,,,,space,2.9410846000000674,None,None,2,None,1.5288864000003741,0.4265613999996276,0,0,0,0,,,,,1,0,1,0,,,,,59,0,59,0,942.8780139,,,,,,,,,,,,,,,,,,,,,,,,,,,,,,,,,,,,,,,,,,,,,,,,,,,,,,Olympia,2.0031,942.8633067999999,942.8638195000003,942.8639272999999,942.8780139,944.9111410000005,944.8793945999996,944.8863976000002,944.9111410000005,944.9111410000005,944.9111410000005,944.9111410000005,,,,,946.8946428999998,2,None,1.5288864000003741,0.4265613999996276,,,,,,,,,,,,,,,,,,,,9378,1,2025-05-19_13h59.52.039,sm,2024.2.4,59.916979033820574,2025-05-19 14h02.47.158289 +0200,
60,0,60,,,,,,space,2.9410846000000674,None,None,3,None,1.7432071000002907,None,0,0,0,0,,,,,1,0,1,0,,,,,60,0,60,0,946.9107639000003,,,,,,,,,,,,,,,,,,,,,,,,,,,,,,,,,,,,,,,,,,,,,,,,,,,,,,Platz,2.0934,946.8951176999999,946.8957576000003,946.8958672999997,946.9107639000003,949.0107881000004,948.9952221000003,948.9993574,949.0107881000004,949.0107881000004,949.0107881000004,949.0107881000004,951.0107975000001,951.0107975000001,951.0107975000001,951.0107975000001,950.9955253999997,3,None,1.7432071000002907,None,,,,,,,,,,,,,,,,,,,,9378,1,2025-05-19_13h59.52.039,sm,2024.2.4,59.916979033820574,2025-05-19 14h02.47.158289 +0200,
61,0,61,,,,,,space,2.9410846000000674,None,None,3,None,1.6874018999997134,None,0,0,0,0,,,,,1,0,1,0,,,,,61,0,61,0,951.0107975000001,,,,,,,,,,,,,,,,,,,,,,,,,,,,,,,,,,,,,,,,,,,,,,,,,,,,,,Schwarz,2.2074,950.9960349000003,950.9965933000003,950.9967007000005,951.0107975000001,953.2274905000004,953.2121238999998,953.2162463000004,953.2274905000004,953.2274905000004,953.2274905000004,953.2274905000004,955.2273072999997,955.2273072999997,955.2273072999997,955.2273072999997,955.2124482999998,3,None,1.6874018999997134,None,,,,,,,,,,,,,,,,,,,,9378,1,2025-05-19_13h59.52.039,sm,2024.2.4,59.916979033820574,2025-05-19 14h02.47.158289 +0200,
62,0,62,,,,,,space,2.9410846000000674,None,None,None,None,,,0,0,0,0,,,,,1,0,1,0,,,,,62,0,62,0,955.2273072999997,,,,,,,,,,,,,,,,,,,,,,,,,,,,,,,,,,,,,,,,,,,,,,,,,,,,,,Statue,3.6723,955.2129628000002,955.2137161999999,955.2138512000001,955.2273072999997,958.9102583000004,958.8946156000002,958.8992427000003,958.9102583000004,958.9102583000004,958.9102583000004,958.9102583000004,960.9102743000003,960.9102743000003,960.9102743000003,960.9102743000003,960.8949964000003,None,None,,,,,,,,,,,,,,,,,,,,,,9378,1,2025-05-19_13h59.52.039,sm,2024.2.4,59.916979033820574,2025-05-19 14h02.47.158289 +0200,
63,0,63,,,,,,space,2.9410846000000674,None,None,3,None,1.7284135999998398,None,0,0,0,0,,,,,1,0,1,0,,,,,63,0,63,0,960.9102743000003,,,,,,,,,,,,,,,,,,,,,,,,,,,,,,,,,,,,,,,,,,,,,,,,,,,,,,Foto,3.039,960.8954713000003,960.8960133999999,960.8961245999999,960.9102743000003,963.9599853,963.9440829000005,963.9471179000002,963.9599853,963.9599853,963.9599853,963.9599853,965.9598397999998,965.9598397999998,965.9598397999998,965.9598397999998,965.9446538000002,3,None,1.7284135999998398,None,,,,,,,,,,,,,,,,,,,,9378,1,2025-05-19_13h59.52.039,sm,2024.2.4,59.916979033820574,2025-05-19 14h02.47.158289 +0200,
64,0,64,,,,,,space,2.9410846000000674,None,None,3,None,0.9193758000001253,0.3404632000001584,0,0,0,0,,,,,1,0,1,0,,,,,64,0,64,0,965.9598397999998,,,,,,,,,,,,,,,,,,,,,,,,,,,,,,,,,,,,,,,,,,,,,,,,,,,,,,Kino,4.4767,965.94517,965.9457312000004,965.9458389000001,965.9598397999998,970.4429587000004,970.4271506000005,970.4303013999997,970.4429587000004,970.4429587000004,970.4429587000004,970.4429587000004,972.4427776000002,972.4427776000002,972.4427776000002,972.4427776000002,972.4272757999997,3,None,0.9193758000001253,0.3404632000001584,,,,,,,,,,,,,,,,,,,,9378,1,2025-05-19_13h59.52.039,sm,2024.2.4,59.916979033820574,2025-05-19 14h02.47.158289 +0200,
65,0,65,,,,,,space,2.9410846000000674,None,None,2,None,0.9295777999996062,0.25776390000009997,0,0,0,0,,,,,1,0,1,0,,,,,65,0,65,0,972.4427776000002,,,,,,,,,,,,,,,,,,,,,,,,,,,,,,,,,,,,,,,,,,,,,,,,,,,,,,Handwerker,2.9061,972.4277867999999,972.428484,972.4287362000005,972.4427776000002,975.3592938000002,975.3436578000001,975.3479955000003,975.3592938000002,975.3592938000002,975.3592938000002,975.3592938000002,977.3593453000003,977.3593453000003,977.3593453000003,977.3593453000003,977.3437291,2,None,0.9295777999996062,0.25776390000009997,,,,,,,,,,,,,,,,,,,,9378,1,2025-05-19_13h59.52.039,sm,2024.2.4,59.916979033820574,2025-05-19 14h02.47.158289 +0200,
66,0,66,,,,,,space,2.9410846000000674,None,None,3,None,1.1606049000001804,0.32571179999922606,0,0,0,0,,,,,1,0,1,0,,,,,66,0,66,0,977.3593453000003,,,,,,,,,,,,,,,,,,,,,,,,,,,,,,,,,,,,,,,,,,,,,,,,,,,,,,Blätter,3.0547,977.3442469000001,977.3447652000004,977.3448767,977.3593453000003,980.4256831000002,980.4102229,980.4143794000001,980.4256831000002,980.4256831000002,980.4256831000002,980.4256831000002,982.4257035,982.4257035,982.4257035,982.4257035,982.4104260000004,3,None,1.1606049000001804,0.32571179999922606,,,,,,,,,,,,,,,,,,,,9378,1,2025-05-19_13h59.52.039,sm,2024.2.4,59.916979033820574,2025-05-19 14h02.47.158289 +0200,
67,0,67,,,,,,space,2.9410846000000674,None,None,None,None,,,0,0,0,0,,,,,1,0,1,0,,,,,67,0,67,0,982.4257035,,,,,,,,,,,,,,,,,,,,,,,,,,,,,,,,,,,,,,,,,,,,,,,,,,,,,,Fliegen,2.0946,982.4109307999997,982.4115311000005,982.4116401000001,982.4257035,984.5253794999999,984.5099534000001,984.5136831999998,984.5253794999999,984.5253794999999,984.5253794999999,984.5253794999999,986.5253424000002,986.5253424000002,986.5253424000002,986.5253424000002,986.5096478000005,None,None,,,,,,,,,,,,,,,,,,,,,,9378,1,2025-05-19_13h59.52.039,sm,2024.2.4,59.916979033820574,2025-05-19 14h02.47.158289 +0200,
