thisN,thisTrialN,thisRepN,Cue,Target,Mediator1,Mediator2,iti,scanner_ready_press.keys,scanner_ready_press.rt,scanner_ready_press.duration,skip_trigger.keys,living_nonliving.keys,end_mapping.keys,living_nonliving.rt,living_nonliving.duration,blocks.thisRepN,blocks.thisTrialN,blocks.thisN,blocks.thisIndex,load_and_shuffle.thisRepN,load_and_shuffle.thisTrialN,load_and_shuffle.thisN,load_and_shuffle.thisIndex,runs.thisRepN,runs.thisTrialN,runs.thisN,runs.thisIndex,iti_loading_loop.thisRepN,iti_loading_loop.thisTrialN,iti_loading_loop.thisN,iti_loading_loop.thisIndex,semantic_mapping_run.thisRepN,semantic_mapping_run.thisTrialN,semantic_mapping_run.thisN,semantic_mapping_run.thisIndex,thisRow.t,notes,welcome.started,welcome_text.started,welcome_text.stopped,welcome.stopped,instructions_semantic_mapping1.started,sm_instructions1_text.started,sm_instructions1_key.started,instructions_semantic_mapping1.stopped,sm_instructions1_key.keys,sm_instructions1_key.rt,sm_instructions1_key.duration,instructions_semantic_mapping2.started,sm_instructions2_text.started,sm_instructions2_key.started,instructions_semantic_mapping2.stopped,sm_instructions2_key.keys,sm_instructions2_key.rt,sm_instructions2_key.duration,reset_run.started,reset_run.stopped,shuffle_items.started,shuffle_items.stopped,set_up_runs.started,set_up_runs.stopped,load_iti.started,load_iti.stopped,prep_scanner.started,scanner_ready_press.started,ready_set_text.started,prep_scanner.stopped,runs.scanner_ready_press.keys,runs.scanner_ready_press.rt,runs.scanner_ready_press.duration,wait_for_trigger.started,starting_soon.started,skip_trigger.started,wait_for_trigger.stopped,runs.skip_trigger.keys,blank.started,blank_cross.started,blank.stopped,CurrentItem,CurrentITI,set_up_trial.started,set_up_trial.stopped,sm_iti.started,iti_cross.started,iti_cross.stopped,sm_iti.stopped,item.started,living_nonliving.started,end_mapping.started,living_nonliving_text.started,semantic_map_item.started,living_nonliving.stopped,end_mapping.stopped,living_nonliving_text.stopped,semantic_map_item.stopped,item.stopped,semantic_mapping_run.living_nonliving.keys,semantic_mapping_run.end_mapping.keys,semantic_mapping_run.living_nonliving.rt,semantic_mapping_run.living_nonliving.duration,task_break.started,task_break_text.started,task_break_resp.started,task_break.stopped,runs.task_break_resp.keys,runs.task_break_resp.rt,runs.task_break_resp.duration,blank_cross.stopped,thanks.started,thanks_text.started,thanks_text.stopped,thanks.stopped,PID,Alter,Geschlecht (optional),MRI,date,expName,psychopyVersion,frameRate,expStart,
,,,,,,,,,,,,,,,,,,,,,,,,,,,,,,,,,,,,,,0.003250300000217976,0.010953200000585639,3.0115552000006574,2.995947300001717,,,,,,,,,,,,,,,,,,,,,,,,,,,,,,,,,,,,,,,,,,,,,,,,,,,,,,,,,,,,,,,,,,,,,,,,Guess_5579,25,male,1,2025-05-10_13h11.39.088,sm,2024.2.4,59.899644136060594,2025-05-10 13h12.04.125290 +0200,
,,,,,,,,,,,,,,,,,,,,,,,,,,,,,,,,,,,,,,,,,,2.996042700000544,3.0115552000006574,3.0115552000006574,119.34902200000033,2,116.31261540000014,None,,,,,,,,,,,,,,,,,,,,,,,,,,,,,,,,,,,,,,,,,,,,,,,,,,,,,,,,,,,,,,,,,Guess_5579,25,male,1,2025-05-10_13h11.39.088,sm,2024.2.4,59.899644136060594,2025-05-10 13h12.04.125290 +0200,
,,,,,,,,,,,,,,,,,,,,,,,,,,,,,,,,,,,,,,,,,,,,,,,,,119.34915380000166,119.35858940000071,119.35858940000071,141.13824100000056,2,21.766828399999213,None,,,,,,,,,,,,,,,,,,,,,,,,,,,,,,,,,,,,,,,,,,,,,,,,,,,,,,,,,,Guess_5579,25,male,1,2025-05-10_13h11.39.088,sm,2024.2.4,59.899644136060594,2025-05-10 13h12.04.125290 +0200,
0,0,0,Pumpe,Reifen,Benzin,Wasser,2.3419,space,266.17012200000136,None,None,None,None,,,0,0,0,0,0,79,79,47,0,0,0,0,0,79,79,64,0,0,0,0,428.95341330000156,,,,,,,,,,,,,,,,,,,,141.13916450000033,141.13979420000032,141.23330460000034,141.23363229999995,141.2394312000015,141.23980830000073,141.27267830000164,141.27289090000158,141.27909610000097,141.2839195000015,141.2839195000015,407.45647980000103,space,266.17012200000136,None,407.45665850000114,407.4709419999999,407.4709419999999,416.92201580000074,None,416.9288995000006,416.93804740000087,428.936694,Gelenk,2.3419,428.9382560000013,428.93895410000005,428.94237280000016,428.95341330000156,431.30345600000146,431.28729080000085,431.2936346000006,431.30345600000146,431.30345600000146,431.30345600000146,431.30345600000146,433.3029778,433.3029778,433.3029778,433.3029778,433.28748760000053,None,None,,,,,,,,,,,,,,,Guess_5579,25,male,1,2025-05-10_13h11.39.088,sm,2024.2.4,59.899644136060594,2025-05-10 13h12.04.125290 +0200,
1,0,1,,,,,,space,266.17012200000136,None,None,3,None,1.2010532000003877,0.15897969999969064,0,0,0,0,,,,,0,0,0,0,,,,,1,0,1,0,433.3029778,,,,,,,,,,,,,,,,,,,,,,,,,,,,,,,,,,,,,,,,,,,Eule,2.0031,433.28794990000097,433.288456100001,433.28856970000015,433.3029778,435.3193639000001,435.3037703000009,435.3075815000011,435.3193639000001,435.3193639000001,435.3193639000001,435.3193639000001,437.31975779999993,437.31975779999993,437.31975779999993,437.31975779999993,437.30367410000144,3,None,1.2010532000003877,0.15897969999969064,,,,,,,,,,,,,Guess_5579,25,male,1,2025-05-10_13h11.39.088,sm,2024.2.4,59.899644136060594,2025-05-10 13h12.04.125290 +0200,
2,0,2,,,,,,space,266.17012200000136,None,None,3,None,0.8663527999997314,0.2003396000000066,0,0,0,0,,,,,0,0,0,0,,,,,2,0,2,0,437.31975779999993,,,,,,,,,,,,,,,,,,,,,,,,,,,,,,,,,,,,,,,,,,,Stein,2.1831,437.3041875000017,437.304831200001,437.3049363000009,437.31975779999993,439.50237780000134,439.4869131000014,439.4910465000012,439.50237780000134,439.50237780000134,439.50237780000134,439.50237780000134,441.5024725000003,441.5024725000003,441.5024725000003,441.5024725000003,441.48678930000096,3,None,0.8663527999997314,0.2003396000000066,,,,,,,,,,,,,Guess_5579,25,male,1,2025-05-10_13h11.39.088,sm,2024.2.4,59.899644136060594,2025-05-10 13h12.04.125290 +0200,
3,0,3,,,,,,space,266.17012200000136,None,None,3,None,1.145130099999733,0.19248590000097465,0,0,0,0,,,,,0,0,0,0,,,,,3,0,3,0,441.5024725000003,,,,,,,,,,,,,,,,,,,,,,,,,,,,,,,,,,,,,,,,,,,Bleistift,2.1949,441.4872865000016,441.48779880000075,441.4879055000001,441.5024725000003,443.7028846000012,443.6865439000012,443.69061800000054,443.7028846000012,443.7028846000012,443.7028846000012,443.7028846000012,445.7023252000017,445.7023252000017,445.7023252000017,445.7023252000017,445.68648700000085,3,None,1.145130099999733,0.19248590000097465,,,,,,,,,,,,,Guess_5579,25,male,1,2025-05-10_13h11.39.088,sm,2024.2.4,59.899644136060594,2025-05-10 13h12.04.125290 +0200,
4,0,4,,,,,,space,266.17012200000136,None,None,3,None,1.3635395000001154,0.212360899999112,0,0,0,0,,,,,0,0,0,0,,,,,4,0,4,0,445.7023252000017,,,,,,,,,,,,,,,,,,,,,,,,,,,,,,,,,,,,,,,,,,,Tradition,2.7357,445.6869583000007,445.68760629999997,445.6877058000009,445.7023252000017,448.45255090000137,448.436371400001,448.44043050000073,448.45255090000137,448.45255090000137,448.45255090000137,448.45255090000137,450.4518992000012,450.4518992000012,450.4518992000012,450.4518992000012,450.43638080000164,3,None,1.3635395000001154,0.212360899999112,,,,,,,,,,,,,Guess_5579,25,male,1,2025-05-10_13h11.39.088,sm,2024.2.4,59.899644136060594,2025-05-10 13h12.04.125290 +0200,
5,0,5,,,,,,space,266.17012200000136,None,None,2,None,0.9302186999993864,0.20256530000006023,0,0,0,0,,,,,0,0,0,0,,,,,5,0,5,0,450.4518992000012,,,,,,,,,,,,,,,,,,,,,,,,,,,,,,,,,,,,,,,,,,,Boss,2.3599,450.43688100000145,450.4374050000006,450.4375095000014,450.4518992000012,452.8180828000004,452.8027941,452.8057151000012,452.8180828000004,452.8180828000004,452.8180828000004,452.8180828000004,454.81883259999995,454.81883259999995,454.81883259999995,454.81883259999995,454.8025288000008,2,None,0.9302186999993864,0.20256530000006023,,,,,,,,,,,,,Guess_5579,25,male,1,2025-05-10_13h11.39.088,sm,2024.2.4,59.899644136060594,2025-05-10 13h12.04.125290 +0200,
6,0,6,,,,,,space,266.17012200000136,None,None,2,None,0.8381107000004704,0.19548109999959706,0,0,0,0,,,,,0,0,0,0,,,,,6,0,6,0,454.81883259999995,,,,,,,,,,,,,,,,,,,,,,,,,,,,,,,,,,,,,,,,,,,Schläger,2.3362,454.8029966000013,454.80348610000146,454.80358550000165,454.81883259999995,457.1678118,457.1522885000013,457.1558197000013,457.1678118,457.1678118,457.1678118,457.1678118,459.16785300000083,459.16785300000083,459.16785300000083,459.16785300000083,459.1527051000012,2,None,0.8381107000004704,0.19548109999959706,,,,,,,,,,,,,Guess_5579,25,male,1,2025-05-10_13h11.39.088,sm,2024.2.4,59.899644136060594,2025-05-10 13h12.04.125290 +0200,
7,0,7,,,,,,space,266.17012200000136,None,None,3,None,1.1525677000008727,0.1699004000001878,0,0,0,0,,,,,0,0,0,0,,,,,7,0,7,0,459.16785300000083,,,,,,,,,,,,,,,,,,,,,,,,,,,,,,,,,,,,,,,,,,,Brief,2.9443,459.1532008000013,459.15372879999995,459.1538339000017,459.16785300000083,462.117532100001,462.10198149999997,462.10592330000145,462.117532100001,462.117532100001,462.117532100001,462.117532100001,464.1177125000013,464.1177125000013,464.1177125000013,464.1177125000013,464.1022818000001,3,None,1.1525677000008727,0.1699004000001878,,,,,,,,,,,,,Guess_5579,25,male,1,2025-05-10_13h11.39.088,sm,2024.2.4,59.899644136060594,2025-05-10 13h12.04.125290 +0200,
8,0,8,,,,,,space,266.17012200000136,None,None,3,None,1.543402799999967,0.1814923000001727,0,0,0,0,,,,,0,0,0,0,,,,,8,0,8,0,464.1177125000013,,,,,,,,,,,,,,,,,,,,,,,,,,,,,,,,,,,,,,,,,,,Kapitel,3.6438,464.10278090000065,464.1032937,464.1034025000008,464.1177125000013,467.7672599000016,467.75164310000036,467.75737819999995,467.7672599000016,467.7672599000016,467.7672599000016,467.7672599000016,469.76727350000147,469.76727350000147,469.76727350000147,469.76727350000147,469.7520142000012,3,None,1.543402799999967,0.1814923000001727,,,,,,,,,,,,,Guess_5579,25,male,1,2025-05-10_13h11.39.088,sm,2024.2.4,59.899644136060594,2025-05-10 13h12.04.125290 +0200,
9,0,9,,,,,,space,266.17012200000136,None,None,3,None,1.2066859999995359,0.19451699999990524,0,0,0,0,,,,,0,0,0,0,,,,,9,0,9,0,469.76727350000147,,,,,,,,,,,,,,,,,,,,,,,,,,,,,,,,,,,,,,,,,,,Sterne,2.0842,469.7525216000013,469.75302980000015,469.75314230000004,469.76727350000147,471.8506344000016,471.83495180000136,471.83863100000053,471.8506344000016,471.8506344000016,471.8506344000016,471.8506344000016,473.8506789000003,473.8506789000003,473.8506789000003,473.8506789000003,473.8351520000015,3,None,1.2066859999995359,0.19451699999990524,,,,,,,,,,,,,Guess_5579,25,male,1,2025-05-10_13h11.39.088,sm,2024.2.4,59.899644136060594,2025-05-10 13h12.04.125290 +0200,
10,0,10,,,,,,space,266.17012200000136,None,None,3,None,0.9074393999999302,0.2304037000012613,0,0,0,0,,,,,0,0,0,0,,,,,10,0,10,0,473.8506789000003,,,,,,,,,,,,,,,,,,,,,,,,,,,,,,,,,,,,,,,,,,,Teller,2.8516,473.8356425000002,473.8361700000005,473.8362762000015,473.8506789000003,476.7166356000016,476.70125820000067,476.7051674000013,476.7166356000016,476.7166356000016,476.7166356000016,476.7166356000016,478.7169010000016,478.7169010000016,478.7169010000016,478.7169010000016,478.70136130000174,3,None,0.9074393999999302,0.2304037000012613,,,,,,,,,,,,,Guess_5579,25,male,1,2025-05-10_13h11.39.088,sm,2024.2.4,59.899644136060594,2025-05-10 13h12.04.125290 +0200,
11,0,11,,,,,,space,266.17012200000136,None,None,3,None,1.4898562999987917,0.21157070000117528,0,0,0,0,,,,,0,0,0,0,,,,,11,0,11,0,478.7169010000016,,,,,,,,,,,,,,,,,,,,,,,,,,,,,,,,,,,,,,,,,,,Schnee,5.3655,478.7018603000015,478.70238540000173,478.70249090000107,478.7169010000016,484.0831881000013,484.0675630000005,484.0717491000014,484.0831881000013,484.0831881000013,484.0831881000013,484.0831881000013,486.0831080000007,486.0831080000007,486.0831080000007,486.0831080000007,486.0677875000001,3,None,1.4898562999987917,0.21157070000117528,,,,,,,,,,,,,Guess_5579,25,male,1,2025-05-10_13h11.39.088,sm,2024.2.4,59.899644136060594,2025-05-10 13h12.04.125290 +0200,
12,0,12,,,,,,space,266.17012200000136,None,None,3,None,1.1658435000008467,0.24123340000005555,0,0,0,0,,,,,0,0,0,0,,,,,12,0,12,0,486.0831080000007,,,,,,,,,,,,,,,,,,,,,,,,,,,,,,,,,,,,,,,,,,,Spiele,2.83,486.0682843000013,486.06879819999995,486.0689037000011,486.0831080000007,488.9158881000003,488.90052670000114,488.90406450000046,488.9158881000003,488.9158881000003,488.9158881000003,488.9158881000003,490.91645400000016,490.91645400000016,490.91645400000016,490.91645400000016,490.90055610000127,3,None,1.1658435000008467,0.24123340000005555,,,,,,,,,,,,,Guess_5579,25,male,1,2025-05-10_13h11.39.088,sm,2024.2.4,59.899644136060594,2025-05-10 13h12.04.125290 +0200,
13,0,13,,,,,,space,266.17012200000136,None,None,3,None,1.3224327999996603,0.20285510000030627,0,0,0,0,,,,,0,0,0,0,,,,,13,0,13,0,490.91645400000016,,,,,,,,,,,,,,,,,,,,,,,,,,,,,,,,,,,,,,,,,,,Shampoo,4.0852,490.90105930000027,490.90157440000075,490.90168240000094,490.91645400000016,495.01578080000036,495.0002621000003,495.0048121,495.01578080000036,495.01578080000036,495.01578080000036,495.01578080000036,497.01576449999993,497.01576449999993,497.01576449999993,497.01576449999993,497.00001730000076,3,None,1.3224327999996603,0.20285510000030627,,,,,,,,,,,,,Guess_5579,25,male,1,2025-05-10_13h11.39.088,sm,2024.2.4,59.899644136060594,2025-05-10 13h12.04.125290 +0200,
14,0,14,,,,,,space,266.17012200000136,None,None,3,None,1.2985654000003706,0.21474139999918407,0,0,0,0,,,,,0,0,0,0,,,,,14,0,14,0,497.01576449999993,,,,,,,,,,,,,,,,,,,,,,,,,,,,,,,,,,,,,,,,,,,Kamera,2.8863,497.0004824000007,497.00110889999996,497.0012097000017,497.01576449999993,499.91570150000007,499.89977,499.90326170000117,499.91570150000007,499.91570150000007,499.91570150000007,499.91570150000007,501.9155346000007,501.9155346000007,501.9155346000007,501.9155346000007,501.8999892000011,3,None,1.2985654000003706,0.21474139999918407,,,,,,,,,,,,,Guess_5579,25,male,1,2025-05-10_13h11.39.088,sm,2024.2.4,59.899644136060594,2025-05-10 13h12.04.125290 +0200,
15,0,15,,,,,,space,266.17012200000136,None,None,2,None,1.2452661999996053,0.20505550000052608,0,0,0,0,,,,,0,0,0,0,,,,,15,0,15,0,501.9155346000007,,,,,,,,,,,,,,,,,,,,,,,,,,,,,,,,,,,,,,,,,,,Party,2.1413,501.9004825000011,501.90112780000163,501.9012348000015,501.9155346000007,504.06530790000033,504.0496843000001,504.05619470000056,504.06530790000033,504.06530790000033,504.06530790000033,504.06530790000033,506.0654047000007,506.0654047000007,506.0654047000007,506.0654047000007,506.0497434000008,2,None,1.2452661999996053,0.20505550000052608,,,,,,,,,,,,,Guess_5579,25,male,1,2025-05-10_13h11.39.088,sm,2024.2.4,59.899644136060594,2025-05-10 13h12.04.125290 +0200,
16,0,16,,,,,,space,266.17012200000136,None,None,3,None,1.3190618000007817,0.2008635999991384,0,0,0,0,,,,,0,0,0,0,,,,,16,0,16,0,506.0654047000007,,,,,,,,,,,,,,,,,,,,,,,,,,,,,,,,,,,,,,,,,,,Zahnpasta,2.4521,506.0502353000011,506.0508815000012,506.0509850000017,506.0654047000007,508.5319002000015,508.5161457000013,508.52261630000066,508.5319002000015,508.5319002000015,508.5319002000015,508.5319002000015,510.53213529999994,510.53213529999994,510.53213529999994,510.53213529999994,510.51643310000145,3,None,1.3190618000007817,0.2008635999991384,,,,,,,,,,,,,Guess_5579,25,male,1,2025-05-10_13h11.39.088,sm,2024.2.4,59.899644136060594,2025-05-10 13h12.04.125290 +0200,
17,0,17,,,,,,space,266.17012200000136,None,None,2,None,0.8200175000001764,0.1964683000005607,0,0,0,0,,,,,0,0,0,0,,,,,17,0,17,0,510.53213529999994,,,,,,,,,,,,,,,,,,,,,,,,,,,,,,,,,,,,,,,,,,,Spinne,2.9109,510.5169674000008,510.51750260000154,510.5176063000017,510.53213529999994,513.4478563000011,513.4323550000008,513.4360009000011,513.4478563000011,513.4478563000011,513.4478563000011,513.4478563000011,515.4478850000014,515.4478850000014,515.4478850000014,515.4478850000014,515.4328694000014,2,None,0.8200175000001764,0.1964683000005607,,,,,,,,,,,,,Guess_5579,25,male,1,2025-05-10_13h11.39.088,sm,2024.2.4,59.899644136060594,2025-05-10 13h12.04.125290 +0200,
18,0,18,,,,,,space,266.17012200000136,None,None,3,None,1.8401209000003291,None,0,0,0,0,,,,,0,0,0,0,,,,,18,0,18,0,515.4478850000014,,,,,,,,,,,,,,,,,,,,,,,,,,,,,,,,,,,,,,,,,,,Lokomotive,2.3843,515.4333661000001,515.4338816,515.4339864000012,515.4478850000014,517.831051000001,517.8155917000004,517.8201138000004,517.831051000001,517.831051000001,517.831051000001,517.831051000001,519.8311498000003,519.8311498000003,519.8311498000003,519.8311498000003,519.8159029000017,3,None,1.8401209000003291,None,,,,,,,,,,,,,Guess_5579,25,male,1,2025-05-10_13h11.39.088,sm,2024.2.4,59.899644136060594,2025-05-10 13h12.04.125290 +0200,
19,0,19,,,,,,space,266.17012200000136,None,None,2,None,0.9472681999995984,0.19406200000048557,0,0,0,0,,,,,0,0,0,0,,,,,19,0,19,0,519.8311498000003,,,,,,,,,,,,,,,,,,,,,,,,,,,,,,,,,,,,,,,,,,,Spaß,2.8901,519.8164005000017,519.816952000001,519.8170566000008,519.8311498000003,522.7304979,522.7152430000006,522.7207154000007,522.7304979,522.7304979,522.7304979,522.7304979,524.7310185000006,524.7310185000006,524.7310185000006,524.7310185000006,524.7153192000005,2,None,0.9472681999995984,0.19406200000048557,,,,,,,,,,,,,Guess_5579,25,male,1,2025-05-10_13h11.39.088,sm,2024.2.4,59.899644136060594,2025-05-10 13h12.04.125290 +0200,
20,0,20,,,,,,space,266.17012200000136,None,None,3,None,1.2044982999996137,0.18349920000036946,0,0,0,0,,,,,0,0,0,0,,,,,20,0,20,0,524.7310185000006,,,,,,,,,,,,,,,,,,,,,,,,,,,,,,,,,,,,,,,,,,,Service,5.1698,524.7158091000001,524.7164268000015,524.7165406000004,524.7310185000006,529.9135626000007,529.8980561000008,529.9017298000017,529.9135626000007,529.9135626000007,529.9135626000007,529.9135626000007,531.9137306000011,531.9137306000011,531.9137306000011,531.9137306000011,531.8983563000002,3,None,1.2044982999996137,0.18349920000036946,,,,,,,,,,,,,Guess_5579,25,male,1,2025-05-10_13h11.39.088,sm,2024.2.4,59.899644136060594,2025-05-10 13h12.04.125290 +0200,
21,0,21,,,,,,space,266.17012200000136,None,None,3,None,1.7339414000016404,0.17869079999945825,0,0,0,0,,,,,0,0,0,0,,,,,21,0,21,0,531.9137306000011,,,,,,,,,,,,,,,,,,,,,,,,,,,,,,,,,,,,,,,,,,,Käse,2.6097,531.8988472000001,531.8994871000014,531.8995911000002,531.9137306000011,534.5303745000001,534.5148468000007,534.5184188000003,534.5303745000001,534.5303745000001,534.5303745000001,534.5303745000001,536.5303257000014,536.5303257000014,536.5303257000014,536.5303257000014,536.5147676000015,3,None,1.7339414000016404,0.17869079999945825,,,,,,,,,,,,,Guess_5579,25,male,1,2025-05-10_13h11.39.088,sm,2024.2.4,59.899644136060594,2025-05-10 13h12.04.125290 +0200,
22,0,22,,,,,,space,266.17012200000136,None,None,2,None,1.117056799999773,0.2064461999998457,0,0,0,0,,,,,0,0,0,0,,,,,22,0,22,0,536.5303257000014,,,,,,,,,,,,,,,,,,,,,,,,,,,,,,,,,,,,,,,,,,,Vulkan,2.5519,536.5152678000013,536.5157868000006,536.5158973000016,536.5303257000014,539.0967408000015,539.0809744000017,539.0850865000011,539.0967408000015,539.0967408000015,539.0967408000015,539.0967408000015,541.0966251000009,541.0966251000009,541.0966251000009,541.0966251000009,541.0809838000005,2,None,1.117056799999773,0.2064461999998457,,,,,,,,,,,,,Guess_5579,25,male,1,2025-05-10_13h11.39.088,sm,2024.2.4,59.899644136060594,2025-05-10 13h12.04.125290 +0200,
23,0,23,,,,,,space,266.17012200000136,None,None,3,None,0.9889468000001216,0.18045359999996435,0,0,0,0,,,,,0,0,0,0,,,,,23,0,23,0,541.0966251000009,,,,,,,,,,,,,,,,,,,,,,,,,,,,,,,,,,,,,,,,,,,Tür,2.2385,541.0814792000001,541.0820918000009,541.0822032000015,541.0966251000009,543.3467225000004,543.3306155000009,543.3340675,543.3467225000004,543.3467225000004,543.3467225000004,543.3467225000004,545.3463269000003,545.3463269000003,545.3463269000003,545.3463269000003,545.3307840000016,3,None,0.9889468000001216,0.18045359999996435,,,,,,,,,,,,,Guess_5579,25,male,1,2025-05-10_13h11.39.088,sm,2024.2.4,59.899644136060594,2025-05-10 13h12.04.125290 +0200,
24,0,24,,,,,,space,266.17012200000136,None,None,3,None,1.3387148000001616,0.19641299999966577,0,0,0,0,,,,,0,0,0,0,,,,,24,0,24,0,545.3463269000003,,,,,,,,,,,,,,,,,,,,,,,,,,,,,,,,,,,,,,,,,,,Hülse,4.4429,545.3312743000006,545.3317883,545.3318942000005,545.3463269000003,549.7957463000002,549.7804070000002,549.7856746000016,549.7957463000002,549.7957463000002,549.7957463000002,549.7957463000002,551.7959470000005,551.7959470000005,551.7959470000005,551.7959470000005,551.7804499000013,3,None,1.3387148000001616,0.19641299999966577,,,,,,,,,,,,,Guess_5579,25,male,1,2025-05-10_13h11.39.088,sm,2024.2.4,59.899644136060594,2025-05-10 13h12.04.125290 +0200,
25,0,25,,,,,,space,266.17012200000136,None,None,3,None,0.9841797000008228,0.19769280000036815,0,0,0,0,,,,,0,0,0,0,,,,,25,0,25,0,551.7959470000005,,,,,,,,,,,,,,,,,,,,,,,,,,,,,,,,,,,,,,,,,,,Gewürz,4.4767,551.7809459,551.7814605000003,551.7815649000004,551.7959470000005,556.2788367000012,556.2631262000014,556.2672623000017,556.2788367000012,556.2788367000012,556.2788367000012,556.2788367000012,558.2791543000003,558.2791543000003,558.2791543000003,558.2791543000003,558.2634789000003,3,None,0.9841797000008228,0.19769280000036815,,,,,,,,,,,,,Guess_5579,25,male,1,2025-05-10_13h11.39.088,sm,2024.2.4,59.899644136060594,2025-05-10 13h12.04.125290 +0200,
26,0,26,,,,,,space,266.17012200000136,None,None,2,None,0.9725213000001531,0.1875121000011859,0,0,0,0,,,,,0,0,0,0,,,,,26,0,26,0,558.2791543000003,,,,,,,,,,,,,,,,,,,,,,,,,,,,,,,,,,,,,,,,,,,Agent,2.2129,558.2639798,558.2646853000006,558.2647932,558.2791543000003,560.4955848000009,560.4797732000006,560.4833477000011,560.4955848000009,560.4955848000009,560.4955848000009,560.4955848000009,562.4951763000008,562.4951763000008,562.4951763000008,562.4951763000008,562.4799344000003,2,None,0.9725213000001531,0.1875121000011859,,,,,,,,,,,,,Guess_5579,25,male,1,2025-05-10_13h11.39.088,sm,2024.2.4,59.899644136060594,2025-05-10 13h12.04.125290 +0200,
27,0,27,,,,,,space,266.17012200000136,None,None,3,None,1.2764831999993476,0.22102900000027148,0,0,0,0,,,,,0,0,0,0,,,,,27,0,27,0,562.4951763000008,,,,,,,,,,,,,,,,,,,,,,,,,,,,,,,,,,,,,,,,,,,Tee,2.1697,562.480432100001,562.4809415,562.4810469000004,562.4951763000008,564.6783648,564.6627132000012,564.6658720000014,564.6783648,564.6783648,564.6783648,564.6783648,566.6783808,566.6783808,566.6783808,566.6783808,566.6628019,3,None,1.2764831999993476,0.22102900000027148,,,,,,,,,,,,,Guess_5579,25,male,1,2025-05-10_13h11.39.088,sm,2024.2.4,59.899644136060594,2025-05-10 13h12.04.125290 +0200,
28,0,28,,,,,,space,266.17012200000136,None,None,2,None,1.189290299998902,0.18159920000107377,0,0,0,0,,,,,0,0,0,0,,,,,28,0,28,0,566.6783808,,,,,,,,,,,,,,,,,,,,,,,,,,,,,,,,,,,,,,,,,,,Riechen,2.6446,566.6632968000013,566.663808700001,566.6639139000017,566.6783808,569.3279238000014,569.3124398,569.3159370000012,569.3279238000014,569.3279238000014,569.3279238000014,569.3279238000014,571.3283037000001,571.3283037000001,571.3283037000001,571.3283037000001,571.3127958000005,2,None,1.189290299998902,0.18159920000107377,,,,,,,,,,,,,Guess_5579,25,male,1,2025-05-10_13h11.39.088,sm,2024.2.4,59.899644136060594,2025-05-10 13h12.04.125290 +0200,
29,0,29,,,,,,space,266.17012200000136,None,None,2,None,1.343289200000072,0.18638099999952829,0,0,0,0,,,,,0,0,0,0,,,,,29,0,29,0,571.3283037000001,,,,,,,,,,,,,,,,,,,,,,,,,,,,,,,,,,,,,,,,,,,Rebe,2.3229,571.3132926000017,571.3139345,571.3140374000013,571.3283037000001,573.6619565000001,573.6457041000012,573.6485564000013,573.6619565000001,573.6619565000001,573.6619565000001,573.6619565000001,575.6612809000017,575.6612809000017,575.6612809000017,575.6612809000017,575.6456861000006,2,None,1.343289200000072,0.18638099999952829,,,,,,,,,,,,,Guess_5579,25,male,1,2025-05-10_13h11.39.088,sm,2024.2.4,59.899644136060594,2025-05-10 13h12.04.125290 +0200,
30,0,30,,,,,,space,266.17012200000136,None,None,2,None,1.6987680999991426,0.1782063000009657,0,0,0,0,,,,,0,0,0,0,,,,,30,0,30,0,575.6612809000017,,,,,,,,,,,,,,,,,,,,,,,,,,,,,,,,,,,,,,,,,,,Angriff,3.6005,575.6461755,575.6468151000008,575.6469194000001,575.6612809000017,579.2609387000011,579.2455643000012,579.2497361000005,579.2609387000011,579.2609387000011,579.2609387000011,579.2609387000011,581.2611077000001,581.2611077000001,581.2611077000001,581.2611077000001,581.2454212000011,2,None,1.6987680999991426,0.1782063000009657,,,,,,,,,,,,,Guess_5579,25,male,1,2025-05-10_13h11.39.088,sm,2024.2.4,59.899644136060594,2025-05-10 13h12.04.125290 +0200,
31,0,31,,,,,,space,266.17012200000136,None,None,3,None,1.414789299999029,0.20316210000055435,0,0,0,0,,,,,0,0,0,0,,,,,31,0,31,0,581.2611077000001,,,,,,,,,,,,,,,,,,,,,,,,,,,,,,,,,,,,,,,,,,,Keller,3.2825,581.2459234000016,581.2464351000017,581.2465408000007,581.2611077000001,584.5436232000011,584.5281246000013,584.531428100001,584.5436232000011,584.5436232000011,584.5436232000011,584.5436232000011,586.5439146000008,586.5439146000008,586.5439146000008,586.5439146000008,586.5284251000012,3,None,1.414789299999029,0.20316210000055435,,,,,,,,,,,,,Guess_5579,25,male,1,2025-05-10_13h11.39.088,sm,2024.2.4,59.899644136060594,2025-05-10 13h12.04.125290 +0200,
32,0,32,,,,,,space,266.17012200000136,None,None,2,None,1.3557003999994777,0.1984022000015102,0,0,0,0,,,,,0,0,0,0,,,,,32,0,32,0,586.5439146000008,,,,,,,,,,,,,,,,,,,,,,,,,,,,,,,,,,,,,,,,,,,Universität,2.9036,586.5289242000017,586.5296122,586.5297233000001,586.5439146000008,589.4611882000008,589.4448333,589.4514396000013,589.4611882000008,589.4611882000008,589.4611882000008,589.4611882000008,591.4603088000003,591.4603088000003,591.4603088000003,591.4603088000003,591.4446555000013,2,None,1.3557003999994777,0.1984022000015102,,,,,,,,,,,,,Guess_5579,25,male,1,2025-05-10_13h11.39.088,sm,2024.2.4,59.899644136060594,2025-05-10 13h12.04.125290 +0200,
33,0,33,,,,,,space,266.17012200000136,None,None,2,None,1.0793641000000207,0.18540390000089246,0,0,0,0,,,,,0,0,0,0,,,,,33,0,33,0,591.4603088000003,,,,,,,,,,,,,,,,,,,,,,,,,,,,,,,,,,,,,,,,,,,Schmecken,2.7584,591.4451515000001,591.4456554000008,591.4457611000016,591.4603088000003,594.2267360000005,594.2110422000005,594.2150700000002,594.2267360000005,594.2267360000005,594.2267360000005,594.2267360000005,596.2267989000011,596.2267989000011,596.2267989000011,596.2267989000011,596.2110544000006,2,None,1.0793641000000207,0.18540390000089246,,,,,,,,,,,,,Guess_5579,25,male,1,2025-05-10_13h11.39.088,sm,2024.2.4,59.899644136060594,2025-05-10 13h12.04.125290 +0200,
34,0,34,,,,,,space,266.17012200000136,None,None,3,None,1.207224199999473,0.1897582000001421,0,0,0,0,,,,,0,0,0,0,,,,,34,0,34,0,596.2267989000011,,,,,,,,,,,,,,,,,,,,,,,,,,,,,,,,,,,,,,,,,,,Klippe,2.7378,596.2115457,596.2121990000014,596.212303100001,596.2267989000011,598.9764694000005,598.9607378000001,598.9643741,598.9764694000005,598.9764694000005,598.9764694000005,598.9764694000005,600.9763228000011,600.9763228000011,600.9763228000011,600.9763228000011,600.9612651000007,3,None,1.207224199999473,0.1897582000001421,,,,,,,,,,,,,Guess_5579,25,male,1,2025-05-10_13h11.39.088,sm,2024.2.4,59.899644136060594,2025-05-10 13h12.04.125290 +0200,
35,0,35,,,,,,space,266.17012200000136,None,None,2,None,1.2553334000003815,0.18426960000033432,0,0,0,0,,,,,0,0,0,0,,,,,35,0,35,0,600.9763228000011,,,,,,,,,,,,,,,,,,,,,,,,,,,,,,,,,,,,,,,,,,,Kellner,2.1961,600.9617619,600.9622818000007,600.9623875000016,600.9763228000011,603.176291400001,603.1607098000004,603.1649746000003,603.176291400001,603.176291400001,603.176291400001,603.176291400001,605.1761445000011,605.1761445000011,605.1761445000011,605.1761445000011,605.1606672000016,2,None,1.2553334000003815,0.18426960000033432,,,,,,,,,,,,,Guess_5579,25,male,1,2025-05-10_13h11.39.088,sm,2024.2.4,59.899644136060594,2025-05-10 13h12.04.125290 +0200,
36,0,36,,,,,,space,266.17012200000136,None,None,3,None,1.204396999999517,0.19283530000029714,0,0,0,0,,,,,0,0,0,0,,,,,36,0,36,0,605.1761445000011,,,,,,,,,,,,,,,,,,,,,,,,,,,,,,,,,,,,,,,,,,,Zeitung,2.4167,605.1611863000016,605.1616908000015,605.1618042000009,605.1761445000011,607.5924157000009,607.5767817000014,607.5806204,607.5924157000009,607.5924157000009,607.5924157000009,607.5924157000009,609.5926169000013,609.5926169000013,609.5926169000013,609.5926169000013,609.5771792000014,3,None,1.204396999999517,0.19283530000029714,,,,,,,,,,,,,Guess_5579,25,male,1,2025-05-10_13h11.39.088,sm,2024.2.4,59.899644136060594,2025-05-10 13h12.04.125290 +0200,
37,0,37,,,,,,space,266.17012200000136,None,None,2,None,1.2470593999987614,0.20140850000097998,0,0,0,0,,,,,0,0,0,0,,,,,37,0,37,0,609.5926169000013,,,,,,,,,,,,,,,,,,,,,,,,,,,,,,,,,,,,,,,,,,,Schwimmen,3.1264,609.5776785000016,609.5781994000008,609.5783395000017,609.5926169000013,612.7257630000004,612.7098311000009,612.7135281999999,612.7257630000004,612.7257630000004,612.7257630000004,612.7257630000004,614.7258174000017,614.7258174000017,614.7258174000017,614.7258174000017,614.7100031000009,2,None,1.2470593999987614,0.20140850000097998,,,,,,,,,,,,,Guess_5579,25,male,1,2025-05-10_13h11.39.088,sm,2024.2.4,59.899644136060594,2025-05-10 13h12.04.125290 +0200,
38,0,38,,,,,,space,266.17012200000136,None,None,3,None,1.9337027000001399,None,0,0,0,0,,,,,0,0,0,0,,,,,38,0,38,0,614.7258174000017,,,,,,,,,,,,,,,,,,,,,,,,,,,,,,,,,,,,,,,,,,,Bad,2.6312,614.7104813000005,614.7109769000017,614.7110821000006,614.7258174000017,617.3587938000001,617.3431727000007,617.3463111000001,617.3587938000001,617.3587938000001,617.3587938000001,617.3587938000001,619.3588984000016,619.3588984000016,619.3588984000016,619.3588984000016,619.3433100000002,3,None,1.9337027000001399,None,,,,,,,,,,,,,Guess_5579,25,male,1,2025-05-10_13h11.39.088,sm,2024.2.4,59.899644136060594,2025-05-10 13h12.04.125290 +0200,
39,0,39,,,,,,space,266.17012200000136,None,None,3,None,1.805091000000175,None,0,0,0,0,,,,,0,0,0,0,,,,,39,0,39,0,619.3588984000016,,,,,,,,,,,,,,,,,,,,,,,,,,,,,,,,,,,,,,,,,,,Hügel,3.039,619.3438084000009,619.3443628000005,619.3444708000006,619.3588984000016,622.4081759000001,622.3925870000003,622.3964283000005,622.4081759000001,622.4081759000001,622.4081759000001,622.4081759000001,624.4084636000007,624.4084636000007,624.4084636000007,624.4084636000007,624.3933154000006,3,None,1.805091000000175,None,,,,,,,,,,,,,Guess_5579,25,male,1,2025-05-10_13h11.39.088,sm,2024.2.4,59.899644136060594,2025-05-10 13h12.04.125290 +0200,
40,0,40,,,,,,space,266.17012200000136,None,None,2,None,0.7803232000005664,0.19067679999898246,0,0,0,0,,,,,0,0,0,0,,,,,40,0,40,0,624.4084636000007,,,,,,,,,,,,,,,,,,,,,,,,,,,,,,,,,,,,,,,,,,,Geruch,2.9061,624.3938083000012,624.3945455000012,624.3946560000004,624.4084636000007,627.3244799000004,627.3089871000011,627.3124307000016,627.3244799000004,627.3244799000004,627.3244799000004,627.3244799000004,629.3246601999999,629.3246601999999,629.3246601999999,629.3246601999999,629.3092930000003,2,None,0.7803232000005664,0.19067679999898246,,,,,,,,,,,,,Guess_5579,25,male,1,2025-05-10_13h11.39.088,sm,2024.2.4,59.899644136060594,2025-05-10 13h12.04.125290 +0200,
41,0,41,,,,,,space,266.17012200000136,None,None,3,None,1.2286571999993612,0.187109500000588,0,0,0,0,,,,,0,0,0,0,,,,,41,0,41,0,629.3246601999999,,,,,,,,,,,,,,,,,,,,,,,,,,,,,,,,,,,,,,,,,,,Spaghetti,2.5982,629.3097999000001,629.310313,629.3104183000014,629.3246601999999,631.9244348000011,631.9090285000002,631.9129463000008,631.9244348000011,631.9244348000011,631.9244348000011,631.9244348000011,633.9246138000017,633.9246138000017,633.9246138000017,633.9246138000017,633.9089522000013,3,None,1.2286571999993612,0.187109500000588,,,,,,,,,,,,,Guess_5579,25,male,1,2025-05-10_13h11.39.088,sm,2024.2.4,59.899644136060594,2025-05-10 13h12.04.125290 +0200,
42,0,42,,,,,,space,266.17012200000136,None,None,2,None,0.7954817000008916,0.1960510000008071,0,0,0,0,,,,,0,0,0,0,,,,,42,0,42,0,633.9246138000017,,,,,,,,,,,,,,,,,,,,,,,,,,,,,,,,,,,,,,,,,,,Geschwister,2.0934,633.9094890000015,633.9100113000004,633.9101157000005,633.9246138000017,636.0243438000016,636.0085506000014,636.0123205,636.0243438000016,636.0243438000016,636.0243438000016,636.0243438000016,638.0244115000005,638.0244115000005,638.0244115000005,638.0244115000005,638.0087601000014,2,None,0.7954817000008916,0.1960510000008071,,,,,,,,,,,,,Guess_5579,25,male,1,2025-05-10_13h11.39.088,sm,2024.2.4,59.899644136060594,2025-05-10 13h12.04.125290 +0200,
43,0,43,,,,,,space,266.17012200000136,None,None,3,None,1.288635200000499,0.17506849999881524,0,0,0,0,,,,,0,0,0,0,,,,,43,0,43,0,638.0244115000005,,,,,,,,,,,,,,,,,,,,,,,,,,,,,,,,,,,,,,,,,,,Frieden,3.6723,638.0092538000008,638.0099056000017,638.0100115000005,638.0244115000005,641.7073935000008,641.6916624000005,641.6983891,641.7073935000008,641.7073935000008,641.7073935000008,641.7073935000008,643.7073384000014,643.7073384000014,643.7073384000014,643.7073384000014,643.6918715000011,3,None,1.288635200000499,0.17506849999881524,,,,,,,,,,,,,Guess_5579,25,male,1,2025-05-10_13h11.39.088,sm,2024.2.4,59.899644136060594,2025-05-10 13h12.04.125290 +0200,
44,0,44,,,,,,space,266.17012200000136,None,None,3,None,1.2934308000003512,0.18653970000013942,0,0,0,0,,,,,0,0,0,0,,,,,44,0,44,0,643.7073384000014,,,,,,,,,,,,,,,,,,,,,,,,,,,,,,,,,,,,,,,,,,,Milch,3.8592,643.692366700001,643.6928744000015,643.6929800000016,643.7073384000014,647.5737863000013,647.5579961000003,647.5618463999999,647.5737863000013,647.5737863000013,647.5737863000013,647.5737863000013,649.5736959000005,649.5736959000005,649.5736959000005,649.5736959000005,649.5579699000009,3,None,1.2934308000003512,0.18653970000013942,,,,,,,,,,,,,Guess_5579,25,male,1,2025-05-10_13h11.39.088,sm,2024.2.4,59.899644136060594,2025-05-10 13h12.04.125290 +0200,
45,0,45,,,,,,space,266.17012200000136,None,None,3,None,1.057145999999193,0.2018138999992516,0,0,0,0,,,,,0,0,0,0,,,,,45,0,45,0,649.5736959000005,,,,,,,,,,,,,,,,,,,,,,,,,,,,,,,,,,,,,,,,,,,Trocken,4.3756,649.5584807000014,649.5591236,649.5592301000015,649.5736959000005,653.9565884000003,653.9412074000011,653.9461408000006,653.9565884000003,653.9565884000003,653.9565884000003,653.9565884000003,655.9566564000015,655.9566564000015,655.9566564000015,655.9566564000015,655.9409284000012,3,None,1.057145999999193,0.2018138999992516,,,,,,,,,,,,,Guess_5579,25,male,1,2025-05-10_13h11.39.088,sm,2024.2.4,59.899644136060594,2025-05-10 13h12.04.125290 +0200,
46,0,46,,,,,,space,266.17012200000136,None,None,2,None,0.9746770000001561,0.1921636999995826,0,0,0,0,,,,,0,0,0,0,,,,,46,0,46,0,655.9566564000015,,,,,,,,,,,,,,,,,,,,,,,,,,,,,,,,,,,,,,,,,,,Trennung,2.5377,655.9414232000017,655.9420587000004,655.9421661000015,655.9566564000015,658.506299300001,658.4906490000012,658.494591300001,658.506299300001,658.506299300001,658.506299300001,658.506299300001,660.5063372000004,660.5063372000004,660.5063372000004,660.5063372000004,660.4906550000014,2,None,0.9746770000001561,0.1921636999995826,,,,,,,,,,,,,Guess_5579,25,male,1,2025-05-10_13h11.39.088,sm,2024.2.4,59.899644136060594,2025-05-10 13h12.04.125290 +0200,
47,0,47,,,,,,space,266.17012200000136,None,None,2,None,0.9787046999990707,0.1914336000008916,0,0,0,0,,,,,0,0,0,0,,,,,47,0,47,0,660.5063372000004,,,,,,,,,,,,,,,,,,,,,,,,,,,,,,,,,,,,,,,,,,,Helm,4.5959,660.4911635000008,660.4919177000011,660.4920258000002,660.5063372000004,665.1059701000013,665.090451600001,665.0940853000011,665.1059701000013,665.1059701000013,665.1059701000013,665.1059701000013,667.1060479000007,667.1060479000007,667.1060479000007,667.1060479000007,667.0903519000003,2,None,0.9787046999990707,0.1914336000008916,,,,,,,,,,,,,Guess_5579,25,male,1,2025-05-10_13h11.39.088,sm,2024.2.4,59.899644136060594,2025-05-10 13h12.04.125290 +0200,
48,0,48,,,,,,space,266.17012200000136,None,None,2,None,1.8731079000008322,None,0,0,0,0,,,,,0,0,0,0,,,,,48,0,48,0,667.1060479000007,,,,,,,,,,,,,,,,,,,,,,,,,,,,,,,,,,,,,,,,,,,Fiktion,4.5524,667.0908517000007,667.0913527000012,667.0914986000007,667.1060479000007,671.6724750000012,671.6566408000017,671.6611654000008,671.6724750000012,671.6724750000012,671.6724750000012,671.6724750000012,673.6723450000009,673.6723450000009,673.6723450000009,673.6723450000009,673.6570829000011,2,None,1.8731079000008322,None,,,,,,,,,,,,,Guess_5579,25,male,1,2025-05-10_13h11.39.088,sm,2024.2.4,59.899644136060594,2025-05-10 13h12.04.125290 +0200,
49,0,49,,,,,,space,266.17012200000136,None,None,2,None,1.078863700000511,0.16456599999946775,0,0,0,0,,,,,0,0,0,0,,,,,49,0,49,0,673.6723450000009,,,,,,,,,,,,,,,,,,,,,,,,,,,,,,,,,,,,,,,,,,,Film,2.3006,673.6575813,673.6581321000012,673.6582388000006,673.6723450000009,675.9719965000004,675.9562732000013,675.9596337000003,675.9719965000004,675.9719965000004,675.9719965000004,675.9719965000004,677.9721757000007,677.9721757000007,677.9721757000007,677.9721757000007,677.9564041000012,2,None,1.078863700000511,0.16456599999946775,,,,,,,,,,,,,Guess_5579,25,male,1,2025-05-10_13h11.39.088,sm,2024.2.4,59.899644136060594,2025-05-10 13h12.04.125290 +0200,
50,0,50,,,,,,space,266.17012200000136,None,None,2,None,1.4546738999997615,0.1604689000014332,0,0,0,0,,,,,0,0,0,0,,,,,50,0,50,0,677.9721757000007,,,,,,,,,,,,,,,,,,,,,,,,,,,,,,,,,,,,,,,,,,,Gras,4.7208,677.9569011000003,677.9574105000011,677.9575152000016,677.9721757000007,682.7049760000009,682.6893123000009,682.6927509000016,682.7049760000009,682.7049760000009,682.7049760000009,682.7049760000009,684.7048300000006,684.7048300000006,684.7048300000006,684.7048300000006,684.6892897000016,2,None,1.4546738999997615,0.1604689000014332,,,,,,,,,,,,,Guess_5579,25,male,1,2025-05-10_13h11.39.088,sm,2024.2.4,59.899644136060594,2025-05-10 13h12.04.125290 +0200,
51,0,51,,,,,,space,266.17012200000136,None,None,2,None,1.113091400000485,0.1636701000006724,0,0,0,0,,,,,0,0,0,0,,,,,51,0,51,0,684.7048300000006,,,,,,,,,,,,,,,,,,,,,,,,,,,,,,,,,,,,,,,,,,,Publikum,2.5169,684.6897812000007,684.6904336000007,684.6905380000007,684.7048300000006,687.2214681000005,687.2057471000007,687.2108810000009,687.2214681000005,687.2214681000005,687.2214681000005,687.2214681000005,689.2212723000011,689.2212723000011,689.2212723000011,689.2212723000011,689.2062400000013,2,None,1.113091400000485,0.1636701000006724,,,,,,,,,,,,,Guess_5579,25,male,1,2025-05-10_13h11.39.088,sm,2024.2.4,59.899644136060594,2025-05-10 13h12.04.125290 +0200,
52,0,52,,,,,,space,266.17012200000136,None,None,3,None,0.7783257999999478,0.20549799999935203,0,0,0,0,,,,,0,0,0,0,,,,,52,0,52,0,689.2212723000011,,,,,,,,,,,,,,,,,,,,,,,,,,,,,,,,,,,,,,,,,,,Juwel,4.3942,689.2067356000007,689.2073695000017,689.207485500001,689.2212723000011,693.6207084000016,693.6053220000013,693.6113443000013,693.6207084000016,693.6207084000016,693.6207084000016,693.6207084000016,695.6209791000001,695.6209791000001,695.6209791000001,695.6209791000001,695.6053132000015,3,None,0.7783257999999478,0.20549799999935203,,,,,,,,,,,,,Guess_5579,25,male,1,2025-05-10_13h11.39.088,sm,2024.2.4,59.899644136060594,2025-05-10 13h12.04.125290 +0200,
53,0,53,,,,,,space,266.17012200000136,None,None,3,None,1.2267049000001862,0.22000980000120762,0,0,0,0,,,,,0,0,0,0,,,,,53,0,53,0,695.6209791000001,,,,,,,,,,,,,,,,,,,,,,,,,,,,,,,,,,,,,,,,,,,Raum,3.6615,695.6058065000016,695.6064570000017,695.6065629000004,695.6209791000001,699.2873539000011,699.2714809000008,699.2745005000015,699.2873539000011,699.2873539000011,699.2873539000011,699.2873539000011,701.2872816000017,701.2872816000017,701.2872816000017,701.2872816000017,701.2715455000016,3,None,1.2267049000001862,0.22000980000120762,,,,,,,,,,,,,Guess_5579,25,male,1,2025-05-10_13h11.39.088,sm,2024.2.4,59.899644136060594,2025-05-10 13h12.04.125290 +0200,
54,0,54,,,,,,space,266.17012200000136,None,None,2,None,0.969720099999904,0.19559560000016063,0,0,0,0,,,,,0,0,0,0,,,,,54,0,54,0,701.2872816000017,,,,,,,,,,,,,,,,,,,,,,,,,,,,,,,,,,,,,,,,,,,Hand,2.0946,701.2719837000004,701.2724647000014,701.2725586000015,701.2872816000017,703.3868502000005,703.3713424000016,703.3747082000009,703.3868502000005,703.3868502000005,703.3868502000005,703.3868502000005,705.3870089000011,705.3870089000011,705.3870089000011,705.3870089000011,705.3716209000013,2,None,0.969720099999904,0.19559560000016063,,,,,,,,,,,,,Guess_5579,25,male,1,2025-05-10_13h11.39.088,sm,2024.2.4,59.899644136060594,2025-05-10 13h12.04.125290 +0200,
55,0,55,,,,,,space,266.17012200000136,None,None,3,None,0.8818101999986538,0.19247619999987364,0,0,0,0,,,,,0,0,0,0,,,,,55,0,55,0,705.3870089000011,,,,,,,,,,,,,,,,,,,,,,,,,,,,,,,,,,,,,,,,,,,Tisch,2.4916,705.3721162000002,705.3728584,705.3729654000017,705.3870089000011,707.8868011000013,707.8713833000002,707.8755191,707.8868011000013,707.8868011000013,707.8868011000013,707.8868011000013,709.8867177000011,709.8867177000011,709.8867177000011,709.8867177000011,709.8712830000004,3,None,0.8818101999986538,0.19247619999987364,,,,,,,,,,,,,Guess_5579,25,male,1,2025-05-10_13h11.39.088,sm,2024.2.4,59.899644136060594,2025-05-10 13h12.04.125290 +0200,
56,0,56,,,,,,space,266.17012200000136,None,None,3,None,1.5767290000003413,0.18643970000084664,0,0,0,0,,,,,0,0,0,0,,,,,56,0,56,0,709.8867177000011,,,,,,,,,,,,,,,,,,,,,,,,,,,,,,,,,,,,,,,,,,,Geschäft,3.6297,709.8717836000014,709.8724392000004,709.8725477000007,709.8867177000011,713.5198837000007,713.5042681000014,713.5085607000001,713.5198837000007,713.5198837000007,713.5198837000007,713.5198837000007,715.5201388000005,715.5201388000005,715.5201388000005,715.5201388000005,715.5042008,3,None,1.5767290000003413,0.18643970000084664,,,,,,,,,,,,,Guess_5579,25,male,1,2025-05-10_13h11.39.088,sm,2024.2.4,59.899644136060594,2025-05-10 13h12.04.125290 +0200,
57,0,57,,,,,,space,266.17012200000136,None,None,3,None,1.5994872000010218,0.1984121999994386,0,0,0,0,,,,,0,0,0,0,,,,,57,0,57,0,715.5201388000005,,,,,,,,,,,,,,,,,,,,,,,,,,,,,,,,,,,,,,,,,,,Abdeckung,2.1186,715.5047596000004,715.5052780000005,715.5053882000011,715.5201388000005,717.6529892000017,717.6374535000014,717.6425465000011,717.6529892000017,717.6529892000017,717.6529892000017,717.6529892000017,719.6532372000001,719.6532372000001,719.6532372000001,719.6532372000001,719.6374853000016,3,None,1.5994872000010218,0.1984121999994386,,,,,,,,,,,,,Guess_5579,25,male,1,2025-05-10_13h11.39.088,sm,2024.2.4,59.899644136060594,2025-05-10 13h12.04.125290 +0200,
58,0,58,,,,,,space,266.17012200000136,None,None,2,None,0.7138663000005181,0.17699560000073689,0,0,0,0,,,,,0,0,0,0,,,,,58,0,58,0,719.6532372000001,,,,,,,,,,,,,,,,,,,,,,,,,,,,,,,,,,,,,,,,,,,Freund,3.6564,719.6379840000009,719.6384939,719.6386000000002,719.6532372000001,723.319093600001,723.3035653000006,723.3070801000013,723.319093600001,723.319093600001,723.319093600001,723.319093600001,725.3190681000015,725.3190681000015,725.3190681000015,725.3190681000015,725.3036341000006,2,None,0.7138663000005181,0.17699560000073689,,,,,,,,,,,,,Guess_5579,25,male,1,2025-05-10_13h11.39.088,sm,2024.2.4,59.899644136060594,2025-05-10 13h12.04.125290 +0200,
59,0,59,,,,,,space,266.17012200000136,None,None,3,None,1.3732188000012684,0.19404729999951087,0,0,0,0,,,,,0,0,0,0,,,,,59,0,59,0,725.3190681000015,,,,,,,,,,,,,,,,,,,,,,,,,,,,,,,,,,,,,,,,,,,Ausbildung,2.3916,725.3041245000004,725.3047703000011,725.3048742999999,725.3190681000015,727.7188066000017,727.7034034000008,727.7077449000008,727.7188066000017,727.7188066000017,727.7188066000017,727.7188066000017,729.7194733000015,729.7194733000015,729.7194733000015,729.7194733000015,729.7038602000011,3,None,1.3732188000012684,0.19404729999951087,,,,,,,,,,,,,Guess_5579,25,male,1,2025-05-10_13h11.39.088,sm,2024.2.4,59.899644136060594,2025-05-10 13h12.04.125290 +0200,
60,0,60,,,,,,space,266.17012200000136,None,None,2,None,1.1818683999990753,0.17401930000050925,0,0,0,0,,,,,0,0,0,0,,,,,60,0,60,0,729.7194733000015,,,,,,,,,,,,,,,,,,,,,,,,,,,,,,,,,,,,,,,,,,,Känguru,2.1743,729.7043686000015,729.7051407000017,729.7052537,729.7194733000015,731.9021263000013,731.8864299000015,731.8898074000008,731.9021263000013,731.9021263000013,731.9021263000013,731.9021263000013,733.9019933,733.9019933,733.9019933,733.9019933,733.8866916000006,2,None,1.1818683999990753,0.17401930000050925,,,,,,,,,,,,,Guess_5579,25,male,1,2025-05-10_13h11.39.088,sm,2024.2.4,59.899644136060594,2025-05-10 13h12.04.125290 +0200,
61,0,61,,,,,,space,266.17012200000136,None,None,3,None,1.8395190999999613,None,0,0,0,0,,,,,0,0,0,0,,,,,61,0,61,0,733.9019933,,,,,,,,,,,,,,,,,,,,,,,,,,,,,,,,,,,,,,,,,,,Gemüse,2.0168,733.8871941000016,733.887699500001,733.8878076000001,733.9019933,735.9184649000017,735.9026402,735.9061607000003,735.9184649000017,735.9184649000017,735.9184649000017,735.9184649000017,737.9183617000017,737.9183617000017,737.9183617000017,737.9183617000017,737.9028435,3,None,1.8395190999999613,None,,,,,,,,,,,,,Guess_5579,25,male,1,2025-05-10_13h11.39.088,sm,2024.2.4,59.899644136060594,2025-05-10 13h12.04.125290 +0200,
62,0,62,,,,,,space,266.17012200000136,None,None,2,None,1.2220815000000584,0.1735731000007945,0,0,0,0,,,,,0,0,0,0,,,,,62,0,62,0,737.9183617000017,,,,,,,,,,,,,,,,,,,,,,,,,,,,,,,,,,,,,,,,,,,Feuer,2.2639,737.9033408000014,737.9040173000012,737.9041252000006,737.9183617000017,740.1849946000002,740.1696500000016,740.1738789999999,740.1849946000002,740.1849946000002,740.1849946000002,740.1849946000002,742.1847415000011,742.1847415000011,742.1847415000011,742.1847415000011,742.1690946000017,2,None,1.2220815000000584,0.1735731000007945,,,,,,,,,,,,,Guess_5579,25,male,1,2025-05-10_13h11.39.088,sm,2024.2.4,59.899644136060594,2025-05-10 13h12.04.125290 +0200,
63,0,63,,,,,,space,266.17012200000136,None,None,3,None,1.4361637000001792,0.17682480000075884,0,0,0,0,,,,,0,0,0,0,,,,,63,0,63,0,742.1847415000011,,,,,,,,,,,,,,,,,,,,,,,,,,,,,,,,,,,,,,,,,,,Ausflug,2.021,742.1695143000015,742.1699789000013,742.170070600001,742.1847415000011,744.2176779000001,744.2022142000005,744.206794400001,744.2176779000001,744.2176779000001,744.2176779000001,744.2176779000001,746.2179309000003,746.2179309000003,746.2179309000003,746.2179309000003,746.2024717000004,3,None,1.4361637000001792,0.17682480000075884,,,,,,,,,,,,,Guess_5579,25,male,1,2025-05-10_13h11.39.088,sm,2024.2.4,59.899644136060594,2025-05-10 13h12.04.125290 +0200,
64,0,64,,,,,,space,266.17012200000136,None,None,3,None,1.7926967999992485,None,0,0,0,0,,,,,0,0,0,0,,,,,64,0,64,0,746.2179309000003,,,,,,,,,,,,,,,,,,,,,,,,,,,,,,,,,,,,,,,,,,,Strand,2.3861,746.2029952000012,746.203802,746.2039376000012,746.2179309000003,748.6178830000008,748.6024276000007,748.6064556000001,748.6178830000008,748.6178830000008,748.6178830000008,748.6178830000008,750.617776000001,750.617776000001,750.617776000001,750.617776000001,750.6024963,3,None,1.7926967999992485,None,,,,,,,,,,,,,Guess_5579,25,male,1,2025-05-10_13h11.39.088,sm,2024.2.4,59.899644136060594,2025-05-10 13h12.04.125290 +0200,
65,0,65,,,,,,space,266.17012200000136,None,None,2,None,0.8815085000005638,0.16816469999866968,0,0,0,0,,,,,0,0,0,0,,,,,65,0,65,0,750.617776000001,,,,,,,,,,,,,,,,,,,,,,,,,,,,,,,,,,,,,,,,,,,Kartoffel,3.0547,750.6029906000003,750.6035133000005,750.6036234000003,750.617776000001,753.6842664000014,753.6685957000009,753.6722608,753.6842664000014,753.6842664000014,753.6842664000014,753.6842664000014,755.6841378000008,755.6841378000008,755.6841378000008,755.6841378000008,755.6683965000011,2,None,0.8815085000005638,0.16816469999866968,,,,,,,,,,,,,Guess_5579,25,male,1,2025-05-10_13h11.39.088,sm,2024.2.4,59.899644136060594,2025-05-10 13h12.04.125290 +0200,
66,0,66,,,,,,space,266.17012200000136,None,None,3,None,1.6573508999990736,0.21648319999985688,0,0,0,0,,,,,0,0,0,0,,,,,66,0,66,0,755.6841378000008,,,,,,,,,,,,,,,,,,,,,,,,,,,,,,,,,,,,,,,,,,,Papier,5.3463,755.6688929000011,755.6694019000006,755.6695106000006,755.6841378000008,761.0336828,761.0181958000012,761.0224161000006,761.0336828,761.0336828,761.0336828,761.0336828,763.0337294000001,763.0337294000001,763.0337294000001,763.0337294000001,763.018376,3,None,1.6573508999990736,0.21648319999985688,,,,,,,,,,,,,Guess_5579,25,male,1,2025-05-10_13h11.39.088,sm,2024.2.4,59.899644136060594,2025-05-10 13h12.04.125290 +0200,
67,0,67,,,,,,space,266.17012200000136,None,None,3,None,1.3566638000011153,0.1968280999990384,0,0,0,0,,,,,0,0,0,0,,,,,67,0,67,0,763.0337294000001,,,,,,,,,,,,,,,,,,,,,,,,,,,,,,,,,,,,,,,,,,,Kerze,2.0589,763.0188753000002,763.019377300001,763.0194802000005,763.0337294000001,765.1001008000003,765.0845480000007,765.0886777000014,765.1001008000003,765.1001008000003,765.1001008000003,765.1001008000003,767.1000652000002,767.1000652000002,767.1000652000002,767.1000652000002,767.0846149000008,3,None,1.3566638000011153,0.1968280999990384,,,,,,,,,,,,,Guess_5579,25,male,1,2025-05-10_13h11.39.088,sm,2024.2.4,59.899644136060594,2025-05-10 13h12.04.125290 +0200,
68,0,68,,,,,,space,266.17012200000136,None,None,3,None,1.048135099999854,0.19208080000134942,0,0,0,0,,,,,0,0,0,0,,,,,68,0,68,0,767.1000652000002,,,,,,,,,,,,,,,,,,,,,,,,,,,,,,,,,,,,,,,,,,,Klee,3.2059,767.085095800001,767.0857660000001,767.0858725000016,767.1000652000002,770.3164879000014,770.3006612000008,770.3037815000007,770.3164879000014,770.3164879000014,770.3164879000014,770.3164879000014,772.3164092000006,772.3164092000006,772.3164092000006,772.3164092000006,772.3011298000001,3,None,1.048135099999854,0.19208080000134942,,,,,,,,,,,,,Guess_5579,25,male,1,2025-05-10_13h11.39.088,sm,2024.2.4,59.899644136060594,2025-05-10 13h12.04.125290 +0200,
69,0,69,,,,,,space,266.17012200000136,None,None,2,None,1.5786339999995107,0.17249360000096203,0,0,0,0,,,,,0,0,0,0,,,,,69,0,69,0,772.3164092000006,,,,,,,,,,,,,,,,,,,,,,,,,,,,,,,,,,,,,,,,,,,Blut,2.7992,772.301635400001,772.3022859000012,772.3023902000004,772.3164092000006,775.1163032000004,775.1008979000017,775.1040789000017,775.1163032000004,775.1163032000004,775.1163032000004,775.1163032000004,777.116284400001,777.116284400001,777.116284400001,777.116284400001,777.1007922000008,2,None,1.5786339999995107,0.17249360000096203,,,,,,,,,,,,,Guess_5579,25,male,1,2025-05-10_13h11.39.088,sm,2024.2.4,59.899644136060594,2025-05-10 13h12.04.125290 +0200,
70,0,70,,,,,,space,266.17012200000136,None,None,2,None,1.351670500000182,0.16083030000118015,0,0,0,0,,,,,0,0,0,0,,,,,70,0,70,0,777.116284400001,,,,,,,,,,,,,,,,,,,,,,,,,,,,,,,,,,,,,,,,,,,Handy,2.4137,777.1012951000012,777.1018055000004,777.1019099000005,777.116284400001,779.5327341000011,779.5167944000004,779.5210568000002,779.5327341000011,779.5327341000011,779.5327341000011,779.5327341000011,781.5325080000002,781.5325080000002,781.5325080000002,781.5325080000002,781.5169727000011,2,None,1.351670500000182,0.16083030000118015,,,,,,,,,,,,,Guess_5579,25,male,1,2025-05-10_13h11.39.088,sm,2024.2.4,59.899644136060594,2025-05-10 13h12.04.125290 +0200,
71,0,71,,,,,,space,266.17012200000136,None,None,3,None,1.2083225000005768,0.1990459999997256,0,0,0,0,,,,,0,0,0,0,,,,,71,0,71,0,781.5325080000002,,,,,,,,,,,,,,,,,,,,,,,,,,,,,,,,,,,,,,,,,,,Geschichte,2.0052,781.5174731000006,781.5181763,781.5182903000004,781.5325080000002,783.549178700001,783.5334262000015,783.5379690000009,783.549178700001,783.549178700001,783.549178700001,783.549178700001,785.5490485000009,785.5490485000009,785.5490485000009,785.5490485000009,785.5334385000006,3,None,1.2083225000005768,0.1990459999997256,,,,,,,,,,,,,Guess_5579,25,male,1,2025-05-10_13h11.39.088,sm,2024.2.4,59.899644136060594,2025-05-10 13h12.04.125290 +0200,
72,0,72,,,,,,space,266.17012200000136,None,None,3,None,1.5447911000010208,0.17747139999846695,0,0,0,0,,,,,0,0,0,0,,,,,72,0,72,0,785.5490485000009,,,,,,,,,,,,,,,,,,,,,,,,,,,,,,,,,,,,,,,,,,,Reifen,3.189,785.5339381000013,785.5345196000017,785.5346259000016,785.5490485000009,788.7489177000007,788.7331408000009,788.7371873000011,788.7489177000007,788.7489177000007,788.7489177000007,788.7489177000007,790.7485882000001,790.7485882000001,790.7485882000001,790.7485882000001,790.7333177,3,None,1.5447911000010208,0.17747139999846695,,,,,,,,,,,,,Guess_5579,25,male,1,2025-05-10_13h11.39.088,sm,2024.2.4,59.899644136060594,2025-05-10 13h12.04.125290 +0200,
73,0,73,,,,,,space,266.17012200000136,None,None,3,None,1.3226835999994364,0.19787140000153158,0,0,0,0,,,,,0,0,0,0,,,,,73,0,73,0,790.7485882000001,,,,,,,,,,,,,,,,,,,,,,,,,,,,,,,,,,,,,,,,,,,Sicherheit,2.9832,790.7338134000001,790.7343332,790.7344380000013,790.7485882000001,793.7319573000004,793.7158419000007,793.7193072000009,793.7319573000004,793.7319573000004,793.7319573000004,793.7319573000004,795.731842000001,795.731842000001,795.731842000001,795.731842000001,795.7165552000006,3,None,1.3226835999994364,0.19787140000153158,,,,,,,,,,,,,Guess_5579,25,male,1,2025-05-10_13h11.39.088,sm,2024.2.4,59.899644136060594,2025-05-10 13h12.04.125290 +0200,
74,0,74,,,,,,space,266.17012200000136,None,None,2,None,1.2908074999995733,0.1794666000005236,0,0,0,0,,,,,0,0,0,0,,,,,74,0,74,0,795.731842000001,,,,,,,,,,,,,,,,,,,,,,,,,,,,,,,,,,,,,,,,,,,Ostern,3.9589,795.7170635000002,795.7175866000016,795.7176921000009,795.731842000001,799.6977897000015,799.6825015000013,799.6885230000007,799.6977897000015,799.6977897000015,799.6977897000015,799.6977897000015,801.6982234000006,801.6982234000006,801.6982234000006,801.6982234000006,801.6827212000007,2,None,1.2908074999995733,0.1794666000005236,,,,,,,,,,,,,Guess_5579,25,male,1,2025-05-10_13h11.39.088,sm,2024.2.4,59.899644136060594,2025-05-10 13h12.04.125290 +0200,
75,0,75,,,,,,space,266.17012200000136,None,None,2,None,1.7450576000010187,0.17916599999989558,0,0,0,0,,,,,0,0,0,0,,,,,75,0,75,0,801.6982234000006,,,,,,,,,,,,,,,,,,,,,,,,,,,,,,,,,,,,,,,,,,,Schulter,3.4445,801.6832142000003,801.6837932000017,801.6839021000014,801.6982234000006,805.1474910000015,805.1320761000006,805.1355902000014,805.1474910000015,805.1474910000015,805.1474910000015,805.1474910000015,807.1477670000004,807.1477670000004,807.1477670000004,807.1477670000004,807.132425400001,2,None,1.7450576000010187,0.17916599999989558,,,,,,,,,,,,,Guess_5579,25,male,1,2025-05-10_13h11.39.088,sm,2024.2.4,59.899644136060594,2025-05-10 13h12.04.125290 +0200,
76,0,76,,,,,,space,266.17012200000136,None,None,3,None,1.111716499999602,0.19004429999949934,0,0,0,0,,,,,0,0,0,0,,,,,76,0,76,0,807.1477670000004,,,,,,,,,,,,,,,,,,,,,,,,,,,,,,,,,,,,,,,,,,,Kabine,4.3424,807.1329169,807.1334404000008,807.1335442,807.1477670000004,811.4971219000017,811.4820670000008,811.4885556000008,811.4971219000017,811.4971219000017,811.4971219000017,811.4971219000017,813.497486100001,813.497486100001,813.497486100001,813.497486100001,813.4816252,3,None,1.111716499999602,0.19004429999949934,,,,,,,,,,,,,Guess_5579,25,male,1,2025-05-10_13h11.39.088,sm,2024.2.4,59.899644136060594,2025-05-10 13h12.04.125290 +0200,
77,0,77,,,,,,space,266.17012200000136,None,None,None,None,,,0,0,0,0,,,,,0,0,0,0,,,,,77,0,77,0,813.497486100001,,,,,,,,,,,,,,,,,,,,,,,,,,,,,,,,,,,,,,,,,,,Zirkus,3.0127,813.4820895000012,813.4827112000003,813.4828093000015,813.497486100001,816.5137516000013,816.4982203,816.5024079000013,816.5137516000013,816.5137516000013,816.5137516000013,816.5137516000013,818.5138320000005,818.5138320000005,818.5138320000005,818.5138320000005,818.4986885000017,None,None,,,,,,,,,,,,,,,Guess_5579,25,male,1,2025-05-10_13h11.39.088,sm,2024.2.4,59.899644136060594,2025-05-10 13h12.04.125290 +0200,
78,0,78,,,,,,space,266.17012200000136,None,None,3,None,0.986289399999805,0.17712290000054054,0,0,0,0,,,,,0,0,0,0,,,,,78,0,78,0,818.5138320000005,,,,,,,,,,,,,,,,,,,,,,,,,,,,,,,,,,,,,,,,,,,Schlamm,2.2074,818.4992007000001,818.4997789000008,818.499885700001,818.5138320000005,820.7301598000013,820.7145697000014,820.7184952000007,820.7301598000013,820.7301598000013,820.7301598000013,820.7301598000013,822.7301908000009,822.7301908000009,822.7301908000009,822.7301908000009,822.7148104000007,3,None,0.986289399999805,0.17712290000054054,,,,,,,,,,,,,Guess_5579,25,male,1,2025-05-10_13h11.39.088,sm,2024.2.4,59.899644136060594,2025-05-10 13h12.04.125290 +0200,
79,0,79,,,,,,space,266.17012200000136,None,None,3,None,1.314358400000856,0.22036060000027646,0,0,0,0,,,,,0,0,0,0,,,,,79,0,79,0,822.7301908000009,,,,,,,,,,,,,,,,,,,,,,,,,,,,,,,,,,,,,,,,,,,Schuh,2.9645,822.7153118000006,822.7158264000009,822.7159326000001,822.7301908000009,825.6967826,825.6810608000014,825.6851327000004,825.6967826,825.6967826,825.6967826,825.6967826,827.7033855000009,827.7033855000009,827.7033855000009,827.7033855000009,827.681271200001,3,None,1.314358400000856,0.22036060000027646,,,,,,,,,,,,,Guess_5579,25,male,1,2025-05-10_13h11.39.088,sm,2024.2.4,59.899644136060594,2025-05-10 13h12.04.125290 +0200,
0,0,0,,,,,2.0052,space,1.995089399999415,None,None,2,None,1.871445999999196,None,0,0,0,0,,,,,1,0,1,0,0,79,79,42,0,0,0,0,874.5606359000012,,,,,,,,,,,,,,,,,,,,,,,,,,845.6061274000003,845.6063724000014,845.6125002000008,845.6173520000011,845.6173520000011,847.6145492000014,space,1.995089399999415,None,847.6147003000005,847.6288029000007,847.6288029000007,862.5291892000005,None,862.5293418000001,862.5449810000009,874.5440085000009,Bart,2.0052,874.5452308000004,874.5461618000008,874.546272900001,874.5606359000012,876.5771208000006,876.5613238000005,876.5644796000015,876.5771208000006,876.5771208000006,876.5771208000006,876.5771208000006,878.576974900001,878.576974900001,878.576974900001,878.576974900001,878.5613435000014,2,None,1.871445999999196,None,839.6962995000013,839.7125508000008,839.7125508000008,845.5641164000008,2,5.8413887999995495,None,,,,,,Guess_5579,25,male,1,2025-05-10_13h11.39.088,sm,2024.2.4,59.899644136060594,2025-05-10 13h12.04.125290 +0200,
1,0,1,,,,,,space,1.995089399999415,None,None,2,None,0.9436983000014152,0.1886066999995819,0,0,0,0,,,,,1,0,1,0,,,,,1,0,1,0,878.576974900001,,,,,,,,,,,,,,,,,,,,,,,,,,,,,,,,,,,,,,,,,,,Fuß,2.0168,878.5618497000014,878.562422500001,878.5625308000017,878.576974900001,880.5931901000004,880.5775494000009,880.5812752000002,880.5931901000004,880.5931901000004,880.5931901000004,880.5931901000004,882.5933573000002,882.5933573000002,882.5933573000002,882.5933573000002,882.5777704000011,2,None,0.9436983000014152,0.1886066999995819,,,,,,,,,,,,,Guess_5579,25,male,1,2025-05-10_13h11.39.088,sm,2024.2.4,59.899644136060594,2025-05-10 13h12.04.125290 +0200,
2,0,2,,,,,,space,1.995089399999415,None,None,2,None,0.7591317999995226,0.2037607999991451,0,0,0,0,,,,,1,0,1,0,,,,,2,0,2,0,882.5933573000002,,,,,,,,,,,,,,,,,,,,,,,,,,,,,,,,,,,,,,,,,,,Mund,3.9589,882.5782646000007,882.5789444000002,882.5790494000012,882.5933573000002,886.5597558000009,886.5446035000004,886.5482060000013,886.5597558000009,886.5597558000009,886.5597558000009,886.5597558000009,888.5596965000004,888.5596965000004,888.5596965000004,888.5596965000004,888.5441007000009,2,None,0.7591317999995226,0.2037607999991451,,,,,,,,,,,,,Guess_5579,25,male,1,2025-05-10_13h11.39.088,sm,2024.2.4,59.899644136060594,2025-05-10 13h12.04.125290 +0200,
3,0,3,,,,,,space,1.995089399999415,None,None,3,None,1.231252499999755,0.197511399999712,0,0,0,0,,,,,1,0,1,0,,,,,3,0,3,0,888.5596965000004,,,,,,,,,,,,,,,,,,,,,,,,,,,,,,,,,,,,,,,,,,,Ring,2.0031,888.5445924000014,888.5452449000004,888.545349,888.5596965000004,890.5761512000008,890.5606296000005,890.5641682000005,890.5761512000008,890.5761512000008,890.5761512000008,890.5761512000008,892.5763212000002,892.5763212000002,892.5763212000002,892.5763212000002,892.5606138000003,3,None,1.231252499999755,0.197511399999712,,,,,,,,,,,,,Guess_5579,25,male,1,2025-05-10_13h11.39.088,sm,2024.2.4,59.899644136060594,2025-05-10 13h12.04.125290 +0200,
4,0,4,,,,,,space,1.995089399999415,None,None,3,None,0.8982454999986658,0.20379670000147598,0,0,0,0,,,,,1,0,1,0,,,,,4,0,4,0,892.5763212000002,,,,,,,,,,,,,,,,,,,,,,,,,,,,,,,,,,,,,,,,,,,Nudeln,2.4521,892.5611064000004,892.5616084000012,892.5617133000014,892.5763212000002,895.0430407000003,895.0270387,895.0319787000008,895.0430407000003,895.0430407000003,895.0430407000003,895.0430407000003,897.0425269000007,897.0425269000007,897.0425269000007,897.0425269000007,897.0268072000017,3,None,0.8982454999986658,0.20379670000147598,,,,,,,,,,,,,Guess_5579,25,male,1,2025-05-10_13h11.39.088,sm,2024.2.4,59.899644136060594,2025-05-10 13h12.04.125290 +0200,
5,0,5,,,,,,space,1.995089399999415,None,None,3,None,1.184436999999889,0.18992439999965427,0,0,0,0,,,,,1,0,1,0,,,,,5,0,5,0,897.0425269000007,,,,,,,,,,,,,,,,,,,,,,,,,,,,,,,,,,,,,,,,,,,Rot,2.8901,897.0272494000001,897.0277289000005,897.0278224000012,897.0425269000007,899.9429826000014,899.9265202000006,899.9294905000006,899.9429826000014,899.9429826000014,899.9429826000014,899.9429826000014,901.942302200001,901.942302200001,901.942302200001,901.942302200001,901.9266551000001,3,None,1.184436999999889,0.18992439999965427,,,,,,,,,,,,,Guess_5579,25,male,1,2025-05-10_13h11.39.088,sm,2024.2.4,59.899644136060594,2025-05-10 13h12.04.125290 +0200,
6,0,6,,,,,,space,1.995089399999415,None,None,3,None,1.4568914999999834,0.20767800000066927,0,0,0,0,,,,,1,0,1,0,,,,,6,0,6,0,901.942302200001,,,,,,,,,,,,,,,,,,,,,,,,,,,,,,,,,,,,,,,,,,,Fahrrad,2.0946,901.9271560000016,901.9277995000011,901.927904600001,901.942302200001,904.0422445000004,904.0266693000012,904.0309948000013,904.0422445000004,904.0422445000004,904.0422445000004,904.0422445000004,906.0418788000006,906.0418788000006,906.0418788000006,906.0418788000006,906.0264923000013,3,None,1.4568914999999834,0.20767800000066927,,,,,,,,,,,,,Guess_5579,25,male,1,2025-05-10_13h11.39.088,sm,2024.2.4,59.899644136060594,2025-05-10 13h12.04.125290 +0200,
7,0,7,,,,,,space,1.995089399999415,None,None,2,None,0.7379072999992786,0.19448469999952067,0,0,0,0,,,,,1,0,1,0,,,,,7,0,7,0,906.0418788000006,,,,,,,,,,,,,,,,,,,,,,,,,,,,,,,,,,,,,,,,,,,Fledermaus,3.189,906.0269828,906.0276235000001,906.0277286,906.0418788000006,909.2414722000012,909.2260186000003,909.2302039000006,909.2414722000012,909.2414722000012,909.2414722000012,909.2414722000012,911.2418103,911.2418103,911.2418103,911.2418103,911.2262159000002,2,None,0.7379072999992786,0.19448469999952067,,,,,,,,,,,,,Guess_5579,25,male,1,2025-05-10_13h11.39.088,sm,2024.2.4,59.899644136060594,2025-05-10 13h12.04.125290 +0200,
8,0,8,,,,,,space,1.995089399999415,None,None,3,None,1.5189213000012387,0.19947589999901538,0,0,0,0,,,,,1,0,1,0,,,,,8,0,8,0,911.2418103,,,,,,,,,,,,,,,,,,,,,,,,,,,,,,,,,,,,,,,,,,,Wasser,5.3463,911.2267082000017,911.227347,911.2274527000009,911.2418103,916.5915517000012,916.5757577000004,916.5798680000007,916.5915517000012,916.5915517000012,916.5915517000012,916.5915517000012,918.5913495000004,918.5913495000004,918.5913495000004,918.5913495000004,918.5757313000013,3,None,1.5189213000012387,0.19947589999901538,,,,,,,,,,,,,Guess_5579,25,male,1,2025-05-10_13h11.39.088,sm,2024.2.4,59.899644136060594,2025-05-10 13h12.04.125290 +0200,
9,0,9,,,,,,space,1.995089399999415,None,None,3,None,1.2838010000014037,0.1932625999997981,0,0,0,0,,,,,1,0,1,0,,,,,9,0,9,0,918.5913495000004,,,,,,,,,,,,,,,,,,,,,,,,,,,,,,,,,,,,,,,,,,,Ordner,2.2074,918.5762297000001,918.5767359000001,918.5768479000017,918.5913495000004,920.8076725999999,920.7926202000017,920.7970604000002,920.8076725999999,920.8076725999999,920.8076725999999,920.8076725999999,922.8076998000015,922.8076998000015,922.8076998000015,922.8076998000015,922.7924898000001,3,None,1.2838010000014037,0.1932625999997981,,,,,,,,,,,,,Guess_5579,25,male,1,2025-05-10_13h11.39.088,sm,2024.2.4,59.899644136060594,2025-05-10 13h12.04.125290 +0200,
10,0,10,,,,,,space,1.995089399999415,None,None,2,None,1.008664899998621,0.18081189999975322,0,0,0,0,,,,,1,0,1,0,,,,,10,0,10,0,922.8076998000015,,,,,,,,,,,,,,,,,,,,,,,,,,,,,,,,,,,,,,,,,,,Komödie,2.1186,922.7929852000016,922.7935044000005,922.7936081000007,922.8076998000015,924.9409655,924.9254586000006,924.9304089000016,924.9409655,924.9409655,924.9409655,924.9409655,926.940883700001,926.940883700001,926.940883700001,926.940883700001,926.924951500001,2,None,1.008664899998621,0.18081189999975322,,,,,,,,,,,,,Guess_5579,25,male,1,2025-05-10_13h11.39.088,sm,2024.2.4,59.899644136060594,2025-05-10 13h12.04.125290 +0200,
11,0,11,,,,,,space,1.995089399999415,None,None,2,None,0.917649099999835,0.1676184000007197,0,0,0,0,,,,,1,0,1,0,,,,,11,0,11,0,926.940883700001,,,,,,,,,,,,,,,,,,,,,,,,,,,,,,,,,,,,,,,,,,,Arm,2.7992,926.9254204000008,926.9259032000009,926.9259975000004,926.940883700001,929.7406091000012,929.7249790000005,929.7286557000007,929.7406091000012,929.7406091000012,929.7406091000012,929.7406091000012,931.7405287000001,931.7405287000001,931.7405287000001,931.7405287000001,931.7249406999999,2,None,0.917649099999835,0.1676184000007197,,,,,,,,,,,,,Guess_5579,25,male,1,2025-05-10_13h11.39.088,sm,2024.2.4,59.899644136060594,2025-05-10 13h12.04.125290 +0200,
12,0,12,,,,,,space,1.995089399999415,None,None,2,None,0.9107889999995677,0.1809229000009509,0,0,0,0,,,,,1,0,1,0,,,,,12,0,12,0,931.7405287000001,,,,,,,,,,,,,,,,,,,,,,,,,,,,,,,,,,,,,,,,,,,Alligator,2.0934,931.7254436000003,931.7259603000002,931.7260717000008,931.7405287000001,933.8406656000006,933.8247025000001,933.828402000001,933.8406656000006,933.8406656000006,933.8406656000006,933.8406656000006,935.8404217000007,935.8404217000007,935.8404217000007,935.8404217000007,935.8246290000006,2,None,0.9107889999995677,0.1809229000009509,,,,,,,,,,,,,Guess_5579,25,male,1,2025-05-10_13h11.39.088,sm,2024.2.4,59.899644136060594,2025-05-10 13h12.04.125290 +0200,
13,0,13,,,,,,space,1.995089399999415,None,None,3,None,1.2547952000004443,0.2013157000001229,0,0,0,0,,,,,1,0,1,0,,,,,13,0,13,0,935.8404217000007,,,,,,,,,,,,,,,,,,,,,,,,,,,,,,,,,,,,,,,,,,,Wanne,3.6615,935.8251193000015,935.8257692000007,935.8258740000001,935.8404217000007,939.5066069000004,939.4910666000014,939.4950929000006,939.5066069000004,939.5066069000004,939.5066069000004,939.5066069000004,941.5066940000015,941.5066940000015,941.5066940000015,941.5066940000015,941.4913480000014,3,None,1.2547952000004443,0.2013157000001229,,,,,,,,,,,,,Guess_5579,25,male,1,2025-05-10_13h11.39.088,sm,2024.2.4,59.899644136060594,2025-05-10 13h12.04.125290 +0200,
14,0,14,,,,,,space,1.995089399999415,None,None,2,None,0.9778232999997272,0.17910120000124152,0,0,0,0,,,,,1,0,1,0,,,,,14,0,14,0,941.5066940000015,,,,,,,,,,,,,,,,,,,,,,,,,,,,,,,,,,,,,,,,,,,Familie,2.8863,941.4918445000003,941.4923510000008,941.4924577000002,941.5066940000015,944.4064048,944.3905872000014,944.3946229000012,944.4064048,944.4064048,944.4064048,944.4064048,946.4062887,946.4062887,946.4062887,946.4062887,946.3906497000007,2,None,0.9778232999997272,0.17910120000124152,,,,,,,,,,,,,Guess_5579,25,male,1,2025-05-10_13h11.39.088,sm,2024.2.4,59.899644136060594,2025-05-10 13h12.04.125290 +0200,
15,0,15,,,,,,space,1.995089399999415,None,None,3,None,1.7826703999999154,None,0,0,0,0,,,,,1,0,1,0,,,,,15,0,15,0,946.4062887,,,,,,,,,,,,,,,,,,,,,,,,,,,,,,,,,,,,,,,,,,,Olympia,2.1743,946.3911138000003,946.3915936000012,946.3916986000004,946.4062887,948.5895606000013,948.5738384000015,948.5783815000013,948.5895606000013,948.5895606000013,948.5895606000013,948.5895606000013,950.5894817000008,950.5894817000008,950.5894817000008,950.5894817000008,950.5735294000006,3,None,1.7826703999999154,None,,,,,,,,,,,,,Guess_5579,25,male,1,2025-05-10_13h11.39.088,sm,2024.2.4,59.899644136060594,2025-05-10 13h12.04.125290 +0200,
16,0,16,,,,,,space,1.995089399999415,None,None,3,None,0.9766419000006863,0.180156899999929,0,0,0,0,,,,,1,0,1,0,,,,,16,0,16,0,950.5894817000008,,,,,,,,,,,,,,,,,,,,,,,,,,,,,,,,,,,,,,,,,,,Blase,2.9061,950.5739228000002,950.5743877000004,950.5744710000017,950.5894817000008,953.5058015000013,953.4905088000014,953.4955600000012,953.5058015000013,953.5058015000013,953.5058015000013,953.5058015000013,955.5056484000015,955.5056484000015,955.5056484000015,955.5056484000015,955.4903122000014,3,None,0.9766419000006863,0.180156899999929,,,,,,,,,,,,,Guess_5579,25,male,1,2025-05-10_13h11.39.088,sm,2024.2.4,59.899644136060594,2025-05-10 13h12.04.125290 +0200,
17,0,17,,,,,,space,1.995089399999415,None,None,2,None,0.6556821999984095,0.1808727000006911,0,0,0,0,,,,,1,0,1,0,,,,,17,0,17,0,955.5056484000015,,,,,,,,,,,,,,,,,,,,,,,,,,,,,,,,,,,,,,,,,,,Student,2.6446,955.4907865000005,955.4912904000012,955.4913918000002,955.5056484000015,958.1555448000017,958.1399130000009,958.1442251000008,958.1555448000017,958.1555448000017,958.1555448000017,958.1555448000017,960.1557741000015,960.1557741000015,960.1557741000015,960.1557741000015,960.1396489000017,2,None,0.6556821999984095,0.1808727000006911,,,,,,,,,,,,,Guess_5579,25,male,1,2025-05-10_13h11.39.088,sm,2024.2.4,59.899644136060594,2025-05-10 13h12.04.125290 +0200,
18,0,18,,,,,,space,1.995089399999415,None,None,3,None,1.0259836000004725,0.19440629999917292,0,0,0,0,,,,,1,0,1,0,,,,,18,0,18,0,960.1557741000015,,,,,,,,,,,,,,,,,,,,,,,,,,,,,,,,,,,,,,,,,,,Nebel,4.7208,960.1400634000001,960.1405884000014,960.1406780000016,960.1557741000015,964.8881987000004,964.8726653000012,964.8756981000006,964.8881987000004,964.8881987000004,964.8881987000004,964.8881987000004,966.8883963000007,966.8883963000007,966.8883963000007,966.8883963000007,966.8731338000016,3,None,1.0259836000004725,0.19440629999917292,,,,,,,,,,,,,Guess_5579,25,male,1,2025-05-10_13h11.39.088,sm,2024.2.4,59.899644136060594,2025-05-10 13h12.04.125290 +0200,
19,0,19,,,,,,space,1.995089399999415,None,None,3,None,1.1854729000006046,0.18788039999890316,0,0,0,0,,,,,1,0,1,0,,,,,19,0,19,0,966.8883963000007,,,,,,,,,,,,,,,,,,,,,,,,,,,,,,,,,,,,,,,,,,,Chips,3.6564,966.8736222000007,966.8742719000002,966.8743770000001,966.8883963000007,970.5545784000005,970.5390478000008,970.5447849000011,970.5545784000005,970.5545784000005,970.5545784000005,970.5545784000005,972.5551012000014,972.5551012000014,972.5551012000014,972.5551012000014,972.5392617000016,3,None,1.1854729000006046,0.18788039999890316,,,,,,,,,,,,,Guess_5579,25,male,1,2025-05-10_13h11.39.088,sm,2024.2.4,59.899644136060594,2025-05-10 13h12.04.125290 +0200,
20,0,20,,,,,,space,1.995089399999415,None,None,2,None,1.1541699999997945,0.1801199000001361,0,0,0,0,,,,,1,0,1,0,,,,,20,0,20,0,972.5551012000014,,,,,,,,,,,,,,,,,,,,,,,,,,,,,,,,,,,,,,,,,,,Kellnerin,2.1697,972.5397551000005,972.5404105000016,972.5405149000017,972.5551012000014,974.7379850000016,974.7224245000016,974.7270366000012,974.7379850000016,974.7379850000016,974.7379850000016,974.7379850000016,976.7379468000017,976.7379468000017,976.7379468000017,976.7379468000017,976.7226409000014,2,None,1.1541699999997945,0.1801199000001361,,,,,,,,,,,,,Guess_5579,25,male,1,2025-05-10_13h11.39.088,sm,2024.2.4,59.899644136060594,2025-05-10 13h12.04.125290 +0200,
21,0,21,,,,,,space,1.995089399999415,None,None,3,None,1.3017345999996905,0.20446760000049835,0,0,0,0,,,,,1,0,1,0,,,,,21,0,21,0,976.7379468000017,,,,,,,,,,,,,,,,,,,,,,,,,,,,,,,,,,,,,,,,,,,Blätter,2.2129,976.7231440000014,976.7236584000002,976.7237638000006,976.7379468000017,978.9542259000009,978.9389386000003,978.9432947000005,978.9542259000009,978.9542259000009,978.9542259000009,978.9542259000009,980.9545395000005,980.9545395000005,980.9545395000005,980.9545395000005,980.9386891000013,3,None,1.3017345999996905,0.20446760000049835,,,,,,,,,,,,,Guess_5579,25,male,1,2025-05-10_13h11.39.088,sm,2024.2.4,59.899644136060594,2025-05-10 13h12.04.125290 +0200,
22,0,22,,,,,,space,1.995089399999415,None,None,2,None,0.676455700000588,0.1968468999984907,0,0,0,0,,,,,1,0,1,0,,,,,22,0,22,0,980.9545395000005,,,,,,,,,,,,,,,,,,,,,,,,,,,,,,,,,,,,,,,,,,,Koch,2.4137,980.9392034000011,980.9397036000009,980.9398086000001,980.9545395000005,983.3707941000011,983.3551166000016,983.3597920000011,983.3707941000011,983.3707941000011,983.3707941000011,983.3707941000011,985.3708071000001,985.3708071000001,985.3708071000001,985.3708071000001,985.3553545000013,2,None,0.676455700000588,0.1968468999984907,,,,,,,,,,,,,Guess_5579,25,male,1,2025-05-10_13h11.39.088,sm,2024.2.4,59.899644136060594,2025-05-10 13h12.04.125290 +0200,
23,0,23,,,,,,space,1.995089399999415,None,None,3,None,1.122944999999163,0.19616010000027018,0,0,0,0,,,,,1,0,1,0,,,,,23,0,23,0,985.3708071000001,,,,,,,,,,,,,,,,,,,,,,,,,,,,,,,,,,,,,,,,,,,Bücher,3.4445,985.3558453000005,985.3563724000014,985.3564798000007,985.3708071000001,988.8204899000011,988.8053311000003,988.8096645000005,988.8204899000011,988.8204899000011,988.8204899000011,988.8204899000011,990.8206534000001,990.8206534000001,990.8206534000001,990.8206534000001,990.8047160000006,3,None,1.122944999999163,0.19616010000027018,,,,,,,,,,,,,Guess_5579,25,male,1,2025-05-10_13h11.39.088,sm,2024.2.4,59.899644136060594,2025-05-10 13h12.04.125290 +0200,
24,0,24,,,,,,space,1.995089399999415,None,None,3,None,1.385937200000626,0.20412519999990764,0,0,0,0,,,,,1,0,1,0,,,,,24,0,24,0,990.8206534000001,,,,,,,,,,,,,,,,,,,,,,,,,,,,,,,,,,,,,,,,,,,Klinge,2.3843,990.8051591000003,990.8056310000011,990.8057236000004,990.8206534000001,993.2204429000012,993.204300200001,993.2076181000011,993.2204429000012,993.2204429000012,993.2204429000012,993.2204429000012,995.220403700001,995.220403700001,995.220403700001,995.220403700001,995.2048875,3,None,1.385937200000626,0.20412519999990764,,,,,,,,,,,,,Guess_5579,25,male,1,2025-05-10_13h11.39.088,sm,2024.2.4,59.899644136060594,2025-05-10 13h12.04.125290 +0200,
25,0,25,,,,,,space,1.995089399999415,None,None,None,None,,,0,0,0,0,,,,,1,0,1,0,,,,,25,0,25,0,995.220403700001,,,,,,,,,,,,,,,,,,,,,,,,,,,,,,,,,,,,,,,,,,,Theater,2.2639,995.2053819000012,995.2058927000016,995.2059969000002,995.220403700001,997.4867303999999,997.4710000000014,997.4749144000016,997.4867303999999,997.4867303999999,997.4867303999999,997.4867303999999,999.4864139000001,999.4864139000001,999.4864139000001,999.4864139000001,999.4710348000008,None,None,,,,,,,,,,,,,,,Guess_5579,25,male,1,2025-05-10_13h11.39.088,sm,2024.2.4,59.899644136060594,2025-05-10 13h12.04.125290 +0200,
26,0,26,,,,,,space,1.995089399999415,None,None,3,None,1.1594626999994944,0.21380189999945287,0,0,0,0,,,,,1,0,1,0,,,,,26,0,26,0,999.4864139000001,,,,,,,,,,,,,,,,,,,,,,,,,,,,,,,,,,,,,,,,,,,Weltraum,3.0127,999.4714944000007,999.4720528000016,999.4721597000007,999.4864139000001,1002.5029414,1002.4872539000007,1002.4915698000004,1002.5029414,1002.5029414,1002.5029414,1002.5029414,1004.5029143000011,1004.5029143000011,1004.5029143000011,1004.5029143000011,1004.4875157000006,3,None,1.1594626999994944,0.21380189999945287,,,,,,,,,,,,,Guess_5579,25,male,1,2025-05-10_13h11.39.088,sm,2024.2.4,59.899644136060594,2025-05-10 13h12.04.125290 +0200,
27,0,27,,,,,,space,1.995089399999415,None,None,3,None,1.82838989999982,None,0,0,0,0,,,,,1,0,1,0,,,,,27,0,27,0,1004.5029143000011,,,,,,,,,,,,,,,,,,,,,,,,,,,,,,,,,,,,,,,,,,,Poesie,2.7584,1004.4880128000004,1004.488526000001,1004.4886311000009,1004.5029143000011,1007.2691866000005,1007.2536874000016,1007.2570703000001,1007.2691866000005,1007.2691866000005,1007.2691866000005,1007.2691866000005,1009.2692694000016,1009.2692694000016,1009.2692694000016,1009.2692694000016,1009.2540091999999,3,None,1.82838989999982,None,,,,,,,,,,,,,Guess_5579,25,male,1,2025-05-10_13h11.39.088,sm,2024.2.4,59.899644136060594,2025-05-10 13h12.04.125290 +0200,
28,0,28,,,,,,space,1.995089399999415,None,None,3,None,1.7718640000002779,None,0,0,0,0,,,,,1,0,1,0,,,,,28,0,28,0,1009.2692694000016,,,,,,,,,,,,,,,,,,,,,,,,,,,,,,,,,,,,,,,,,,,Krieg,5.3655,1009.2545086000009,1009.2550584,1009.2551650000005,1009.2692694000016,1014.6355229000001,1014.6198348000016,1014.6231854000016,1014.6355229000001,1014.6355229000001,1014.6355229000001,1014.6355229000001,1016.6357401000005,1016.6357401000005,1016.6357401000005,1016.6357401000005,1016.6203363000004,3,None,1.7718640000002779,None,,,,,,,,,,,,,Guess_5579,25,male,1,2025-05-10_13h11.39.088,sm,2024.2.4,59.899644136060594,2025-05-10 13h12.04.125290 +0200,
29,0,29,,,,,,space,1.995089399999415,None,None,3,None,1.6770658000004914,0.21588259999953152,0,0,0,0,,,,,1,0,1,0,,,,,29,0,29,0,1016.6357401000005,,,,,,,,,,,,,,,,,,,,,,,,,,,,,,,,,,,,,,,,,,,Spitze,3.0547,1016.6208323999999,1016.6213489000002,1016.6214645,1016.6357401000005,1019.7021809000016,1019.6865940000007,1019.6910873000015,1019.7021809000016,1019.7021809000016,1019.7021809000016,1019.7021809000016,1021.7018693000009,1021.7018693000009,1021.7018693000009,1021.7018693000009,1021.6864188,3,None,1.6770658000004914,0.21588259999953152,,,,,,,,,,,,,Guess_5579,25,male,1,2025-05-10_13h11.39.088,sm,2024.2.4,59.899644136060594,2025-05-10 13h12.04.125290 +0200,
30,0,30,,,,,,space,1.995089399999415,None,None,3,None,1.1324294000005466,0.24827410000034433,0,0,0,0,,,,,1,0,1,0,,,,,30,0,30,0,1021.7018693000009,,,,,,,,,,,,,,,,,,,,,,,,,,,,,,,,,,,,,,,,,,,Gericht,2.3861,1021.686913900001,1021.6874318000009,1021.6875379000012,1021.7018693000009,1024.101747300001,1024.0861799000013,1024.0897389000002,1024.101747300001,1024.101747300001,1024.101747300001,1024.101747300001,1026.1016457000005,1026.1016457000005,1026.1016457000005,1026.1016457000005,1026.086295000001,3,None,1.1324294000005466,0.24827410000034433,,,,,,,,,,,,,Guess_5579,25,male,1,2025-05-10_13h11.39.088,sm,2024.2.4,59.899644136060594,2025-05-10 13h12.04.125290 +0200,
31,0,31,,,,,,space,1.995089399999415,None,None,2,None,0.9338099000015063,0.18323019999843382,0,0,0,0,,,,,1,0,1,0,,,,,31,0,31,0,1026.1016457000005,,,,,,,,,,,,,,,,,,,,,,,,,,,,,,,,,,,,,,,,,,,Gespräch,2.83,1026.086782100001,1026.0874270000004,1026.087531700001,1026.1016457000005,1028.9346573000003,1028.919329100001,1028.9233791000006,1028.9346573000003,1028.9346573000003,1028.9346573000003,1028.9346573000003,1030.9347208,1030.9347208,1030.9347208,1030.9347208,1030.9190443000007,2,None,0.9338099000015063,0.18323019999843382,,,,,,,,,,,,,Guess_5579,25,male,1,2025-05-10_13h11.39.088,sm,2024.2.4,59.899644136060594,2025-05-10 13h12.04.125290 +0200,
32,0,32,,,,,,space,1.995089399999415,None,None,3,None,1.5268957999996928,0.19551469999896653,0,0,0,0,,,,,1,0,1,0,,,,,32,0,32,0,1030.9347208,,,,,,,,,,,,,,,,,,,,,,,,,,,,,,,,,,,,,,,,,,,Asche,3.1264,1030.9195416000002,1030.9201809000006,1030.9202862000002,1030.9347208,1034.0678195,1034.0520679,1034.055534000001,1034.0678195,1034.0678195,1034.0678195,1034.0678195,1036.0677762000014,1036.0677762000014,1036.0677762000014,1036.0677762000014,1036.0526206000013,3,None,1.5268957999996928,0.19551469999896653,,,,,,,,,,,,,Guess_5579,25,male,1,2025-05-10_13h11.39.088,sm,2024.2.4,59.899644136060594,2025-05-10 13h12.04.125290 +0200,
33,0,33,,,,,,space,1.995089399999415,None,None,2,None,1.0752513999996154,0.18223539999962668,0,0,0,0,,,,,1,0,1,0,,,,,33,0,33,0,1036.0677762000014,,,,,,,,,,,,,,,,,,,,,,,,,,,,,,,,,,,,,,,,,,,Geburtstag,2.1413,1036.0531195000003,1036.0536311000014,1036.0537432,1036.0677762000014,1038.2176901000003,1038.201981600001,1038.2065437,1038.2176901000003,1038.2176901000003,1038.2176901000003,1038.2176901000003,1040.2176107000014,1040.2176107000014,1040.2176107000014,1040.2176107000014,1040.2020393000003,2,None,1.0752513999996154,0.18223539999962668,,,,,,,,,,,,,Guess_5579,25,male,1,2025-05-10_13h11.39.088,sm,2024.2.4,59.899644136060594,2025-05-10 13h12.04.125290 +0200,
34,0,34,,,,,,space,1.995089399999415,None,None,3,None,1.7134808000009798,0.23174329999892507,0,0,0,0,,,,,1,0,1,0,,,,,34,0,34,0,1040.2176107000014,,,,,,,,,,,,,,,,,,,,,,,,,,,,,,,,,,,,,,,,,,,Beugen,3.2825,1040.2025362000004,1040.2030466000015,1040.2031535000006,1040.2176107000014,1043.500459500001,1043.4850689000014,1043.4885523000012,1043.500459500001,1043.500459500001,1043.500459500001,1043.500459500001,1045.5004444000006,1045.5004444000006,1045.5004444000006,1045.5004444000006,1045.4849171000005,3,None,1.7134808000009798,0.23174329999892507,,,,,,,,,,,,,Guess_5579,25,male,1,2025-05-10_13h11.39.088,sm,2024.2.4,59.899644136060594,2025-05-10 13h12.04.125290 +0200,
35,0,35,,,,,,space,1.995089399999415,None,None,3,None,1.489606699999058,0.1839085999999952,0,0,0,0,,,,,1,0,1,0,,,,,35,0,35,0,1045.5004444000006,,,,,,,,,,,,,,,,,,,,,,,,,,,,,,,,,,,,,,,,,,,Conditioner,2.5377,1045.4853823000012,1045.485878900001,1045.4859785000008,1045.5004444000006,1048.0500503000003,1048.0347004000014,1048.0395191000007,1048.0500503000003,1048.0500503000003,1048.0500503000003,1048.0500503000003,1050.0504243000014,1050.0504243000014,1050.0504243000014,1050.0504243000014,1050.0347032000009,3,None,1.489606699999058,0.1839085999999952,,,,,,,,,,,,,Guess_5579,25,male,1,2025-05-10_13h11.39.088,sm,2024.2.4,59.899644136060594,2025-05-10 13h12.04.125290 +0200,
36,0,36,,,,,,space,1.995089399999415,None,None,3,None,0.9956989999991492,0.19747090000055323,0,0,0,0,,,,,1,0,1,0,,,,,36,0,36,0,1050.0504243000014,,,,,,,,,,,,,,,,,,,,,,,,,,,,,,,,,,,,,,,,,,,Schleim,2.0589,1050.0352112,1050.0357140000015,1050.0358206,1050.0504243000014,1052.1168014000013,1052.1011841,1052.1054304000008,1052.1168014000013,1052.1168014000013,1052.1168014000013,1052.1168014000013,1054.1168538000002,1054.1168538000002,1054.1168538000002,1054.1168538000002,1054.101147700001,3,None,0.9956989999991492,0.19747090000055323,,,,,,,,,,,,,Guess_5579,25,male,1,2025-05-10_13h11.39.088,sm,2024.2.4,59.899644136060594,2025-05-10 13h12.04.125290 +0200,
37,0,37,,,,,,space,1.995089399999415,None,None,2,None,1.329057400000238,0.1677005999990797,0,0,0,0,,,,,1,0,1,0,,,,,37,0,37,0,1054.1168538000002,,,,,,,,,,,,,,,,,,,,,,,,,,,,,,,,,,,,,,,,,,,Kunst,2.1831,1054.1016424000009,1054.1021554000017,1054.102261600001,1054.1168538000002,1056.2994935000006,1056.2845502,1056.2878958000001,1056.2994935000006,1056.2994935000006,1056.2994935000006,1056.2994935000006,1058.2998420000004,1058.2998420000004,1058.2998420000004,1058.2998420000004,1058.2845064000012,2,None,1.329057400000238,0.1677005999990797,,,,,,,,,,,,,Guess_5579,25,male,1,2025-05-10_13h11.39.088,sm,2024.2.4,59.899644136060594,2025-05-10 13h12.04.125290 +0200,
38,0,38,,,,,,space,1.995089399999415,None,None,2,None,1.5145721000008052,0.18153650000022026,0,0,0,0,,,,,1,0,1,0,,,,,38,0,38,0,1058.2998420000004,,,,,,,,,,,,,,,,,,,,,,,,,,,,,,,,,,,,,,,,,,,Garten,2.1961,1058.2850012000017,1058.2855237000003,1058.2856288000003,1058.2998420000004,1060.4996907000004,1060.4843351,1060.488399400001,1060.4996907000004,1060.4996907000004,1060.4996907000004,1060.4996907000004,1062.4996462000017,1062.4996462000017,1062.4996462000017,1062.4996462000017,1062.4841784,2,None,1.5145721000008052,0.18153650000022026,,,,,,,,,,,,,Guess_5579,25,male,1,2025-05-10_13h11.39.088,sm,2024.2.4,59.899644136060594,2025-05-10 13h12.04.125290 +0200,
39,0,39,,,,,,space,1.995089399999415,None,None,3,None,1.3951858000000357,0.20185969999874942,0,0,0,0,,,,,1,0,1,0,,,,,39,0,39,0,1062.4996462000017,,,,,,,,,,,,,,,,,,,,,,,,,,,,,,,,,,,,,,,,,,,Golf,3.6005,1062.4846829000016,1062.4853261000007,1062.4854345000003,1062.4996462000017,1066.0992821,1066.0841561000016,1066.0878849,1066.0992821,1066.0992821,1066.0992821,1066.0992821,1068.0994371000015,1068.0994371000015,1068.0994371000015,1068.0994371000015,1068.0837524000017,3,None,1.3951858000000357,0.20185969999874942,,,,,,,,,,,,,Guess_5579,25,male,1,2025-05-10_13h11.39.088,sm,2024.2.4,59.899644136060594,2025-05-10 13h12.04.125290 +0200,
40,0,40,,,,,,space,1.995089399999415,None,None,2,None,0.9690706000001228,0.17157980000047246,0,0,0,0,,,,,1,0,1,0,,,,,40,0,40,0,1068.0994371000015,,,,,,,,,,,,,,,,,,,,,,,,,,,,,,,,,,,,,,,,,,,Atem,2.9109,1068.0842460000003,1068.0847767000014,1068.0848805000005,1068.0994371000015,1071.0154002,1071.0001471000014,1071.003307500001,1071.0154002,1071.0154002,1071.0154002,1071.0154002,1073.0155171000006,1073.0155171000006,1073.0155171000006,1073.0155171000006,1073.000051000001,2,None,0.9690706000001228,0.17157980000047246,,,,,,,,,,,,,Guess_5579,25,male,1,2025-05-10_13h11.39.088,sm,2024.2.4,59.899644136060594,2025-05-10 13h12.04.125290 +0200,
41,0,41,,,,,,space,1.995089399999415,None,None,3,None,1.4143276999984664,0.19574620000094,0,0,0,0,,,,,1,0,1,0,,,,,41,0,41,0,1073.0155171000006,,,,,,,,,,,,,,,,,,,,,,,,,,,,,,,,,,,,,,,,,,,Wohnung,2.3599,1073.0005450000008,1073.0011228000003,1073.0012295000015,1073.0155171000006,1075.3821492000006,1075.3664596000017,1075.3702578000011,1075.3821492000006,1075.3821492000006,1075.3821492000006,1075.3821492000006,1077.3821486000015,1077.3821486000015,1077.3821486000015,1077.3821486000015,1077.3664273000013,3,None,1.4143276999984664,0.19574620000094,,,,,,,,,,,,,Guess_5579,25,male,1,2025-05-10_13h11.39.088,sm,2024.2.4,59.899644136060594,2025-05-10 13h12.04.125290 +0200,
42,0,42,,,,,,space,1.995089399999415,None,None,3,None,1.210476899999776,0.18715789999987464,0,0,0,0,,,,,1,0,1,0,,,,,42,0,42,0,1077.3821486000015,,,,,,,,,,,,,,,,,,,,,,,,,,,,,,,,,,,,,,,,,,,Postkarte,2.5982,1077.3669262000003,1077.3675691000008,1077.3676754000007,1077.3821486000015,1079.981790400001,1079.9661609000013,1079.9725691000003,1079.981790400001,1079.981790400001,1079.981790400001,1079.981790400001,1081.9817992000008,1081.9817992000008,1081.9817992000008,1081.9817992000008,1081.966215800001,3,None,1.210476899999776,0.18715789999987464,,,,,,,,,,,,,Guess_5579,25,male,1,2025-05-10_13h11.39.088,sm,2024.2.4,59.899644136060594,2025-05-10 13h12.04.125290 +0200,
43,0,43,,,,,,space,1.995089399999415,None,None,2,None,1.041102500001216,0.18486359999951674,0,0,0,0,,,,,1,0,1,0,,,,,43,0,43,0,1081.9817992000008,,,,,,,,,,,,,,,,,,,,,,,,,,,,,,,,,,,,,,,,,,,Schwester,4.3942,1081.9667140000001,1081.967362700001,1081.9674683000012,1081.9817992000008,1086.3811709000001,1086.3656263000012,1086.3696415000013,1086.3811709000001,1086.3811709000001,1086.3811709000001,1086.3811709000001,1088.3812943000012,1088.3812943000012,1088.3812943000012,1088.3812943000012,1088.3659167000005,2,None,1.041102500001216,0.18486359999951674,,,,,,,,,,,,,Guess_5579,25,male,1,2025-05-10_13h11.39.088,sm,2024.2.4,59.899644136060594,2025-05-10 13h12.04.125290 +0200,
44,0,44,,,,,,space,1.995089399999415,None,None,3,None,1.232059500000105,0.19942059999993944,0,0,0,0,,,,,1,0,1,0,,,,,44,0,44,0,1088.3812943000012,,,,,,,,,,,,,,,,,,,,,,,,,,,,,,,,,,,,,,,,,,,Dunkelheit,2.3419,1088.3664267000004,1088.3669446000004,1088.3670500000007,1088.3812943000012,1090.7311471000012,1090.7155984,1090.7200921000003,1090.7311471000012,1090.7311471000012,1090.7311471000012,1090.7311471000012,1092.731139200001,1092.731139200001,1092.731139200001,1092.731139200001,1092.7155135000012,3,None,1.232059500000105,0.19942059999993944,,,,,,,,,,,,,Guess_5579,25,male,1,2025-05-10_13h11.39.088,sm,2024.2.4,59.899644136060594,2025-05-10 13h12.04.125290 +0200,
45,0,45,,,,,,space,1.995089399999415,None,None,3,None,1.19240180000088,0.2411219000005076,0,0,0,0,,,,,1,0,1,0,,,,,45,0,45,0,1092.731139200001,,,,,,,,,,,,,,,,,,,,,,,,,,,,,,,,,,,,,,,,,,,Büro,4.5959,1092.7160057,1092.7165736000006,1092.7166781000014,1092.731139200001,1097.3308980000002,1097.3151942000004,1097.3186905000002,1097.3308980000002,1097.3308980000002,1097.3308980000002,1097.3308980000002,1099.3308055000016,1099.3308055000016,1099.3308055000016,1099.3308055000016,1099.3151303000013,3,None,1.19240180000088,0.2411219000005076,,,,,,,,,,,,,Guess_5579,25,male,1,2025-05-10_13h11.39.088,sm,2024.2.4,59.899644136060594,2025-05-10 13h12.04.125290 +0200,
46,0,46,,,,,,space,1.995089399999415,None,None,3,None,0.9397870000011608,0.1832998999998381,0,0,0,0,,,,,1,0,1,0,,,,,46,0,46,0,1099.3308055000016,,,,,,,,,,,,,,,,,,,,,,,,,,,,,,,,,,,,,,,,,,,Gel,3.039,1099.3155948000003,1099.3160907000001,1099.3161941000017,1099.3308055000016,1102.3805586000017,1102.3650869000012,1102.3685253000003,1102.3805586000017,1102.3805586000017,1102.3805586000017,1102.3805586000017,1104.3804647000015,1104.3804647000015,1104.3804647000015,1104.3804647000015,1104.3648452000016,3,None,0.9397870000011608,0.1832998999998381,,,,,,,,,,,,,Guess_5579,25,male,1,2025-05-10_13h11.39.088,sm,2024.2.4,59.899644136060594,2025-05-10 13h12.04.125290 +0200,
47,0,47,,,,,,space,1.995089399999415,None,None,3,None,1.2847170999993978,0.2126354000010906,0,0,0,0,,,,,1,0,1,0,,,,,47,0,47,0,1104.3804647000015,,,,,,,,,,,,,,,,,,,,,,,,,,,,,,,,,,,,,,,,,,,Zapfen,2.4916,1104.3653538000017,1104.3660048000002,1104.3661146000013,1104.3804647000015,1106.8799888000012,1106.8646962000003,1106.8683575000014,1106.8799888000012,1106.8799888000012,1106.8799888000012,1106.8799888000012,1108.8801969000015,1108.8801969000015,1108.8801969000015,1108.8801969000015,1108.8648854000003,3,None,1.2847170999993978,0.2126354000010906,,,,,,,,,,,,,Guess_5579,25,male,1,2025-05-10_13h11.39.088,sm,2024.2.4,59.899644136060594,2025-05-10 13h12.04.125290 +0200,
48,0,48,,,,,,space,1.995089399999415,None,None,3,None,1.3278740999994625,0.22993230000065523,0,0,0,0,,,,,1,0,1,0,,,,,48,0,48,0,1108.8801969000015,,,,,,,,,,,,,,,,,,,,,,,,,,,,,,,,,,,,,,,,,,,Decke,2.9036,1108.8653805000013,1108.8659659000004,1108.8660707000017,1108.8801969000015,1111.7964606000005,1111.7808478000006,1111.7842191,1111.7964606000005,1111.7964606000005,1111.7964606000005,1111.7964606000005,1113.7964171000003,1113.7964171000003,1113.7964171000003,1113.7964171000003,1113.7810197000017,3,None,1.3278740999994625,0.22993230000065523,,,,,,,,,,,,,Guess_5579,25,male,1,2025-05-10_13h11.39.088,sm,2024.2.4,59.899644136060594,2025-05-10 13h12.04.125290 +0200,
49,0,49,,,,,,space,1.995089399999415,None,None,3,None,1.50399649999963,0.20941639999909967,0,0,0,0,,,,,1,0,1,0,,,,,49,0,49,0,1113.7964171000003,,,,,,,,,,,,,,,,,,,,,,,,,,,,,,,,,,,,,,,,,,,Tasche,4.0852,1113.7815114000005,1113.7820589000003,1113.7821652000002,1113.7964171000003,1117.896148400001,1117.8805193000007,1117.8846911,1117.896148400001,1117.896148400001,1117.896148400001,1117.896148400001,1119.8966305000013,1119.8966305000013,1119.8966305000013,1119.8966305000013,1119.8806912,3,None,1.50399649999963,0.20941639999909967,,,,,,,,,,,,,Guess_5579,25,male,1,2025-05-10_13h11.39.088,sm,2024.2.4,59.899644136060594,2025-05-10 13h12.04.125290 +0200,
50,0,50,,,,,,space,1.995089399999415,None,None,None,None,,,0,0,0,0,,,,,1,0,1,0,,,,,50,0,50,0,1119.8966305000013,,,,,,,,,,,,,,,,,,,,,,,,,,,,,,,,,,,,,,,,,,,Album,2.3916,1119.8811829000006,1119.881768000001,1119.8818735000004,1119.8966305000013,1122.2960035000015,1122.2804036000016,1122.2845407000004,1122.2960035000015,1122.2960035000015,1122.2960035000015,1122.2960035000015,1124.2960402000008,1124.2960402000008,1124.2960402000008,1124.2960402000008,1124.280574800001,None,None,,,,,,,,,,,,,,,Guess_5579,25,male,1,2025-05-10_13h11.39.088,sm,2024.2.4,59.899644136060594,2025-05-10 13h12.04.125290 +0200,
51,0,51,,,,,,space,1.995089399999415,None,None,2,None,1.6766711000000214,0.16448270000000775,0,0,0,0,,,,,1,0,1,0,,,,,51,0,51,0,1124.2960402000008,,,,,,,,,,,,,,,,,,,,,,,,,,,,,,,,,,,,,,,,,,,Gegenwart,4.4767,1124.2810439000004,1124.2815536000016,1124.2816597,1124.2960402000008,1128.778962100001,1128.7633730000016,1128.7677859000014,1128.778962100001,1128.778962100001,1128.778962100001,1128.778962100001,1130.7788986000014,1130.7788986000014,1130.7788986000014,1130.7788986000014,1130.763290500001,2,None,1.6766711000000214,0.16448270000000775,,,,,,,,,,,,,Guess_5579,25,male,1,2025-05-10_13h11.39.088,sm,2024.2.4,59.899644136060594,2025-05-10 13h12.04.125290 +0200,
52,0,52,,,,,,space,1.995089399999415,None,None,3,None,1.2977497000010771,0.19293049999942014,0,0,0,0,,,,,1,0,1,0,,,,,52,0,52,0,1130.7788986000014,,,,,,,,,,,,,,,,,,,,,,,,,,,,,,,,,,,,,,,,,,,Glück,3.6297,1130.7637812000012,1130.7644376000007,1130.764543700001,1130.7788986000014,1134.4124869000007,1134.3967310000007,1134.4011049,1134.4124869000007,1134.4124869000007,1134.4124869000007,1134.4124869000007,1136.4119533000012,1136.4119533000012,1136.4119533000012,1136.4119533000012,1136.3961529000007,3,None,1.2977497000010771,0.19293049999942014,,,,,,,,,,,,,Guess_5579,25,male,1,2025-05-10_13h11.39.088,sm,2024.2.4,59.899644136060594,2025-05-10 13h12.04.125290 +0200,
53,0,53,,,,,,space,1.995089399999415,None,None,3,None,1.790570299999672,None,0,0,0,0,,,,,1,0,1,0,,,,,53,0,53,0,1136.4119533000012,,,,,,,,,,,,,,,,,,,,,,,,,,,,,,,,,,,,,,,,,,,Monument,2.2385,1136.3965923000014,1136.3970757000006,1136.3971712000002,1136.4119533000012,1138.6618159000009,1138.6463143,1138.6503604000009,1138.6618159000009,1138.6618159000009,1138.6618159000009,1138.6618159000009,1140.6619529,1140.6619529,1140.6619529,1140.6619529,1140.6464068000005,3,None,1.790570299999672,None,,,,,,,,,,,,,Guess_5579,25,male,1,2025-05-10_13h11.39.088,sm,2024.2.4,59.899644136060594,2025-05-10 13h12.04.125290 +0200,
54,0,54,,,,,,space,1.995089399999415,None,None,2,None,0.9057369000001927,0.1945878000005905,0,0,0,0,,,,,1,0,1,0,,,,,54,0,54,0,1140.6619529,,,,,,,,,,,,,,,,,,,,,,,,,,,,,,,,,,,,,,,,,,,Rasen,2.5169,1140.6468951000006,1140.6475479,1140.647654100001,1140.6619529,1143.1780770000005,1143.1627008000014,1143.1663750000007,1143.1780770000005,1143.1780770000005,1143.1780770000005,1143.1780770000005,1145.1780737000008,1145.1780737000008,1145.1780737000008,1145.1780737000008,1145.1626526,2,None,0.9057369000001927,0.1945878000005905,,,,,,,,,,,,,Guess_5579,25,male,1,2025-05-10_13h11.39.088,sm,2024.2.4,59.899644136060594,2025-05-10 13h12.04.125290 +0200,
55,0,55,,,,,,space,1.995089399999415,None,None,2,None,1.0342392000002292,0.18389059999935853,0,0,0,0,,,,,1,0,1,0,,,,,55,0,55,0,1145.1780737000008,,,,,,,,,,,,,,,,,,,,,,,,,,,,,,,,,,,,,,,,,,,Besucher,2.9443,1145.1631420000012,1145.1637895000003,1145.1638964000012,1145.1780737000008,1148.1278931000015,1148.1121698000006,1148.1159216000015,1148.1278931000015,1148.1278931000015,1148.1278931000015,1148.1278931000015,1150.1280142000014,1150.1280142000014,1150.1280142000014,1150.1280142000014,1150.112130200001,2,None,1.0342392000002292,0.18389059999935853,,,,,,,,,,,,,Guess_5579,25,male,1,2025-05-10_13h11.39.088,sm,2024.2.4,59.899644136060594,2025-05-10 13h12.04.125290 +0200,
56,0,56,,,,,,space,1.995089399999415,None,None,3,None,0.9404684000000998,0.1944375000002765,0,0,0,0,,,,,1,0,1,0,,,,,56,0,56,0,1150.1280142000014,,,,,,,,,,,,,,,,,,,,,,,,,,,,,,,,,,,,,,,,,,,Seil,4.4429,1150.1125890000003,1150.1132165000017,1150.1133169000004,1150.1280142000014,1154.577505700001,1154.561930400001,1154.566384400001,1154.577505700001,1154.577505700001,1154.577505700001,1154.577505700001,1156.5780013000003,1156.5780013000003,1156.5780013000003,1156.5780013000003,1156.5620550000003,3,None,0.9404684000000998,0.1944375000002765,,,,,,,,,,,,,Guess_5579,25,male,1,2025-05-10_13h11.39.088,sm,2024.2.4,59.899644136060594,2025-05-10 13h12.04.125290 +0200,
57,0,57,,,,,,space,1.995089399999415,None,None,3,None,1.3011304999999993,0.17567109999981767,0,0,0,0,,,,,1,0,1,0,,,,,57,0,57,0,1156.5780013000003,,,,,,,,,,,,,,,,,,,,,,,,,,,,,,,,,,,,,,,,,,,Fakt,2.6097,1156.5625481000006,1156.5630781,1156.5631845000007,1156.5780013000003,1159.1937820000003,1159.1783272000011,1159.1821470000014,1159.1937820000003,1159.1937820000003,1159.1937820000003,1159.1937820000003,1161.193771100001,1161.193771100001,1161.193771100001,1161.193771100001,1161.1782792000013,3,None,1.3011304999999993,0.17567109999981767,,,,,,,,,,,,,Guess_5579,25,male,1,2025-05-10_13h11.39.088,sm,2024.2.4,59.899644136060594,2025-05-10 13h12.04.125290 +0200,
58,0,58,,,,,,space,1.995089399999415,None,None,2,None,1.4599457000003895,0.16410499999983585,0,0,0,0,,,,,1,0,1,0,,,,,58,0,58,0,1161.193771100001,,,,,,,,,,,,,,,,,,,,,,,,,,,,,,,,,,,,,,,,,,,Scheidung,2.6312,1161.1787803000007,1161.1792933000015,1161.1793992000003,1161.193771100001,1163.8273143000006,1163.8113849000001,1163.8157685000006,1163.8273143000006,1163.8273143000006,1163.8273143000006,1163.8273143000006,1165.827043700001,1165.827043700001,1165.827043700001,1165.827043700001,1165.8112853000002,2,None,1.4599457000003895,0.16410499999983585,,,,,,,,,,,,,Guess_5579,25,male,1,2025-05-10_13h11.39.088,sm,2024.2.4,59.899644136060594,2025-05-10 13h12.04.125290 +0200,
59,0,59,,,,,,space,1.995089399999415,None,None,3,None,1.9138132000007317,None,0,0,0,0,,,,,1,0,1,0,,,,,59,0,59,0,1165.827043700001,,,,,,,,,,,,,,,,,,,,,,,,,,,,,,,,,,,,,,,,,,,Gleis,2.3006,1165.8117761000012,1165.8123293000008,1165.8124328000013,1165.827043700001,1168.1267001000015,1168.1114745000013,1168.1155235000006,1168.1267001000015,1168.1267001000015,1168.1267001000015,1168.1267001000015,1170.1267251000008,1170.1267251000008,1170.1267251000008,1170.1267251000008,1170.1113833,3,None,1.9138132000007317,None,,,,,,,,,,,,,Guess_5579,25,male,1,2025-05-10_13h11.39.088,sm,2024.2.4,59.899644136060594,2025-05-10 13h12.04.125290 +0200,
60,0,60,,,,,,space,1.995089399999415,None,None,2,None,1.2967005999998946,0.17752530000143452,0,0,0,0,,,,,1,0,1,0,,,,,60,0,60,0,1170.1267251000008,,,,,,,,,,,,,,,,,,,,,,,,,,,,,,,,,,,,,,,,,,,Reise,2.9645,1170.1118915000006,1170.1124450000007,1170.1125522000002,1170.1267251000008,1173.0928745,1173.0772236000012,1173.080563200001,1173.0928745,1173.0928745,1173.0928745,1173.0928745,1175.0929884000016,1175.0929884000016,1175.0929884000016,1175.0929884000016,1175.0778015000014,2,None,1.2967005999998946,0.17752530000143452,,,,,,,,,,,,,Guess_5579,25,male,1,2025-05-10_13h11.39.088,sm,2024.2.4,59.899644136060594,2025-05-10 13h12.04.125290 +0200,
61,0,61,,,,,,space,1.995089399999415,None,None,2,None,1.3913542999998754,0.17471429999932298,0,0,0,0,,,,,1,0,1,0,,,,,61,0,61,0,1175.0929884000016,,,,,,,,,,,,,,,,,,,,,,,,,,,,,,,,,,,,,,,,,,,Dschungel,4.3424,1175.0782908,1175.0790812000014,1175.0791887000014,1175.0929884000016,1179.4426271000011,1179.4273834000014,1179.4313496000013,1179.4426271000011,1179.4426271000011,1179.4426271000011,1179.4426271000011,1181.4425948000007,1181.4425948000007,1181.4425948000007,1181.4425948000007,1181.4275426000004,2,None,1.3913542999998754,0.17471429999932298,,,,,,,,,,,,,Guess_5579,25,male,1,2025-05-10_13h11.39.088,sm,2024.2.4,59.899644136060594,2025-05-10 13h12.04.125290 +0200,
62,0,62,,,,,,space,1.995089399999415,None,None,3,None,1.1241711999991821,0.19134549999944284,0,0,0,0,,,,,1,0,1,0,,,,,62,0,62,0,1181.4425948000007,,,,,,,,,,,,,,,,,,,,,,,,,,,,,,,,,,,,,,,,,,,Nacht,3.8592,1181.428036700001,1181.4285474000008,1181.4286527000004,1181.4425948000007,1185.3089796000004,1185.2933968000016,1185.2982256000014,1185.3089796000004,1185.3089796000004,1185.3089796000004,1185.3089796000004,1187.3089537000014,1187.3089537000014,1187.3089537000014,1187.3089537000014,1187.2933704000006,3,None,1.1241711999991821,0.19134549999944284,,,,,,,,,,,,,Guess_5579,25,male,1,2025-05-10_13h11.39.088,sm,2024.2.4,59.899644136060594,2025-05-10 13h12.04.125290 +0200,
63,0,63,,,,,,space,1.995089399999415,None,None,2,None,1.213137700000516,0.18907819999913045,0,0,0,0,,,,,1,0,1,0,,,,,63,0,63,0,1187.3089537000014,,,,,,,,,,,,,,,,,,,,,,,,,,,,,,,,,,,,,,,,,,,Sitzgurt,2.9832,1187.2938631000015,1187.2944030000017,1187.2945122,1187.3089537000014,1190.2921965000005,1190.2765033000014,1190.280641700001,1190.2921965000005,1190.2921965000005,1190.2921965000005,1190.2921965000005,1192.2919122000003,1192.2919122000003,1192.2919122000003,1192.2919122000003,1192.2764238,2,None,1.213137700000516,0.18907819999913045,,,,,,,,,,,,,Guess_5579,25,male,1,2025-05-10_13h11.39.088,sm,2024.2.4,59.899644136060594,2025-05-10 13h12.04.125290 +0200,
64,0,64,,,,,,space,1.995089399999415,None,None,2,None,1.9110782999996445,None,0,0,0,0,,,,,1,0,1,0,,,,,64,0,64,0,1192.2919122000003,,,,,,,,,,,,,,,,,,,,,,,,,,,,,,,,,,,,,,,,,,,Konzert,2.1949,1192.2769181000003,1192.277558400001,1192.2776641,1192.2919122000003,1194.4919531000014,1194.4766121000011,1194.4804667000008,1194.4919531000014,1194.4919531000014,1194.4919531000014,1194.4919531000014,1196.4919054000002,1196.4919054000002,1196.4919054000002,1196.4919054000002,1196.4762243000005,2,None,1.9110782999996445,None,,,,,,,,,,,,,Guess_5579,25,male,1,2025-05-10_13h11.39.088,sm,2024.2.4,59.899644136060594,2025-05-10 13h12.04.125290 +0200,
65,0,65,,,,,,space,1.995089399999415,None,None,3,None,1.3166432999987592,0.1649596000006568,0,0,0,0,,,,,1,0,1,0,,,,,65,0,65,0,1196.4919054000002,,,,,,,,,,,,,,,,,,,,,,,,,,,,,,,,,,,,,,,,,,,Station,2.0842,1196.4767186000008,1196.4773038000003,1196.4774122000017,1196.4919054000002,1198.5915663000014,1198.5760352000016,1198.5800980000004,1198.5915663000014,1198.5915663000014,1198.5915663000014,1198.5915663000014,1200.5914912000007,1200.5914912000007,1200.5914912000007,1200.5914912000007,1200.5762468000012,3,None,1.3166432999987592,0.1649596000006568,,,,,,,,,,,,,Guess_5579,25,male,1,2025-05-10_13h11.39.088,sm,2024.2.4,59.899644136060594,2025-05-10 13h12.04.125290 +0200,
66,0,66,,,,,,space,1.995089399999415,None,None,3,None,1.07789910000065,0.18584960000043793,0,0,0,0,,,,,1,0,1,0,,,,,66,0,66,0,1200.5914912000007,,,,,,,,,,,,,,,,,,,,,,,,,,,,,,,,,,,,,,,,,,,Butter,2.8516,1200.576744,1200.5774891,1200.577596000001,1200.5914912000007,1203.4579366000016,1203.4423845000001,1203.4466114000006,1203.4579366000016,1203.4579366000016,1203.4579366000016,1203.4579366000016,1205.4579851000017,1205.4579851000017,1205.4579851000017,1205.4579851000017,1205.4425761000002,3,None,1.07789910000065,0.18584960000043793,,,,,,,,,,,,,Guess_5579,25,male,1,2025-05-10_13h11.39.088,sm,2024.2.4,59.899644136060594,2025-05-10 13h12.04.125290 +0200,
