thisN,thisTrialN,thisRepN,Cue,Target,Mediator1,Mediator2,iti,scanner_ready_press.keys,scanner_ready_press.rt,scanner_ready_press.duration,skip_trigger.keys,living_nonliving.keys,end_mapping.keys,living_nonliving.rt,living_nonliving.duration,blocks.thisRepN,blocks.thisTrialN,blocks.thisN,blocks.thisIndex,load_and_shuffle.thisRepN,load_and_shuffle.thisTrialN,load_and_shuffle.thisN,load_and_shuffle.thisIndex,runs.thisRepN,runs.thisTrialN,runs.thisN,runs.thisIndex,iti_loading_loop.thisRepN,iti_loading_loop.thisTrialN,iti_loading_loop.thisN,iti_loading_loop.thisIndex,semantic_mapping_run.thisRepN,semantic_mapping_run.thisTrialN,semantic_mapping_run.thisN,semantic_mapping_run.thisIndex,thisRow.t,notes,welcome.started,welcome_text.started,welcome_text.stopped,welcome.stopped,instructions_semantic_mapping1.started,sm_instructions1_text.started,sm_instructions1_key.started,instructions_semantic_mapping1.stopped,sm_instructions1_key.keys,sm_instructions1_key.rt,sm_instructions1_key.duration,instructions_semantic_mapping2.started,sm_instructions2_text.started,sm_instructions2_key.started,instructions_semantic_mapping2.stopped,sm_instructions2_key.keys,sm_instructions2_key.rt,sm_instructions2_key.duration,reset_run.started,reset_run.stopped,shuffle_items.started,shuffle_items.stopped,set_up_runs.started,set_up_runs.stopped,load_iti.started,load_iti.stopped,prep_scanner.started,scanner_ready_press.started,ready_set_text.started,prep_scanner.stopped,runs.scanner_ready_press.keys,runs.scanner_ready_press.rt,runs.scanner_ready_press.duration,wait_for_trigger.started,starting_soon.started,skip_trigger.started,wait_for_trigger.stopped,runs.skip_trigger.keys,blank.started,blank_cross.started,blank.stopped,CurrentItem,CurrentITI,set_up_trial.started,set_up_trial.stopped,sm_iti.started,iti_cross.started,iti_cross.stopped,sm_iti.stopped,item.started,living_nonliving.started,end_mapping.started,living_nonliving_text.started,semantic_map_item.started,living_nonliving.stopped,end_mapping.stopped,living_nonliving_text.stopped,semantic_map_item.stopped,item.stopped,semantic_mapping_run.living_nonliving.keys,semantic_mapping_run.end_mapping.keys,semantic_mapping_run.living_nonliving.rt,semantic_mapping_run.living_nonliving.duration,task_break.started,task_break_text.started,task_break_resp.started,task_break.stopped,runs.task_break_resp.keys,runs.task_break_resp.rt,runs.task_break_resp.duration,blank_cross.stopped,thanks.started,thanks_text.started,thanks_text.stopped,thanks.stopped,PID,Alter,Geschlecht (optional),MRI,date,expName,psychopyVersion,frameRate,expStart,
,,,,,,,,,,,,,,,,,,,,,,,,,,,,,,,,,,,,,,0.0032785000003059395,0.013265900000078545,3.013988900000186,2.9983229999998002,,,,,,,,,,,,,,,,,,,,,,,,,,,,,,,,,,,,,,,,,,,,,,,,,,,,,,,,,,,,,,,,,,,,,,,,Guess_3415,20,female,1,2025-05-07_19h02.04.177,sm,2024.2.4,59.99991600024196,2025-05-07 19h02.24.937421 +0200,
,,,,,,,,,,,,,,,,,,,,,,,,,,,,,,,,,,,,,,,,,,2.9984143000001495,3.013988900000186,3.013988900000186,7.336570499999652,2,4.305895399999827,None,,,,,,,,,,,,,,,,,,,,,,,,,,,,,,,,,,,,,,,,,,,,,,,,,,,,,,,,,,,,,,,,,Guess_3415,20,female,1,2025-05-07_19h02.04.177,sm,2024.2.4,59.99991600024196,2025-05-07 19h02.24.937421 +0200,
,,,,,,,,,,,,,,,,,,,,,,,,,,,,,,,,,,,,,,,,,,,,,,,,,7.336706699999922,7.347240299999612,7.347240299999612,19.348779599999943,2,11.98253129999921,None,,,,,,,,,,,,,,,,,,,,,,,,,,,,,,,,,,,,,,,,,,,,,,,,,,,,,,,,,,Guess_3415,20,female,1,2025-05-07_19h02.04.177,sm,2024.2.4,59.99991600024196,2025-05-07 19h02.24.937421 +0200,
0,0,0,Frieden,Harmonie,Liebe,Krieg,2.9109,space,475.2156963000007,None,None,None,None,,,0,0,0,0,0,59,59,1,0,0,0,0,0,79,79,6,0,0,0,0,519.3011071999999,,,,,,,,,,,,,,,,,,,,19.34958809999989,19.350366300000132,19.401608099999976,19.40181080000002,19.405996100000266,19.406335599999693,19.43298010000035,19.433136999999988,19.439276500000233,19.444100400000025,19.444100400000025,494.66920759999994,space,475.2156963000007,None,494.66940590000013,494.6858997999998,494.6858997999998,507.2702148999997,None,507.2774215999998,507.28590189999977,519.2849284000004,Ausflug,2.9109,519.2864250000002,519.2872761999997,519.2905882000005,519.3011071999999,522.2170255999999,522.2020308000001,522.2067737999996,522.2170255999999,522.2170255999999,522.2170255999999,522.2170255999999,524.2176333999996,524.2176333999996,524.2176333999996,524.2176333999996,524.2018644999998,None,None,,,,,,,,,,,,,,,Guess_3415,20,female,1,2025-05-07_19h02.04.177,sm,2024.2.4,59.99991600024196,2025-05-07 19h02.24.937421 +0200,
1,0,1,,,,,,space,475.2156963000007,None,None,None,None,,,0,0,0,0,,,,,0,0,0,0,,,,,1,0,1,0,524.2176333999996,,,,,,,,,,,,,,,,,,,,,,,,,,,,,,,,,,,,,,,,,,,Komödie,2.4167,524.2023680000002,524.2029292999996,524.2030347,524.2176333999996,526.6343653000004,526.6183854999999,526.6247065999996,526.6343653000004,526.6343653000004,526.6343653000004,526.6343653000004,528.6338249,528.6338249,528.6338249,528.6338249,528.6186703000003,None,None,,,,,,,,,,,,,,,Guess_3415,20,female,1,2025-05-07_19h02.04.177,sm,2024.2.4,59.99991600024196,2025-05-07 19h02.24.937421 +0200,
2,0,2,,,,,,space,475.2156963000007,None,None,None,None,,,0,0,0,0,,,,,0,0,0,0,,,,,2,0,2,0,528.6338249,,,,,,,,,,,,,,,,,,,,,,,,,,,,,,,,,,,,,,,,,,,Blumen,2.3599,528.6191318000001,528.6196436,528.6197502000005,528.6338249,531.0001900999996,530.9849162,530.9889731000003,531.0001900999996,531.0001900999996,531.0001900999996,531.0001900999996,533.0007837000003,533.0007837000003,533.0007837000003,533.0007837000003,532.9847264999999,None,None,,,,,,,,,,,,,,,Guess_3415,20,female,1,2025-05-07_19h02.04.177,sm,2024.2.4,59.99991600024196,2025-05-07 19h02.24.937421 +0200,
3,0,3,,,,,,space,475.2156963000007,None,None,None,None,,,0,0,0,0,,,,,0,0,0,0,,,,,3,0,3,0,533.0007837000003,,,,,,,,,,,,,,,,,,,,,,,,,,,,,,,,,,,,,,,,,,,Soße,2.9645,532.9851866999998,532.9857696999998,532.9858753999997,533.0007837000003,535.9667626999999,535.9512776000001,535.9576895,535.9667626999999,535.9667626999999,535.9667626999999,535.9667626999999,537.9665777,537.9665777,537.9665777,537.9665777,537.9510799,None,None,,,,,,,,,,,,,,,Guess_3415,20,female,1,2025-05-07_19h02.04.177,sm,2024.2.4,59.99991600024196,2025-05-07 19h02.24.937421 +0200,
4,0,4,,,,,,space,475.2156963000007,None,None,None,None,,,0,0,0,0,,,,,0,0,0,0,,,,,4,0,4,0,537.9665777,,,,,,,,,,,,,,,,,,,,,,,,,,,,,,,,,,,,,,,,,,,Reifen,2.6312,537.9515343000003,537.9521390999998,537.9523022000003,537.9665777,540.5994989000001,540.5844741999999,540.5879987999997,540.5994989000001,540.5994989000001,540.5994989000001,540.5994989000001,542.5997605000002,542.5997605000002,542.5997605000002,542.5997605000002,542.5840791,None,None,,,,,,,,,,,,,,,Guess_3415,20,female,1,2025-05-07_19h02.04.177,sm,2024.2.4,59.99991600024196,2025-05-07 19h02.24.937421 +0200,
5,0,5,,,,,,space,475.2156963000007,None,None,None,None,,,0,0,0,0,,,,,0,0,0,0,,,,,5,0,5,0,542.5997605000002,,,,,,,,,,,,,,,,,,,,,,,,,,,,,,,,,,,,,,,,,,,Gast,4.5524,542.5845404000002,542.5850505999997,542.5851561,542.5997605000002,547.1664827000004,547.1491446999999,547.1509016,547.1664827000004,547.1664827000004,547.1664827000004,547.1664827000004,,,,,549.1499647,None,None,,,,,,,,,,,,,,,Guess_3415,20,female,1,2025-05-07_19h02.04.177,sm,2024.2.4,59.99991600024196,2025-05-07 19h02.24.937421 +0200,
6,0,6,,,,,,space,475.2156963000007,None,None,3,None,1.264749799999663,0.2919755000002624,0,0,0,0,,,,,0,0,0,0,,,,,6,0,6,0,549.1665106999999,,,,,,,,,,,,,,,,,,,,,,,,,,,,,,,,,,,,,,,,,,,Sprechen,2.7992,549.1503401,549.1510299000001,549.1511194000004,549.1665106999999,551.9661803999998,551.9495362999996,551.9535895999998,551.9661803999998,551.9661803999998,551.9661803999998,551.9661803999998,553.9655604999998,553.9655604999998,553.9655604999998,553.9655604999998,553.9503316999999,3,None,1.264749799999663,0.2919755000002624,,,,,,,,,,,,,Guess_3415,20,female,1,2025-05-07_19h02.04.177,sm,2024.2.4,59.99991600024196,2025-05-07 19h02.24.937421 +0200,
7,0,7,,,,,,space,475.2156963000007,None,None,2,None,1.1391985000000204,0.3700588000001517,0,0,0,0,,,,,0,0,0,0,,,,,7,0,7,0,553.9655604999998,,,,,,,,,,,,,,,,,,,,,,,,,,,,,,,,,,,,,,,,,,,Schaf,2.7357,553.9508254000002,553.9515025000001,553.9516119,553.9655604999998,556.7153076000004,556.6997283000001,556.7044146999997,556.7153076000004,556.7153076000004,556.7153076000004,556.7153076000004,558.7154069999997,558.7154069999997,558.7154069999997,558.7154069999997,558.6999408000001,2,None,1.1391985000000204,0.3700588000001517,,,,,,,,,,,,,Guess_3415,20,female,1,2025-05-07_19h02.04.177,sm,2024.2.4,59.99991600024196,2025-05-07 19h02.24.937421 +0200,
8,0,8,,,,,,space,475.2156963000007,None,None,3,None,0.9860210000006191,0.43674969999938185,0,0,0,0,,,,,0,0,0,0,,,,,8,0,8,0,558.7154069999997,,,,,,,,,,,,,,,,,,,,,,,,,,,,,,,,,,,,,,,,,,,Aroma,2.1743,558.7004067999997,558.7010535999998,558.7011584000002,558.7154069999997,560.8984988000002,560.8830402000003,560.8871489000003,560.8984988000002,560.8984988000002,560.8984988000002,560.8984988000002,562.8985485000003,562.8985485000003,562.8985485000003,562.8985485000003,562.8829500000002,3,None,0.9860210000006191,0.43674969999938185,,,,,,,,,,,,,Guess_3415,20,female,1,2025-05-07_19h02.04.177,sm,2024.2.4,59.99991600024196,2025-05-07 19h02.24.937421 +0200,
9,0,9,,,,,,space,475.2156963000007,None,None,2,None,0.8647424999999203,0.4407539000003453,0,0,0,0,,,,,0,0,0,0,,,,,9,0,9,0,562.8985485000003,,,,,,,,,,,,,,,,,,,,,,,,,,,,,,,,,,,,,,,,,,,Hai,3.6723,562.8834385,562.8839439000003,562.8840492999998,562.8985485000003,566.5821764000002,566.5660607,566.5720075999998,566.5821764000002,566.5821764000002,566.5821764000002,566.5821764000002,568.5813691000003,568.5813691000003,568.5813691000003,568.5813691000003,568.5659361999997,2,None,0.8647424999999203,0.4407539000003453,,,,,,,,,,,,,Guess_3415,20,female,1,2025-05-07_19h02.04.177,sm,2024.2.4,59.99991600024196,2025-05-07 19h02.24.937421 +0200,
10,0,10,,,,,,space,475.2156963000007,None,None,3,None,1.4941675000000032,0.31615119999969465,0,0,0,0,,,,,0,0,0,0,,,,,10,0,10,0,568.5813691000003,,,,,,,,,,,,,,,,,,,,,,,,,,,,,,,,,,,,,,,,,,,Gelenk,3.6564,568.5664260000003,568.5669358000005,568.5670418999998,568.5813691000003,572.2477465000002,572.2322660999998,572.2362818000001,572.2477465000002,572.2477465000002,572.2477465000002,572.2477465000002,574.2478065000005,574.2478065000005,574.2478065000005,574.2478065000005,574.2321257000003,3,None,1.4941675000000032,0.31615119999969465,,,,,,,,,,,,,Guess_3415,20,female,1,2025-05-07_19h02.04.177,sm,2024.2.4,59.99991600024196,2025-05-07 19h02.24.937421 +0200,
11,0,11,,,,,,space,475.2156963000007,None,None,2,None,0.8264825000005658,0.4280321999995067,0,0,0,0,,,,,0,0,0,0,,,,,11,0,11,0,574.2478065000005,,,,,,,,,,,,,,,,,,,,,,,,,,,,,,,,,,,,,,,,,,,Kind,5.3463,574.2326095999997,574.2331197000003,574.2332234000005,574.2478065000005,579.5973449000003,579.5816966000002,579.5853017999998,579.5973449000003,579.5973449000003,579.5973449000003,579.5973449000003,581.5974230000002,581.5974230000002,581.5974230000002,581.5974230000002,581.5819849,2,None,0.8264825000005658,0.4280321999995067,,,,,,,,,,,,,Guess_3415,20,female,1,2025-05-07_19h02.04.177,sm,2024.2.4,59.99991600024196,2025-05-07 19h02.24.937421 +0200,
12,0,12,,,,,,space,475.2156963000007,None,None,3,None,0.7651621000004525,0.41979300000002695,0,0,0,0,,,,,0,0,0,0,,,,,12,0,12,0,581.5974230000002,,,,,,,,,,,,,,,,,,,,,,,,,,,,,,,,,,,,,,,,,,,Scheidung,2.9832,581.5824896000004,581.5830231,581.5831399999997,581.5974230000002,584.5800679000004,584.5648536999997,584.5684745999997,584.5800679000004,584.5800679000004,584.5800679000004,584.5800679000004,586.5802417000004,586.5802417000004,586.5802417000004,586.5802417000004,586.5649511000001,3,None,0.7651621000004525,0.41979300000002695,,,,,,,,,,,,,Guess_3415,20,female,1,2025-05-07_19h02.04.177,sm,2024.2.4,59.99991600024196,2025-05-07 19h02.24.937421 +0200,
13,0,13,,,,,,space,475.2156963000007,None,None,3,None,1.147342899999785,0.3681175000001531,0,0,0,0,,,,,0,0,0,0,,,,,13,0,13,0,586.5802417000004,,,,,,,,,,,,,,,,,,,,,,,,,,,,,,,,,,,,,,,,,,,Pflege,3.039,586.5654463000001,586.5659533999997,586.5660549000004,586.5802417000004,589.6299147999998,589.6142093999997,589.6192372000005,589.6299147999998,589.6299147999998,589.6299147999998,589.6299147999998,591.6301092000003,591.6301092000003,591.6301092000003,591.6301092000003,591.6145402000002,3,None,1.147342899999785,0.3681175000001531,,,,,,,,,,,,,Guess_3415,20,female,1,2025-05-07_19h02.04.177,sm,2024.2.4,59.99991600024196,2025-05-07 19h02.24.937421 +0200,
14,0,14,,,,,,space,475.2156963000007,None,None,3,None,1.4178186999997706,None,0,0,0,0,,,,,0,0,0,0,,,,,14,0,14,0,591.6301092000003,,,,,,,,,,,,,,,,,,,,,,,,,,,,,,,,,,,,,,,,,,,Schulter,2.0946,591.6150324,591.6155416000001,591.6156443,591.6301092000003,593.7299197000002,593.7141182000005,593.717584,593.7299197000002,593.7299197000002,593.7299197000002,593.7299197000002,595.7298521000002,595.7298521000002,595.7298521000002,595.7298521000002,595.7142860000004,3,None,1.4178186999997706,None,,,,,,,,,,,,,Guess_3415,20,female,1,2025-05-07_19h02.04.177,sm,2024.2.4,59.99991600024196,2025-05-07 19h02.24.937421 +0200,
15,0,15,,,,,,space,475.2156963000007,None,None,3,None,1.0332141999997475,0.49952959999973245,0,0,0,0,,,,,0,0,0,0,,,,,15,0,15,0,595.7298521000002,,,,,,,,,,,,,,,,,,,,,,,,,,,,,,,,,,,,,,,,,,,Loch,2.4521,595.7147267,595.7152434999998,595.7153400999996,595.7298521000002,598.1972900000001,598.1806606,598.1844257000002,598.1972900000001,598.1972900000001,598.1972900000001,598.1972900000001,600.1962192000001,600.1962192000001,600.1962192000001,600.1962192000001,600.1809567,3,None,1.0332141999997475,0.49952959999973245,,,,,,,,,,,,,Guess_3415,20,female,1,2025-05-07_19h02.04.177,sm,2024.2.4,59.99991600024196,2025-05-07 19h02.24.937421 +0200,
16,0,16,,,,,,space,475.2156963000007,None,None,3,None,1.165599399999337,0.5054907000003368,0,0,0,0,,,,,0,0,0,0,,,,,16,0,16,0,600.1962192000001,,,,,,,,,,,,,,,,,,,,,,,,,,,,,,,,,,,,,,,,,,,Nacht,2.6097,600.1814485000004,600.1819579000003,600.1820590999996,600.1962192000001,602.8125379000003,602.7970960000002,602.8009540000003,602.8125379000003,602.8125379000003,602.8125379000003,602.8125379000003,604.8127411000005,604.8127411000005,604.8127411000005,604.8127411000005,604.7969108999996,3,None,1.165599399999337,0.5054907000003368,,,,,,,,,,,,,Guess_3415,20,female,1,2025-05-07_19h02.04.177,sm,2024.2.4,59.99991600024196,2025-05-07 19h02.24.937421 +0200,
17,0,17,,,,,,space,475.2156963000007,None,None,3,None,1.0748291000008976,0.7539449999994758,0,0,0,0,,,,,0,0,0,0,,,,,17,0,17,0,604.8127411000005,,,,,,,,,,,,,,,,,,,,,,,,,,,,,,,,,,,,,,,,,,,Seife,4.4429,604.7973715999997,604.7978639000003,604.7979611999999,604.8127411000005,609.2623179000002,609.2466057000001,609.2507308000004,609.2623179000002,609.2623179000002,609.2623179000002,609.2623179000002,611.2627801999997,611.2627801999997,611.2627801999997,611.2627801999997,611.2468666000004,3,None,1.0748291000008976,0.7539449999994758,,,,,,,,,,,,,Guess_3415,20,female,1,2025-05-07_19h02.04.177,sm,2024.2.4,59.99991600024196,2025-05-07 19h02.24.937421 +0200,
18,0,18,,,,,,space,475.2156963000007,None,None,3,None,1.1166450999999142,0.669588499999918,0,0,0,0,,,,,0,0,0,0,,,,,18,0,18,0,611.2627801999997,,,,,,,,,,,,,,,,,,,,,,,,,,,,,,,,,,,,,,,,,,,Langsam,2.9036,611.247359,611.2478650000003,611.2479693000005,611.2627801999997,614.1787782000001,614.1630445999999,614.1670068000003,614.1787782000001,614.1787782000001,614.1787782000001,614.1787782000001,616.1787052,616.1787052,616.1787052,616.1787052,616.1634402,3,None,1.1166450999999142,0.669588499999918,,,,,,,,,,,,,Guess_3415,20,female,1,2025-05-07_19h02.04.177,sm,2024.2.4,59.99991600024196,2025-05-07 19h02.24.937421 +0200,
19,0,19,,,,,,space,475.2156963000007,None,None,3,None,0.9693143999993481,0.7469681000002311,0,0,0,0,,,,,0,0,0,0,,,,,19,0,19,0,616.1787052,,,,,,,,,,,,,,,,,,,,,,,,,,,,,,,,,,,,,,,,,,,Kapitel,3.189,616.1639015000001,616.1643970000005,616.1644948000003,616.1787052,619.3784515999996,619.3628177999999,619.3670118,619.3784515999996,619.3784515999996,619.3784515999996,619.3784515999996,621.3784481000002,621.3784481000002,621.3784481000002,621.3784481000002,621.3632039000004,3,None,0.9693143999993481,0.7469681000002311,,,,,,,,,,,,,Guess_3415,20,female,1,2025-05-07_19h02.04.177,sm,2024.2.4,59.99991600024196,2025-05-07 19h02.24.937421 +0200,
20,0,20,,,,,,space,475.2156963000007,None,None,2,None,0.8350940999998784,0.6256784000006519,0,0,0,0,,,,,0,0,0,0,,,,,20,0,20,0,621.3784481000002,,,,,,,,,,,,,,,,,,,,,,,,,,,,,,,,,,,,,,,,,,,Alligator,2.8901,621.3636956999999,621.3642102000003,621.3643118999998,621.3784481000002,624.2789669000003,624.2625215999997,624.2675927,624.2789669000003,624.2789669000003,624.2789669000003,624.2789669000003,626.2781445,626.2781445,626.2781445,626.2781445,626.2624935000003,2,None,0.8350940999998784,0.6256784000006519,,,,,,,,,,,,,Guess_3415,20,female,1,2025-05-07_19h02.04.177,sm,2024.2.4,59.99991600024196,2025-05-07 19h02.24.937421 +0200,
21,0,21,,,,,,space,475.2156963000007,None,None,3,None,0.9031764999999723,0.651645500000086,0,0,0,0,,,,,0,0,0,0,,,,,21,0,21,0,626.2781445,,,,,,,,,,,,,,,,,,,,,,,,,,,,,,,,,,,,,,,,,,,Zucker,4.3942,626.2629819000003,626.2636376999999,626.2637470999998,626.2781445,630.6776332,630.6619234,630.6670261999998,630.6776332,630.6776332,630.6776332,630.6776332,632.6779729999998,632.6779729999998,632.6779729999998,632.6779729999998,632.6620671999999,3,None,0.9031764999999723,0.651645500000086,,,,,,,,,,,,,Guess_3415,20,female,1,2025-05-07_19h02.04.177,sm,2024.2.4,59.99991600024196,2025-05-07 19h02.24.937421 +0200,
22,0,22,,,,,,space,475.2156963000007,None,None,3,None,0.9654534999999669,0.6017284999998083,0,0,0,0,,,,,0,0,0,0,,,,,22,0,22,0,632.6779729999998,,,,,,,,,,,,,,,,,,,,,,,,,,,,,,,,,,,,,,,,,,,Kuchen ,2.0589,632.6625547000003,632.6630532999998,632.6631557000001,632.6779729999998,634.7441728000003,634.7286530000001,634.7328974000002,634.7441728000003,634.7441728000003,634.7441728000003,634.7441728000003,636.7442075999998,636.7442075999998,636.7442075999998,636.7442075999998,636.7285284999998,3,None,0.9654534999999669,0.6017284999998083,,,,,,,,,,,,,Guess_3415,20,female,1,2025-05-07_19h02.04.177,sm,2024.2.4,59.99991600024196,2025-05-07 19h02.24.937421 +0200,
23,0,23,,,,,,space,475.2156963000007,None,None,3,None,1.0520004999998491,0.6277323000003889,0,0,0,0,,,,,0,0,0,0,,,,,23,0,23,0,636.7442075999998,,,,,,,,,,,,,,,,,,,,,,,,,,,,,,,,,,,,,,,,,,,Hilfe,3.9589,636.7290235,636.7295323999997,636.7296388000004,636.7442075999998,640.7101866000003,640.6947172,640.6979987000004,640.7101866000003,640.7101866000003,640.7101866000003,640.7101866000003,642.7105080000001,642.7105080000001,642.7105080000001,642.7105080000001,642.6949762000004,3,None,1.0520004999998491,0.6277323000003889,,,,,,,,,,,,,Guess_3415,20,female,1,2025-05-07_19h02.04.177,sm,2024.2.4,59.99991600024196,2025-05-07 19h02.24.937421 +0200,
24,0,24,,,,,,space,475.2156963000007,None,None,3,None,1.3548362000001362,0.5006628999999521,0,0,0,0,,,,,0,0,0,0,,,,,24,0,24,0,642.7105080000001,,,,,,,,,,,,,,,,,,,,,,,,,,,,,,,,,,,,,,,,,,,Schule,2.3006,642.6954698,642.6959739000004,642.6960767,642.7105080000001,645.0102415000001,644.9946197999998,644.9985256999998,645.0102415000001,645.0102415000001,645.0102415000001,645.0102415000001,647.0102305,647.0102305,647.0102305,647.0102305,646.9947146000004,3,None,1.3548362000001362,0.5006628999999521,,,,,,,,,,,,,Guess_3415,20,female,1,2025-05-07_19h02.04.177,sm,2024.2.4,59.99991600024196,2025-05-07 19h02.24.937421 +0200,
25,0,25,,,,,,space,475.2156963000007,None,None,3,None,1.1662882999999056,0.4429715000005672,0,0,0,0,,,,,0,0,0,0,,,,,25,0,25,0,647.0102305,,,,,,,,,,,,,,,,,,,,,,,,,,,,,,,,,,,,,,,,,,,Geschichte,2.2639,646.9951456999997,646.9956101999996,646.9957013000003,647.0102305,649.2768772999998,649.2610155000002,649.2655760999996,649.2768772999998,649.2768772999998,649.2768772999998,649.2768772999998,651.2768910000004,651.2768910000004,651.2768910000004,651.2768910000004,651.2611464000001,3,None,1.1662882999999056,0.4429715000005672,,,,,,,,,,,,,Guess_3415,20,female,1,2025-05-07_19h02.04.177,sm,2024.2.4,59.99991600024196,2025-05-07 19h02.24.937421 +0200,
26,0,26,,,,,,space,475.2156963000007,None,None,3,None,1.1287841999992452,0.733014400000684,0,0,0,0,,,,,0,0,0,0,,,,,26,0,26,0,651.2768910000004,,,,,,,,,,,,,,,,,,,,,,,,,,,,,,,,,,,,,,,,,,,Karneval,2.6446,651.2616369999996,651.2621473999998,651.2622578,651.2768910000004,653.9262230000004,653.9106007,653.9147724000004,653.9262230000004,653.9262230000004,653.9262230000004,653.9262230000004,655.9263209000001,655.9263209000001,655.9263209000001,655.9263209000001,655.9108727000003,3,None,1.1287841999992452,0.733014400000684,,,,,,,,,,,,,Guess_3415,20,female,1,2025-05-07_19h02.04.177,sm,2024.2.4,59.99991600024196,2025-05-07 19h02.24.937421 +0200,
27,0,27,,,,,,space,475.2156963000007,None,None,3,None,1.2816149999998743,None,0,0,0,0,,,,,0,0,0,0,,,,,27,0,27,0,655.9263209000001,,,,,,,,,,,,,,,,,,,,,,,,,,,,,,,,,,,,,,,,,,,Theater,2.4916,655.9113582,655.9120136000001,655.9121187000001,655.9263209000001,658.4265665000003,658.4107483999996,658.4148212999999,658.4265665000003,658.4265665000003,658.4265665000003,658.4265665000003,660.4262602999997,660.4262602999997,660.4262602999997,660.4262602999997,660.4105863000004,3,None,1.2816149999998743,None,,,,,,,,,,,,,Guess_3415,20,female,1,2025-05-07_19h02.04.177,sm,2024.2.4,59.99991600024196,2025-05-07 19h02.24.937421 +0200,
28,0,28,,,,,,space,475.2156963000007,None,None,3,None,1.2989632999997411,0.5564352000001236,0,0,0,0,,,,,0,0,0,0,,,,,28,0,28,0,660.4262602999997,,,,,,,,,,,,,,,,,,,,,,,,,,,,,,,,,,,,,,,,,,,Tradition,2.1413,660.4110722000005,660.4116202000005,660.4117245999996,660.4262602999997,662.5759902,662.5603288000002,662.5644339999999,662.5759902,662.5759902,662.5759902,662.5759902,664.5767640000004,664.5767640000004,664.5767640000004,664.5767640000004,664.5604635999998,3,None,1.2989632999997411,0.5564352000001236,,,,,,,,,,,,,Guess_3415,20,female,1,2025-05-07_19h02.04.177,sm,2024.2.4,59.99991600024196,2025-05-07 19h02.24.937421 +0200,
29,0,29,,,,,,space,475.2156963000007,None,None,3,None,1.3773290999997698,None,0,0,0,0,,,,,0,0,0,0,,,,,29,0,29,0,664.5767640000004,,,,,,,,,,,,,,,,,,,,,,,,,,,,,,,,,,,,,,,,,,,Trinken,2.0842,664.5607588000003,664.5613011000005,664.5613768000003,664.5767640000004,666.6757273000003,666.6601725,666.6643876999997,666.6757273000003,666.6757273000003,666.6757273000003,666.6757273000003,668.6757169000002,668.6757169000002,668.6757169000002,668.6757169000002,668.6598810000005,3,None,1.3773290999997698,None,,,,,,,,,,,,,Guess_3415,20,female,1,2025-05-07_19h02.04.177,sm,2024.2.4,59.99991600024196,2025-05-07 19h02.24.937421 +0200,
30,0,30,,,,,,space,475.2156963000007,None,None,2,None,1.2011332000001858,0.509485799999311,0,0,0,0,,,,,0,0,0,0,,,,,30,0,30,0,668.6757169000002,,,,,,,,,,,,,,,,,,,,,,,,,,,,,,,,,,,,,,,,,,,Nase,3.6297,668.6602539000005,668.6607544999997,668.6608334000002,668.6757169000002,672.3088349,672.2930108,672.2959400999998,672.3088349,672.3088349,672.3088349,672.3088349,674.3087642,674.3087642,674.3087642,674.3087642,674.2931071000003,2,None,1.2011332000001858,0.509485799999311,,,,,,,,,,,,,Guess_3415,20,female,1,2025-05-07_19h02.04.177,sm,2024.2.4,59.99991600024196,2025-05-07 19h02.24.937421 +0200,
31,0,31,,,,,,space,475.2156963000007,None,None,3,None,1.1044332999999824,0.5030649000000267,0,0,0,0,,,,,0,0,0,0,,,,,31,0,31,0,674.3087642,,,,,,,,,,,,,,,,,,,,,,,,,,,,,,,,,,,,,,,,,,,Weiss,2.3362,674.2936007999997,674.2940987000002,674.2942058999997,674.3087642,676.6584685999997,676.6428777000001,676.6463388000002,676.6584685999997,676.6584685999997,676.6584685999997,676.6584685999997,678.6589959000003,678.6589959000003,678.6589959000003,678.6589959000003,678.6429448999997,3,None,1.1044332999999824,0.5030649000000267,,,,,,,,,,,,,Guess_3415,20,female,1,2025-05-07_19h02.04.177,sm,2024.2.4,59.99991600024196,2025-05-07 19h02.24.937421 +0200,
32,0,32,,,,,,space,475.2156963000007,None,None,2,None,0.8316859999995359,0.6287075999998706,0,0,0,0,,,,,0,0,0,0,,,,,32,0,32,0,678.6589959000003,,,,,,,,,,,,,,,,,,,,,,,,,,,,,,,,,,,,,,,,,,,Hand,2.83,678.6434356999998,678.6440082999998,678.6441126999998,678.6589959000003,681.4916601000004,681.4758093,681.4788301999997,681.4916601000004,681.4916601000004,681.4916601000004,681.4916601000004,683.4914979000005,683.4914979000005,683.4914979000005,683.4914979000005,683.4757820000004,2,None,0.8316859999995359,0.6287075999998706,,,,,,,,,,,,,Guess_3415,20,female,1,2025-05-07_19h02.04.177,sm,2024.2.4,59.99991600024196,2025-05-07 19h02.24.937421 +0200,
33,0,33,,,,,,space,475.2156963000007,None,None,3,None,1.3349785000000338,0.5449282999998104,0,0,0,0,,,,,0,0,0,0,,,,,33,0,33,0,683.4914979000005,,,,,,,,,,,,,,,,,,,,,,,,,,,,,,,,,,,,,,,,,,,Klub,2.4137,683.4762797000003,683.4768004999996,683.4769060999997,683.4914979000005,685.9076684000001,685.8922890000003,685.8962548999998,685.9076684000001,685.9076684000001,685.9076684000001,685.9076684000001,687.9080479000004,687.9080479000004,687.9080479000004,687.9080479000004,687.8922529000001,3,None,1.3349785000000338,0.5449282999998104,,,,,,,,,,,,,Guess_3415,20,female,1,2025-05-07_19h02.04.177,sm,2024.2.4,59.99991600024196,2025-05-07 19h02.24.937421 +0200,
34,0,34,,,,,,space,475.2156963000007,None,None,3,None,1.0491680000004635,0.5046059999995123,0,0,0,0,,,,,0,0,0,0,,,,,34,0,34,0,687.9080479000004,,,,,,,,,,,,,,,,,,,,,,,,,,,,,,,,,,,,,,,,,,,Keller,2.2129,687.8927438000001,687.8932438000002,687.8933453999998,687.9080479000004,690.1240971999996,690.1087324999999,690.1122422999997,690.1240971999996,690.1240971999996,690.1240971999996,690.1240971999996,692.1243049000004,692.1243049000004,692.1243049000004,692.1243049000004,692.1087671000005,3,None,1.0491680000004635,0.5046059999995123,,,,,,,,,,,,,Guess_3415,20,female,1,2025-05-07_19h02.04.177,sm,2024.2.4,59.99991600024196,2025-05-07 19h02.24.937421 +0200,
35,0,35,,,,,,space,475.2156963000007,None,None,3,None,1.4987505999997666,None,0,0,0,0,,,,,0,0,0,0,,,,,35,0,35,0,692.1243049000004,,,,,,,,,,,,,,,,,,,,,,,,,,,,,,,,,,,,,,,,,,,Vulkan,3.0547,692.1092755999998,692.1098815000005,692.1100487000003,692.1243049000004,695.1904901999997,695.1757325999997,695.1797423999997,695.1904901999997,695.1904901999997,695.1904901999997,695.1904901999997,697.1908580999998,697.1908580999998,697.1908580999998,697.1908580999998,697.1755155000001,3,None,1.4987505999997666,None,,,,,,,,,,,,,Guess_3415,20,female,1,2025-05-07_19h02.04.177,sm,2024.2.4,59.99991600024196,2025-05-07 19h02.24.937421 +0200,
36,0,36,,,,,,space,475.2156963000007,None,None,3,None,0.88821949999965,0.6129996999998184,0,0,0,0,,,,,0,0,0,0,,,,,36,0,36,0,697.1908580999998,,,,,,,,,,,,,,,,,,,,,,,,,,,,,,,,,,,,,,,,,,,Schlüssel,2.3916,697.1760371,697.1768533000004,697.1769666,697.1908580999998,699.5907053999999,699.5748788999999,699.5792706000002,699.5907053999999,699.5907053999999,699.5907053999999,699.5907053999999,701.5907463000003,701.5907463000003,701.5907463000003,701.5907463000003,701.5750017999999,3,None,0.88821949999965,0.6129996999998184,,,,,,,,,,,,,Guess_3415,20,female,1,2025-05-07_19h02.04.177,sm,2024.2.4,59.99991600024196,2025-05-07 19h02.24.937421 +0200,
37,0,37,,,,,,space,475.2156963000007,None,None,3,None,1.0954659999997602,0.466755500000545,0,0,0,0,,,,,0,0,0,0,,,,,37,0,37,0,701.5907463000003,,,,,,,,,,,,,,,,,,,,,,,,,,,,,,,,,,,,,,,,,,,Geheimnis,3.6615,701.5754951999998,701.5759946999997,701.5761013000001,701.5907463000003,705.2568288000002,705.2409521999998,705.2445495000002,705.2568288000002,705.2568288000002,705.2568288000002,705.2568288000002,707.2569480000002,707.2569480000002,707.2569480000002,707.2569480000002,707.2412303000001,3,None,1.0954659999997602,0.466755500000545,,,,,,,,,,,,,Guess_3415,20,female,1,2025-05-07_19h02.04.177,sm,2024.2.4,59.99991600024196,2025-05-07 19h02.24.937421 +0200,
38,0,38,,,,,,space,475.2156963000007,None,None,2,None,0.7956911000001128,0.650277300000198,0,0,0,0,,,,,0,0,0,0,,,,,38,0,38,0,707.2569480000002,,,,,,,,,,,,,,,,,,,,,,,,,,,,,,,,,,,,,,,,,,,Eltern,2.9061,707.2417186000002,707.2423558,707.2424639000001,707.2569480000002,710.1735516999997,710.1576808999998,710.1618988,710.1735516999997,710.1735516999997,710.1735516999997,710.1735516999997,712.1731480999997,712.1731480999997,712.1731480999997,712.1731480999997,712.1576120999998,2,None,0.7956911000001128,0.650277300000198,,,,,,,,,,,,,Guess_3415,20,female,1,2025-05-07_19h02.04.177,sm,2024.2.4,59.99991600024196,2025-05-07 19h02.24.937421 +0200,
39,0,39,,,,,,space,475.2156963000007,None,None,3,None,0.7897081000000981,0.48252769999999146,0,0,0,0,,,,,0,0,0,0,,,,,39,0,39,0,712.1731480999997,,,,,,,,,,,,,,,,,,,,,,,,,,,,,,,,,,,,,,,,,,,Büro,2.7584,712.1581253000004,712.1588822000003,712.1589858999996,712.1731480999997,714.9396500000003,714.9238455000004,714.9268349000004,714.9396500000003,714.9396500000003,714.9396500000003,714.9396500000003,716.9397029000002,716.9397029000002,716.9397029000002,716.9397029000002,716.9240288999999,3,None,0.7897081000000981,0.48252769999999146,,,,,,,,,,,,,Guess_3415,20,female,1,2025-05-07_19h02.04.177,sm,2024.2.4,59.99991600024196,2025-05-07 19h02.24.937421 +0200,
40,0,40,,,,,,space,475.2156963000007,None,None,3,None,0.8988885999997365,0.34441100000003644,0,0,0,0,,,,,0,0,0,0,,,,,40,0,40,0,716.9397029000002,,,,,,,,,,,,,,,,,,,,,,,,,,,,,,,,,,,,,,,,,,,Mappe,3.2825,716.9245234,716.9250330000004,716.9251357000003,716.9397029000002,720.2227657000003,720.2070983000003,720.2119260999998,720.2227657000003,720.2227657000003,720.2227657000003,720.2227657000003,722.2228256999997,722.2228256999997,722.2228256999997,722.2228256999997,722.2073769999997,3,None,0.8988885999997365,0.34441100000003644,,,,,,,,,,,,,Guess_3415,20,female,1,2025-05-07_19h02.04.177,sm,2024.2.4,59.99991600024196,2025-05-07 19h02.24.937421 +0200,
41,0,41,,,,,,space,475.2156963000007,None,None,3,None,1.220185400000446,0.5549443999998402,0,0,0,0,,,,,0,0,0,0,,,,,41,0,41,0,722.2228256999997,,,,,,,,,,,,,,,,,,,,,,,,,,,,,,,,,,,,,,,,,,,Haar,4.4767,722.2078948999997,722.2086793999997,722.2087924999996,722.2228256999997,726.7058302000005,726.6900457000002,726.6936019000004,726.7058302000005,726.7058302000005,726.7058302000005,726.7058302000005,728.7056118999999,728.7056118999999,728.7056118999999,728.7056118999999,728.6904137000001,3,None,1.220185400000446,0.5549443999998402,,,,,,,,,,,,,Guess_3415,20,female,1,2025-05-07_19h02.04.177,sm,2024.2.4,59.99991600024196,2025-05-07 19h02.24.937421 +0200,
42,0,42,,,,,,space,475.2156963000007,None,None,3,None,1.2332905000002938,0.5443408000001,0,0,0,0,,,,,0,0,0,0,,,,,42,0,42,0,728.7056118999999,,,,,,,,,,,,,,,,,,,,,,,,,,,,,,,,,,,,,,,,,,,Wüste,2.1186,728.6909031000005,728.6914082000003,728.6915142999997,728.7056118999999,730.8387076999998,730.8229824999999,730.8268280000002,730.8387076999998,730.8387076999998,730.8387076999998,730.8387076999998,732.8389058000002,732.8389058000002,732.8389058000002,732.8389058000002,732.8229843999998,3,None,1.2332905000002938,0.5443408000001,,,,,,,,,,,,,Guess_3415,20,female,1,2025-05-07_19h02.04.177,sm,2024.2.4,59.99991600024196,2025-05-07 19h02.24.937421 +0200,
43,0,43,,,,,,space,475.2156963000007,None,None,3,None,1.2471040999998877,0.5221744999998919,0,0,0,0,,,,,0,0,0,0,,,,,43,0,43,0,732.8389058000002,,,,,,,,,,,,,,,,,,,,,,,,,,,,,,,,,,,,,,,,,,,Kante,2.2074,732.8234789999997,732.8239905,732.8240941000004,732.8389058000002,735.0551676000005,735.0397683000001,735.0440670999997,735.0551676000005,735.0551676000005,735.0551676000005,735.0551676000005,737.0554291999997,737.0554291999997,737.0554291999997,737.0554291999997,737.0394182,3,None,1.2471040999998877,0.5221744999998919,,,,,,,,,,,,,Guess_3415,20,female,1,2025-05-07_19h02.04.177,sm,2024.2.4,59.99991600024196,2025-05-07 19h02.24.937421 +0200,
44,0,44,,,,,,space,475.2156963000007,None,None,3,None,1.3561417000000802,None,0,0,0,0,,,,,0,0,0,0,,,,,44,0,44,0,737.0554291999997,,,,,,,,,,,,,,,,,,,,,,,,,,,,,,,,,,,,,,,,,,,Minze,2.8516,737.0399397000001,737.0405621999998,737.0406616999999,737.0554291999997,739.9217104999998,739.9063335999999,739.9107862999999,739.9217104999998,739.9217104999998,739.9217104999998,739.9217104999998,741.9218824,741.9218824,741.9218824,741.9218824,741.9060345999997,3,None,1.3561417000000802,None,,,,,,,,,,,,,Guess_3415,20,female,1,2025-05-07_19h02.04.177,sm,2024.2.4,59.99991600024196,2025-05-07 19h02.24.937421 +0200,
45,0,45,,,,,,space,475.2156963000007,None,None,3,None,0.80186330000015,0.6135512999999264,0,0,0,0,,,,,0,0,0,0,,,,,45,0,45,0,741.9218824,,,,,,,,,,,,,,,,,,,,,,,,,,,,,,,,,,,,,,,,,,,Gabel,4.0852,741.9065251000002,741.9070690999997,741.9071790999997,741.9218824,746.0209099000003,746.0051903000003,746.0082190000003,746.0209099000003,746.0209099000003,746.0209099000003,746.0209099000003,748.0211686000002,748.0211686000002,748.0211686000002,748.0211686000002,748.0056370000002,3,None,0.80186330000015,0.6135512999999264,,,,,,,,,,,,,Guess_3415,20,female,1,2025-05-07_19h02.04.177,sm,2024.2.4,59.99991600024196,2025-05-07 19h02.24.937421 +0200,
46,0,46,,,,,,space,475.2156963000007,None,None,3,None,0.9284601999997903,0.6154538999999204,0,0,0,0,,,,,0,0,0,0,,,,,46,0,46,0,748.0211686000002,,,,,,,,,,,,,,,,,,,,,,,,,,,,,,,,,,,,,,,,,,,Salz,2.1961,748.0061409999998,748.0066384000002,748.0067420000005,748.0211686000002,750.2209289000002,750.2054316000003,750.2090045000004,750.2209289000002,750.2209289000002,750.2209289000002,750.2209289000002,752.2209598,752.2209598,752.2209598,752.2209598,752.2054516999997,3,None,0.9284601999997903,0.6154538999999204,,,,,,,,,,,,,Guess_3415,20,female,1,2025-05-07_19h02.04.177,sm,2024.2.4,59.99991600024196,2025-05-07 19h02.24.937421 +0200,
47,0,47,,,,,,space,475.2156963000007,None,None,3,None,1.029003300000113,0.5484308999994028,0,0,0,0,,,,,0,0,0,0,,,,,47,0,47,0,752.2209598,,,,,,,,,,,,,,,,,,,,,,,,,,,,,,,,,,,,,,,,,,,Decke,2.5169,752.2059424999998,752.2065008,752.2066058999999,752.2209598,754.7372519,754.7218963000005,754.7268835000004,754.7372519,754.7372519,754.7372519,754.7372519,756.7372316000001,756.7372316000001,756.7372316000001,756.7372316000001,756.7217882000004,3,None,1.029003300000113,0.5484308999994028,,,,,,,,,,,,,Guess_3415,20,female,1,2025-05-07_19h02.04.177,sm,2024.2.4,59.99991600024196,2025-05-07 19h02.24.937421 +0200,
48,0,48,,,,,,space,475.2156963000007,None,None,3,None,0.7987757999999303,0.4735584000000017,0,0,0,0,,,,,0,0,0,0,,,,,48,0,48,0,756.7372316000001,,,,,,,,,,,,,,,,,,,,,,,,,,,,,,,,,,,,,,,,,,,Beutel,4.7208,756.7222778000005,756.7227814999997,756.7228869,756.7372316000001,761.4700611999997,761.4547445999997,761.4584218999998,761.4700611999997,761.4700611999997,761.4700611999997,761.4700611999997,763.4702405999997,763.4702405999997,763.4702405999997,763.4702405999997,763.4546419999997,3,None,0.7987757999999303,0.4735584000000017,,,,,,,,,,,,,Guess_3415,20,female,1,2025-05-07_19h02.04.177,sm,2024.2.4,59.99991600024196,2025-05-07 19h02.24.937421 +0200,
49,0,49,,,,,,space,475.2156963000007,None,None,3,None,1.2396303000004991,0.6584212999996453,0,0,0,0,,,,,0,0,0,0,,,,,49,0,49,0,763.4702405999997,,,,,,,,,,,,,,,,,,,,,,,,,,,,,,,,,,,,,,,,,,,Vampir,4.5959,763.4551262000004,763.4558361999998,763.4559429000001,763.4702405999997,768.0700433000002,768.0547256,768.0587132999999,768.0700433000002,768.0700433000002,768.0700433000002,768.0700433000002,770.0701227,770.0701227,770.0701227,770.0701227,770.0543674,3,None,1.2396303000004991,0.6584212999996453,,,,,,,,,,,,,Guess_3415,20,female,1,2025-05-07_19h02.04.177,sm,2024.2.4,59.99991600024196,2025-05-07 19h02.24.937421 +0200,
50,0,50,,,,,,space,475.2156963000007,None,None,3,None,0.8316985000001296,0.6672252999996999,0,0,0,0,,,,,0,0,0,0,,,,,50,0,50,0,770.0701227,,,,,,,,,,,,,,,,,,,,,,,,,,,,,,,,,,,,,,,,,,,Stiefel,2.3419,770.0548577,770.0554966,770.0555974999997,770.0701227,772.4197026000002,772.4042066000002,772.4076286999998,772.4197026000002,772.4197026000002,772.4197026000002,772.4197026000002,774.4197578000003,774.4197578000003,774.4197578000003,774.4197578000003,774.4042255000004,3,None,0.8316985000001296,0.6672252999996999,,,,,,,,,,,,,Guess_3415,20,female,1,2025-05-07_19h02.04.177,sm,2024.2.4,59.99991600024196,2025-05-07 19h02.24.937421 +0200,
51,0,51,,,,,,space,475.2156963000007,None,None,3,None,0.9322049999991577,0.6682005000002391,0,0,0,0,,,,,0,0,0,0,,,,,51,0,51,0,774.4197578000003,,,,,,,,,,,,,,,,,,,,,,,,,,,,,,,,,,,,,,,,,,,Ringe,2.1697,774.4047151000004,774.4052210999998,774.4053247000002,774.4197578000003,776.6026904,776.5870561000002,776.5908354000003,776.6026904,776.6026904,776.6026904,776.6026904,778.6029349999999,778.6029349999999,778.6029349999999,778.6029349999999,778.5871170999999,3,None,0.9322049999991577,0.6682005000002391,,,,,,,,,,,,,Guess_3415,20,female,1,2025-05-07_19h02.04.177,sm,2024.2.4,59.99991600024196,2025-05-07 19h02.24.937421 +0200,
52,0,52,,,,,,space,475.2156963000007,None,None,3,None,1.2373337999997602,0.6735692000002018,0,0,0,0,,,,,0,0,0,0,,,,,52,0,52,0,778.6029349999999,,,,,,,,,,,,,,,,,,,,,,,,,,,,,,,,,,,,,,,,,,,Fakt,2.5377,778.5876079,778.5881193000005,778.5882216,778.6029349999999,781.1532500000003,781.1366552,781.1419203000005,781.1532500000003,781.1532500000003,781.1532500000003,781.1532500000003,783.1525510000001,783.1525510000001,783.1525510000001,783.1525510000001,783.1369115999996,3,None,1.2373337999997602,0.6735692000002018,,,,,,,,,,,,,Guess_3415,20,female,1,2025-05-07_19h02.04.177,sm,2024.2.4,59.99991600024196,2025-05-07 19h02.24.937421 +0200,
53,0,53,,,,,,space,475.2156963000007,None,None,3,None,1.130917700000282,0.638201100000515,0,0,0,0,,,,,0,0,0,0,,,,,53,0,53,0,783.1525510000001,,,,,,,,,,,,,,,,,,,,,,,,,,,,,,,,,,,,,,,,,,,Monument,2.3861,783.1374125000002,783.1379276999996,783.1380354000003,783.1525510000001,785.5521781999996,785.5364421000004,785.5411083999998,785.5521781999996,785.5521781999996,785.5521781999996,785.5521781999996,787.5522595000002,787.5522595000002,787.5522595000002,787.5522595000002,787.5368181000003,3,None,1.130917700000282,0.638201100000515,,,,,,,,,,,,,Guess_3415,20,female,1,2025-05-07_19h02.04.177,sm,2024.2.4,59.99991600024196,2025-05-07 19h02.24.937421 +0200,
54,0,54,,,,,,space,475.2156963000007,None,None,2,None,0.8620547000000442,0.6642277000000831,0,0,0,0,,,,,0,0,0,0,,,,,54,0,54,0,787.5522595000002,,,,,,,,,,,,,,,,,,,,,,,,,,,,,,,,,,,,,,,,,,,Schwester,4.3424,787.5373104,787.5378172999999,787.5379217,787.5522595000002,791.9018900000001,791.8860903000004,791.8903962000004,791.9018900000001,791.9018900000001,791.9018900000001,791.9018900000001,793.9020865000002,793.9020865000002,793.9020865000002,793.9020865000002,793.8864565000003,2,None,0.8620547000000442,0.6642277000000831,,,,,,,,,,,,,Guess_3415,20,female,1,2025-05-07_19h02.04.177,sm,2024.2.4,59.99991600024196,2025-05-07 19h02.24.937421 +0200,
55,0,55,,,,,,space,475.2156963000007,None,None,3,None,0.9141325999999026,0.6791355000004842,0,0,0,0,,,,,0,0,0,0,,,,,55,0,55,0,793.9020865000002,,,,,,,,,,,,,,,,,,,,,,,,,,,,,,,,,,,,,,,,,,,Abendessen,3.2059,793.8869488999999,793.8874751000003,793.8875797000001,793.9020865000002,797.1180253000002,797.1027390999998,797.1066867999998,797.1180253000002,797.1180253000002,797.1180253000002,797.1180253000002,799.118203,799.118203,799.118203,799.118203,799.1025934999998,3,None,0.9141325999999026,0.6791355000004842,,,,,,,,,,,,,Guess_3415,20,female,1,2025-05-07_19h02.04.177,sm,2024.2.4,59.99991600024196,2025-05-07 19h02.24.937421 +0200,
56,0,56,,,,,,space,475.2156963000007,None,None,3,None,1.0077418000000762,0.6881346999998641,0,0,0,0,,,,,0,0,0,0,,,,,56,0,56,0,799.118203,,,,,,,,,,,,,,,,,,,,,,,,,,,,,,,,,,,,,,,,,,,Bad,3.1264,799.1030835000001,799.1035907000005,799.1036935000002,799.118203,802.2512010999999,802.2359753000001,802.2394193999999,802.2512010999999,802.2512010999999,802.2512010999999,802.2512010999999,804.2512845000001,804.2512845000001,804.2512845000001,804.2512845000001,804.2360742000001,3,None,1.0077418000000762,0.6881346999998641,,,,,,,,,,,,,Guess_3415,20,female,1,2025-05-07_19h02.04.177,sm,2024.2.4,59.99991600024196,2025-05-07 19h02.24.937421 +0200,
57,0,57,,,,,,space,475.2156963000007,None,None,2,None,1.643250199999784,None,0,0,0,0,,,,,0,0,0,0,,,,,57,0,57,0,804.2512845000001,,,,,,,,,,,,,,,,,,,,,,,,,,,,,,,,,,,,,,,,,,,Krieg,2.5982,804.2365594000003,804.2370645999999,804.2371678,804.2512845000001,806.8509411000005,806.8354219000003,806.8388636999998,806.8509411000005,806.8509411000005,806.8509411000005,806.8509411000005,808.8514624,808.8514624,808.8514624,808.8514624,808.8354368999999,2,None,1.643250199999784,None,,,,,,,,,,,,,Guess_3415,20,female,1,2025-05-07_19h02.04.177,sm,2024.2.4,59.99991600024196,2025-05-07 19h02.24.937421 +0200,
58,0,58,,,,,,space,475.2156963000007,None,None,3,None,0.8432570000004489,0.614392699999371,0,0,0,0,,,,,0,0,0,0,,,,,58,0,58,0,808.8514624,,,,,,,,,,,,,,,,,,,,,,,,,,,,,,,,,,,,,,,,,,,Schwarz,3.6005,808.8359333999997,808.8364749000002,808.8365794000001,808.8514624,812.4674017999996,812.4517756000005,812.4560333999998,812.4674017999996,812.4674017999996,812.4674017999996,812.4674017999996,814.4678663000004,814.4678663000004,814.4678663000004,814.4678663000004,814.4517653000003,3,None,0.8432570000004489,0.614392699999371,,,,,,,,,,,,,Guess_3415,20,female,1,2025-05-07_19h02.04.177,sm,2024.2.4,59.99991600024196,2025-05-07 19h02.24.937421 +0200,
59,0,59,,,,,,space,475.2156963000007,None,None,2,None,0.8469922000003862,0.6365232999996806,0,0,0,0,,,,,0,0,0,0,,,,,59,0,59,0,814.4678663000004,,,,,,,,,,,,,,,,,,,,,,,,,,,,,,,,,,,,,,,,,,,Freund,3.0127,814.4522557999999,814.4529996000001,814.4531647000003,814.4678663000004,817.4838861999997,817.4683031000004,817.4721955000005,817.4838861999997,817.4838861999997,817.4838861999997,817.4838861999997,819.4876045999999,819.4876045999999,819.4876045999999,819.4876045999999,819.4682003999997,2,None,0.8469922000003862,0.6365232999996806,,,,,,,,,,,,,Guess_3415,20,female,1,2025-05-07_19h02.04.177,sm,2024.2.4,59.99991600024196,2025-05-07 19h02.24.937421 +0200,
0,0,0,,,,,2.1831,space,52.32183259999965,None,None,2,None,1.1413536999998541,0.48114239999995334,0,0,0,0,,,,,1,0,1,0,0,79,79,71,0,0,0,0,911.3118958000005,,,,,,,,,,,,,,,,,,,,,,,,,,834.3113488999998,834.3115887000004,834.3177907999998,834.3211793999999,834.3211793999999,886.6468115999996,space,52.32183259999965,None,886.6469631,886.6633816000003,886.6633816000003,899.2955947,None,899.2958568000004,899.3126677,911.2963049,Geschwister,2.1831,911.2975640000004,911.2983445999998,911.2984567000003,911.3118958000005,913.4945874000005,913.4791532999998,913.4829548999996,913.4945874000005,913.4945874000005,913.4945874000005,913.4945874000005,915.4948882999997,915.4948882999997,915.4948882999997,915.4948882999997,915.4792399999997,2,None,1.1413536999998541,0.48114239999995334,831.4833123999997,831.4998499000003,831.4998499000003,834.2660531000001,2,2.7520778999996764,None,911.3118958000005,,,,,Guess_3415,20,female,1,2025-05-07_19h02.04.177,sm,2024.2.4,59.99991600024196,2025-05-07 19h02.24.937421 +0200,
1,0,1,,,,,,space,52.32183259999965,None,None,2,None,1.1801210000003266,0.40950969999994413,0,0,0,0,,,,,1,0,1,0,,,,,1,0,1,0,915.4948882999997,,,,,,,,,,,,,,,,,,,,,,,,,,,,,,,,,,,,,,,,,,,Knie,4.5524,915.4797307999997,915.4802288000001,915.4803376,915.4948882999997,920.0613997,920.0456458999997,920.0499086,920.0613997,920.0613997,920.0613997,920.0613997,922.0611820000004,922.0611820000004,922.0611820000004,922.0611820000004,922.0454614999999,2,None,1.1801210000003266,0.40950969999994413,,,,,,,,,,,,,Guess_3415,20,female,1,2025-05-07_19h02.04.177,sm,2024.2.4,59.99991600024196,2025-05-07 19h02.24.937421 +0200,
2,0,2,,,,,,space,52.32183259999965,None,None,2,None,0.9988951000004818,0.4260924000000159,0,0,0,0,,,,,1,0,1,0,,,,,2,0,2,0,922.0611820000004,,,,,,,,,,,,,,,,,,,,,,,,,,,,,,,,,,,,,,,,,,,Spion,3.0127,922.0459140000003,922.0463983999998,922.0464989000002,922.0611820000004,925.0785366,925.0623194999998,925.0656637000002,925.0785366,925.0785366,925.0785366,925.0785366,927.0777644999998,927.0777644999998,927.0777644999998,927.0777644999998,927.0621732999998,2,None,0.9988951000004818,0.4260924000000159,,,,,,,,,,,,,Guess_3415,20,female,1,2025-05-07_19h02.04.177,sm,2024.2.4,59.99991600024196,2025-05-07 19h02.24.937421 +0200,
3,0,3,,,,,,space,52.32183259999965,None,None,3,None,1.195238899999822,0.5193313999998281,0,0,0,0,,,,,1,0,1,0,,,,,3,0,3,0,927.0777644999998,,,,,,,,,,,,,,,,,,,,,,,,,,,,,,,,,,,,,,,,,,,Käse,2.021,927.0626548,927.0633198000005,927.0634239000001,927.0777644999998,929.1107247,929.0947975999998,929.0978025000004,929.1107247,929.1107247,929.1107247,929.1107247,931.1107087,931.1107087,931.1107087,931.1107087,931.0952559999996,3,None,1.195238899999822,0.5193313999998281,,,,,,,,,,,,,Guess_3415,20,female,1,2025-05-07_19h02.04.177,sm,2024.2.4,59.99991600024196,2025-05-07 19h02.24.937421 +0200,
4,0,4,,,,,,space,52.32183259999965,None,None,2,None,0.9929460999992443,0.4887846999999965,0,0,0,0,,,,,1,0,1,0,,,,,4,0,4,0,931.1107087,,,,,,,,,,,,,,,,,,,,,,,,,,,,,,,,,,,,,,,,,,,Liebe,2.3006,931.0957398999999,931.0963087999999,931.0964131999999,931.1107087,933.4105099999997,933.3949620000003,933.3990236,933.4105099999997,933.4105099999997,933.4105099999997,933.4105099999997,935.4103992,935.4103992,935.4103992,935.4103992,935.3948499999997,2,None,0.9929460999992443,0.4887846999999965,,,,,,,,,,,,,Guess_3415,20,female,1,2025-05-07_19h02.04.177,sm,2024.2.4,59.99991600024196,2025-05-07 19h02.24.937421 +0200,
5,0,5,,,,,,space,52.32183259999965,None,None,2,None,1.3065441999997347,0.42725460000019666,0,0,0,0,,,,,1,0,1,0,,,,,5,0,5,0,935.4103992,,,,,,,,,,,,,,,,,,,,,,,,,,,,,,,,,,,,,,,,,,,Schmecken,3.2059,935.3953412000001,935.3959716999998,935.3960773999997,935.4103992,938.6268087999997,938.6112355000005,938.6175328999998,938.6268087999997,938.6268087999997,938.6268087999997,938.6268087999997,940.6268545000003,940.6268545000003,940.6268545000003,940.6268545000003,940.6113932999997,2,None,1.3065441999997347,0.42725460000019666,,,,,,,,,,,,,Guess_3415,20,female,1,2025-05-07_19h02.04.177,sm,2024.2.4,59.99991600024196,2025-05-07 19h02.24.937421 +0200,
6,0,6,,,,,,space,52.32183259999965,None,None,2,None,1.2693030000000363,0.5429464999997435,0,0,0,0,,,,,1,0,1,0,,,,,6,0,6,0,940.6268545000003,,,,,,,,,,,,,,,,,,,,,,,,,,,,,,,,,,,,,,,,,,,Spaß,2.0842,940.6118790999999,940.6125167999999,940.6126187,940.6268545000003,942.7100210999997,942.6944272000001,942.6979364999997,942.7100210999997,942.7100210999997,942.7100210999997,942.7100210999997,944.7098715000002,944.7098715000002,944.7098715000002,944.7098715000002,944.6943377999996,2,None,1.2693030000000363,0.5429464999997435,,,,,,,,,,,,,Guess_3415,20,female,1,2025-05-07_19h02.04.177,sm,2024.2.4,59.99991600024196,2025-05-07 19h02.24.937421 +0200,
7,0,7,,,,,,space,52.32183259999965,None,None,2,None,0.9596358999997392,0.470104199999696,0,0,0,0,,,,,1,0,1,0,,,,,7,0,7,0,944.7098715000002,,,,,,,,,,,,,,,,,,,,,,,,,,,,,,,,,,,,,,,,,,,Kunde,3.6438,944.6948246000002,944.6954096999998,944.6955121999999,944.7098715000002,948.3594014999999,948.3437635,948.3472327,948.3594014999999,948.3594014999999,948.3594014999999,948.3594014999999,950.3597885999998,950.3597885999998,950.3597885999998,950.3597885999998,950.3442518000002,2,None,0.9596358999997392,0.470104199999696,,,,,,,,,,,,,Guess_3415,20,female,1,2025-05-07_19h02.04.177,sm,2024.2.4,59.99991600024196,2025-05-07 19h02.24.937421 +0200,
8,0,8,,,,,,space,52.32183259999965,None,None,2,None,1.1142487999995865,0.4577135999998063,0,0,0,0,,,,,1,0,1,0,,,,,8,0,8,0,950.3597885999998,,,,,,,,,,,,,,,,,,,,,,,,,,,,,,,,,,,,,,,,,,,Gesicht,2.3599,950.3447419000004,950.3452665000004,950.3453666000005,950.3597885999998,952.7260128999997,952.7105078000004,952.7143274,952.7260128999997,952.7260128999997,952.7260128999997,952.7260128999997,954.7260603000004,954.7260603000004,954.7260603000004,954.7260603000004,954.7103509999997,2,None,1.1142487999995865,0.4577135999998063,,,,,,,,,,,,,Guess_3415,20,female,1,2025-05-07_19h02.04.177,sm,2024.2.4,59.99991600024196,2025-05-07 19h02.24.937421 +0200,
9,0,9,,,,,,space,52.32183259999965,None,None,2,None,0.9286529000000883,0.48654200000055425,0,0,0,0,,,,,1,0,1,0,,,,,9,0,9,0,954.7260603000004,,,,,,,,,,,,,,,,,,,,,,,,,,,,,,,,,,,,,,,,,,,Anwalt,4.0852,954.7108399999997,954.7113382999996,954.7114461000001,954.7260603000004,958.8254803999998,958.8097803,958.8133791999999,958.8254803999998,958.8254803999998,958.8254803999998,958.8254803999998,960.8256903000001,960.8256903000001,960.8256903000001,960.8256903000001,960.8100575999997,2,None,0.9286529000000883,0.48654200000055425,,,,,,,,,,,,,Guess_3415,20,female,1,2025-05-07_19h02.04.177,sm,2024.2.4,59.99991600024196,2025-05-07 19h02.24.937421 +0200,
10,0,10,,,,,,space,52.32183259999965,None,None,3,None,0.8589007999999012,0.4922698999998829,0,0,0,0,,,,,1,0,1,0,,,,,10,0,10,0,960.8256903000001,,,,,,,,,,,,,,,,,,,,,,,,,,,,,,,,,,,,,,,,,,,Tisch,2.2385,960.8105507999999,960.8110563,960.8111601999999,960.8256903000001,963.0754139000001,963.0603110000002,963.0639632000002,963.0754139000001,963.0754139000001,963.0754139000001,963.0754139000001,965.0756259999998,965.0756259999998,965.0756259999998,965.0756259999998,965.0598398000002,3,None,0.8589007999999012,0.4922698999998829,,,,,,,,,,,,,Guess_3415,20,female,1,2025-05-07_19h02.04.177,sm,2024.2.4,59.99991600024196,2025-05-07 19h02.24.937421 +0200,
11,0,11,,,,,,space,52.32183259999965,None,None,3,None,1.4275054999998247,0.4215444999999818,0,0,0,0,,,,,1,0,1,0,,,,,11,0,11,0,965.0756259999998,,,,,,,,,,,,,,,,,,,,,,,,,,,,,,,,,,,,,,,,,,,Anhänger,2.3229,965.0603250000004,965.0608281000004,965.0609297999999,965.0756259999998,967.4086115,967.3929324999999,967.3971320999999,967.4086115,967.4086115,967.4086115,967.4086115,969.4086213,969.4086213,969.4086213,969.4086213,969.3928710999999,3,None,1.4275054999998247,0.4215444999999818,,,,,,,,,,,,,Guess_3415,20,female,1,2025-05-07_19h02.04.177,sm,2024.2.4,59.99991600024196,2025-05-07 19h02.24.937421 +0200,
12,0,12,,,,,,space,52.32183259999965,None,None,3,None,1.2195729999994,0.49765130000014324,0,0,0,0,,,,,1,0,1,0,,,,,12,0,12,0,969.4086213,,,,,,,,,,,,,,,,,,,,,,,,,,,,,,,,,,,,,,,,,,,Flossen,2.1743,969.3933522999996,969.3939741000004,969.3940822000004,969.4086213,971.5917073999999,971.5758537000002,971.5803517000004,971.5917073999999,971.5917073999999,971.5917073999999,971.5917073999999,973.5916974000002,973.5916974000002,973.5916974000002,973.5916974000002,973.5757230999998,3,None,1.2195729999994,0.49765130000014324,,,,,,,,,,,,,Guess_3415,20,female,1,2025-05-07_19h02.04.177,sm,2024.2.4,59.99991600024196,2025-05-07 19h02.24.937421 +0200,
13,0,13,,,,,,space,52.32183259999965,None,None,3,None,1.4403666999996858,None,0,0,0,0,,,,,1,0,1,0,,,,,13,0,13,0,973.5916974000002,,,,,,,,,,,,,,,,,,,,,,,,,,,,,,,,,,,,,,,,,,,Erbe,2.6097,973.5761599999996,973.5768914999999,973.5769895000003,973.5916974000002,976.2076863000002,976.1919969999999,976.1946442999997,976.2076863000002,976.2076863000002,976.2076863000002,976.2076863000002,978.2080335999999,978.2080335999999,978.2080335999999,978.2080335999999,978.1925868999997,3,None,1.4403666999996858,None,,,,,,,,,,,,,Guess_3415,20,female,1,2025-05-07_19h02.04.177,sm,2024.2.4,59.99991600024196,2025-05-07 19h02.24.937421 +0200,
14,0,14,,,,,,space,52.32183259999965,None,None,3,None,1.3691252000007808,0.46685339999930875,0,0,0,0,,,,,1,0,1,0,,,,,14,0,14,0,978.2080335999999,,,,,,,,,,,,,,,,,,,,,,,,,,,,,,,,,,,,,,,,,,,Rolle,2.1961,978.1931061000005,978.1936639000005,978.1937696000005,978.2080335999999,980.4077726000005,980.3921614000001,980.3958462999999,980.4077726000005,980.4077726000005,980.4077726000005,980.4077726000005,982.4077317000001,982.4077317000001,982.4077317000001,982.4077317000001,982.3921952999999,3,None,1.3691252000007808,0.46685339999930875,,,,,,,,,,,,,Guess_3415,20,female,1,2025-05-07_19h02.04.177,sm,2024.2.4,59.99991600024196,2025-05-07 19h02.24.937421 +0200,
15,0,15,,,,,,space,52.32183259999965,None,None,3,None,1.1140672999999879,0.4548291999999492,0,0,0,0,,,,,1,0,1,0,,,,,15,0,15,0,982.4077317000001,,,,,,,,,,,,,,,,,,,,,,,,,,,,,,,,,,,,,,,,,,,Medaille,2.7378,982.3926806,982.3932115999996,982.3933147999996,982.4077317000001,985.1577955000002,985.1418715,985.1453365999996,985.1577955000002,985.1577955000002,985.1577955000002,985.1577955000002,987.1576901999997,987.1576901999997,987.1576901999997,987.1576901999997,987.1419934000005,3,None,1.1140672999999879,0.4548291999999492,,,,,,,,,,,,,Guess_3415,20,female,1,2025-05-07_19h02.04.177,sm,2024.2.4,59.99991600024196,2025-05-07 19h02.24.937421 +0200,
16,0,16,,,,,,space,52.32183259999965,None,None,2,None,1.0936804000002667,0.6268672999995033,0,0,0,0,,,,,1,0,1,0,,,,,16,0,16,0,987.1576901999997,,,,,,,,,,,,,,,,,,,,,,,,,,,,,,,,,,,,,,,,,,,Weinen,4.4767,987.1424642000002,987.1429679000003,987.1430767000002,987.1576901999997,991.6405234000003,991.6246662000003,991.6279964000005,991.6405234000003,991.6405234000003,991.6405234000003,991.6405234000003,993.6409038000002,993.6409038000002,993.6409038000002,993.6409038000002,993.6248157,2,None,1.0936804000002667,0.6268672999995033,,,,,,,,,,,,,Guess_3415,20,female,1,2025-05-07_19h02.04.177,sm,2024.2.4,59.99991600024196,2025-05-07 19h02.24.937421 +0200,
17,0,17,,,,,,space,52.32183259999965,None,None,3,None,0.8399911999995311,0.787298500000361,0,0,0,0,,,,,1,0,1,0,,,,,17,0,17,0,993.6409038000002,,,,,,,,,,,,,,,,,,,,,,,,,,,,,,,,,,,,,,,,,,,Gold,2.9443,993.6253053,993.6258411999997,993.6259482000005,993.6409038000002,996.5901868000001,996.5748730000005,996.5784622000001,996.5901868000001,996.5901868000001,996.5901868000001,996.5901868000001,998.5925297000003,998.5925297000003,998.5925297000003,998.5925297000003,998.5746072000002,3,None,0.8399911999995311,0.787298500000361,,,,,,,,,,,,,Guess_3415,20,female,1,2025-05-07_19h02.04.177,sm,2024.2.4,59.99991600024196,2025-05-07 19h02.24.937421 +0200,
18,0,18,,,,,,space,52.32183259999965,None,None,3,None,0.8436216000000059,0.3561104999998861,0,0,0,0,,,,,1,0,1,0,,,,,18,0,18,0,998.5925297000003,,,,,,,,,,,,,,,,,,,,,,,,,,,,,,,,,,,,,,,,,,,Sitzgurt,2.7584,998.5750940999997,998.5755995,998.5757073000004,998.5925297000003,1001.3565883000001,1001.3410874000001,1001.3454026999998,1001.3565883000001,1001.3565883000001,1001.3565883000001,1001.3565883000001,1003.3566993000004,1003.3566993000004,1003.3566993000004,1003.3566993000004,1003.3411584000005,3,None,0.8436216000000059,0.3561104999998861,,,,,,,,,,,,,Guess_3415,20,female,1,2025-05-07_19h02.04.177,sm,2024.2.4,59.99991600024196,2025-05-07 19h02.24.937421 +0200,
19,0,19,,,,,,space,52.32183259999965,None,None,3,None,1.03526039999997,0.4940838000002259,0,0,0,0,,,,,1,0,1,0,,,,,19,0,19,0,1003.3566993000004,,,,,,,,,,,,,,,,,,,,,,,,,,,,,,,,,,,,,,,,,,,Zeichnung,2.9832,1003.3416446000001,1003.3423782,1003.3424857,1003.3566993000004,1006.3395231000004,1006.3240501999999,1006.3286444000005,1006.3395231000004,1006.3395231000004,1006.3395231000004,1006.3395231000004,1008.3395890000002,1008.3395890000002,1008.3395890000002,1008.3395890000002,1008.324036,3,None,1.03526039999997,0.4940838000002259,,,,,,,,,,,,,Guess_3415,20,female,1,2025-05-07_19h02.04.177,sm,2024.2.4,59.99991600024196,2025-05-07 19h02.24.937421 +0200,
20,0,20,,,,,,space,52.32183259999965,None,None,3,None,0.859503799999402,0.5016424000004918,0,0,0,0,,,,,1,0,1,0,,,,,20,0,20,0,1008.3395890000002,,,,,,,,,,,,,,,,,,,,,,,,,,,,,,,,,,,,,,,,,,,Dachboden,2.9109,1008.3245217000003,1008.3250638,1008.3251688,1008.3395890000002,1011.2558924000004,1011.2405970999998,1011.2444986999999,1011.2558924000004,1011.2558924000004,1011.2558924000004,1011.2558924000004,1013.2564921000003,1013.2564921000003,1013.2564921000003,1013.2564921000003,1013.2405021000004,3,None,0.859503799999402,0.5016424000004918,,,,,,,,,,,,,Guess_3415,20,female,1,2025-05-07_19h02.04.177,sm,2024.2.4,59.99991600024196,2025-05-07 19h02.24.937421 +0200,
21,0,21,,,,,,space,52.32183259999965,None,None,3,None,0.9180823999995482,0.5154462000000422,0,0,0,0,,,,,1,0,1,0,,,,,21,0,21,0,1013.2564921000003,,,,,,,,,,,,,,,,,,,,,,,,,,,,,,,,,,,,,,,,,,,Gegenwart,3.189,1013.2409939999998,1013.2415553000001,1013.2416583000004,1013.2564921000003,1016.4557765,1016.4401405999997,1016.4443935999998,1016.4557765,1016.4557765,1016.4557765,1016.4557765,1018.4559092,1018.4559092,1018.4559092,1018.4559092,1018.4403260999998,3,None,0.9180823999995482,0.5154462000000422,,,,,,,,,,,,,Guess_3415,20,female,1,2025-05-07_19h02.04.177,sm,2024.2.4,59.99991600024196,2025-05-07 19h02.24.937421 +0200,
22,0,22,,,,,,space,52.32183259999965,None,None,3,None,0.9319549000001643,0.5513470999994752,0,0,0,0,,,,,1,0,1,0,,,,,22,0,22,0,1018.4559092,,,,,,,,,,,,,,,,,,,,,,,,,,,,,,,,,,,,,,,,,,,Flasche,2.4916,1018.4408265000002,1018.4415177000001,1018.4416291999996,1018.4559092,1020.9554858000001,1020.9398944000004,1020.9440904000003,1020.9554858000001,1020.9554858000001,1020.9554858000001,1020.9554858000001,1022.9555725,1022.9555725,1022.9555725,1022.9555725,1022.9404932999996,3,None,0.9319549000001643,0.5513470999994752,,,,,,,,,,,,,Guess_3415,20,female,1,2025-05-07_19h02.04.177,sm,2024.2.4,59.99991600024196,2025-05-07 19h02.24.937421 +0200,
23,0,23,,,,,,space,52.32183259999965,None,None,3,None,0.941740999999638,0.568876199999977,0,0,0,0,,,,,1,0,1,0,,,,,23,0,23,0,1022.9555725,,,,,,,,,,,,,,,,,,,,,,,,,,,,,,,,,,,,,,,,,,,Rebe,4.5959,1022.9409858999998,1022.9414808000001,1022.9415829,1022.9555725,1027.5551391,1027.5393626000005,1027.5423318000003,1027.5551391,1027.5551391,1027.5551391,1027.5551391,1029.5549424,1029.5549424,1029.5549424,1029.5549424,1029.5394322000002,3,None,0.941740999999638,0.568876199999977,,,,,,,,,,,,,Guess_3415,20,female,1,2025-05-07_19h02.04.177,sm,2024.2.4,59.99991600024196,2025-05-07 19h02.24.937421 +0200,
24,0,24,,,,,,space,52.32183259999965,None,None,3,None,0.8150814999999056,0.42060420000052545,0,0,0,0,,,,,1,0,1,0,,,,,24,0,24,0,1029.5549424,,,,,,,,,,,,,,,,,,,,,,,,,,,,,,,,,,,,,,,,,,,Schreibtisch,2.83,1029.5399205000003,1029.5405652999998,1029.5406665,1029.5549424,1032.3881898999998,1032.3725981999996,1032.3766506000002,1032.3881898999998,1032.3881898999998,1032.3881898999998,1032.3881898999998,1034.3881223999997,1034.3881223999997,1034.3881223999997,1034.3881223999997,1034.3724613000004,3,None,0.8150814999999056,0.42060420000052545,,,,,,,,,,,,,Guess_3415,20,female,1,2025-05-07_19h02.04.177,sm,2024.2.4,59.99991600024196,2025-05-07 19h02.24.937421 +0200,
25,0,25,,,,,,space,52.32183259999965,None,None,2,None,0.945295200000146,0.6489443000000392,0,0,0,0,,,,,1,0,1,0,,,,,25,0,25,0,1034.3881223999997,,,,,,,,,,,,,,,,,,,,,,,,,,,,,,,,,,,,,,,,,,,Beine,3.6005,1034.372942,1034.3736061999998,1034.3737248999996,1034.3881223999997,1037.9876396999998,1037.9722483000005,1037.9762737,1037.9876396999998,1037.9876396999998,1037.9876396999998,1037.9876396999998,1039.9878546999998,1039.9878546999998,1039.9878546999998,1039.9878546999998,1039.9720834,2,None,0.945295200000146,0.6489443000000392,,,,,,,,,,,,,Guess_3415,20,female,1,2025-05-07_19h02.04.177,sm,2024.2.4,59.99991600024196,2025-05-07 19h02.24.937421 +0200,
26,0,26,,,,,,space,52.32183259999965,None,None,3,None,1.1655158000003212,0.38601399999970454,0,0,0,0,,,,,1,0,1,0,,,,,26,0,26,0,1039.9878546999998,,,,,,,,,,,,,,,,,,,,,,,,,,,,,,,,,,,,,,,,,,,Snow,2.3916,1039.9725442999998,1039.9730193000005,1039.9731178000002,1039.9878546999998,1042.3875937000003,1042.3718926000001,1042.3760201000005,1042.3875937000003,1042.3875937000003,1042.3875937000003,1042.3875937000003,1044.3876496000003,1044.3876496000003,1044.3876496000003,1044.3876496000003,1044.3720362000004,3,None,1.1655158000003212,0.38601399999970454,,,,,,,,,,,,,Guess_3415,20,female,1,2025-05-07_19h02.04.177,sm,2024.2.4,59.99991600024196,2025-05-07 19h02.24.937421 +0200,
27,0,27,,,,,,space,52.32183259999965,None,None,3,None,1.2274772000000667,0.6200719999997091,0,0,0,0,,,,,1,0,1,0,,,,,27,0,27,0,1044.3876496000003,,,,,,,,,,,,,,,,,,,,,,,,,,,,,,,,,,,,,,,,,,,Wasserfall,2.0934,1044.3725518,1044.3730624999998,1044.3731714000005,1044.3876496000003,1046.4872292,1046.4719492000004,1046.4763094999998,1046.4872292,1046.4872292,1046.4872292,1046.4872292,1048.4873722000002,1048.4873722000002,1048.4873722000002,1048.4873722000002,1048.4717442,3,None,1.2274772000000667,0.6200719999997091,,,,,,,,,,,,,Guess_3415,20,female,1,2025-05-07_19h02.04.177,sm,2024.2.4,59.99991600024196,2025-05-07 19h02.24.937421 +0200,
28,0,28,,,,,,space,52.32183259999965,None,None,2,None,0.906232799999998,0.47109739999996236,0,0,0,0,,,,,1,0,1,0,,,,,28,0,28,0,1048.4873722000002,,,,,,,,,,,,,,,,,,,,,,,,,,,,,,,,,,,,,,,,,,,Anführer,3.9589,1048.4722381000001,1048.4728149000002,1048.4729201,1048.4873722000002,1052.4544916000004,1052.4380664,1052.4419976,1052.4544916000004,1052.4544916000004,1052.4544916000004,1052.4544916000004,1054.4537753000004,1054.4537753000004,1054.4537753000004,1054.4537753000004,1054.4383553999996,2,None,0.906232799999998,0.47109739999996236,,,,,,,,,,,,,Guess_3415,20,female,1,2025-05-07_19h02.04.177,sm,2024.2.4,59.99991600024196,2025-05-07 19h02.24.937421 +0200,
29,0,29,,,,,,space,52.32183259999965,None,None,2,None,1.065360800000235,0.46184769999945274,0,0,0,0,,,,,1,0,1,0,,,,,29,0,29,0,1054.4537753000004,,,,,,,,,,,,,,,,,,,,,,,,,,,,,,,,,,,,,,,,,,,Eule,2.4521,1054.4388400999997,1054.4394867,1054.4395906999998,1054.4537753000004,1056.9200201000003,1056.9044197000003,1056.9080021,1056.9200201000003,1056.9200201000003,1056.9200201000003,1056.9200201000003,1058.9201934000002,1058.9201934000002,1058.9201934000002,1058.9201934000002,1058.9045315000003,2,None,1.065360800000235,0.46184769999945274,,,,,,,,,,,,,Guess_3415,20,female,1,2025-05-07_19h02.04.177,sm,2024.2.4,59.99991600024196,2025-05-07 19h02.24.937421 +0200,
30,0,30,,,,,,space,52.32183259999965,None,None,3,None,1.0617032999998628,0.554212600000028,0,0,0,0,,,,,1,0,1,0,,,,,30,0,30,0,1058.9201934000002,,,,,,,,,,,,,,,,,,,,,,,,,,,,,,,,,,,,,,,,,,,Ring,2.1186,1058.9050184999996,1058.9055202,1058.9056244000003,1058.9201934000002,1061.0532936,1061.0376816999997,1061.0408224000003,1061.0532936,1061.0532936,1061.0532936,1061.0532936,1063.0531732,1063.0531732,1063.0531732,1063.0531732,1063.037523,3,None,1.0617032999998628,0.554212600000028,,,,,,,,,,,,,Guess_3415,20,female,1,2025-05-07_19h02.04.177,sm,2024.2.4,59.99991600024196,2025-05-07 19h02.24.937421 +0200,
31,0,31,,,,,,space,52.32183259999965,None,None,3,None,1.2485993000000235,0.4359756000003472,0,0,0,0,,,,,1,0,1,0,,,,,31,0,31,0,1063.0531732,,,,,,,,,,,,,,,,,,,,,,,,,,,,,,,,,,,,,,,,,,,Strand,2.0168,1063.0380142000004,1063.0385158999998,1063.0386226,1063.0531732,1065.0696489000002,1065.0537938999996,1065.0574324,1065.0696489000002,1065.0696489000002,1065.0696489000002,1065.0696489000002,1067.0697252,1067.0697252,1067.0697252,1067.0697252,1067.0541826999997,3,None,1.2485993000000235,0.4359756000003472,,,,,,,,,,,,,Guess_3415,20,female,1,2025-05-07_19h02.04.177,sm,2024.2.4,59.99991600024196,2025-05-07 19h02.24.937421 +0200,
32,0,32,,,,,,space,52.32183259999965,None,None,3,None,1.0835360000000946,0.5118839999995544,0,0,0,0,,,,,1,0,1,0,,,,,32,0,32,0,1067.0697252,,,,,,,,,,,,,,,,,,,,,,,,,,,,,,,,,,,,,,,,,,,Shampoo,2.7992,1067.0546683000002,1067.0551801000001,1067.0552833000002,1067.0697252,1069.8694323,1069.853862,1069.8580229999998,1069.8694323,1069.8694323,1069.8694323,1069.8694323,1071.8692369999999,1071.8692369999999,1071.8692369999999,1071.8692369999999,1071.8543741000003,3,None,1.0835360000000946,0.5118839999995544,,,,,,,,,,,,,Guess_3415,20,female,1,2025-05-07_19h02.04.177,sm,2024.2.4,59.99991600024196,2025-05-07 19h02.24.937421 +0200,
33,0,33,,,,,,space,52.32183259999965,None,None,3,None,1.0306726999997409,0.4895784000000276,0,0,0,0,,,,,1,0,1,0,,,,,33,0,33,0,1071.8692369999999,,,,,,,,,,,,,,,,,,,,,,,,,,,,,,,,,,,,,,,,,,,Pizza,2.2129,1071.8548317000004,1071.8553103000004,1071.8554043000004,1071.8692369999999,1074.0856397999996,1074.0701528,1074.0748016999996,1074.0856397999996,1074.0856397999996,1074.0856397999996,1074.0856397999996,1076.0857051000003,1076.0857051000003,1076.0857051000003,1076.0857051000003,1076.0704809,3,None,1.0306726999997409,0.4895784000000276,,,,,,,,,,,,,Guess_3415,20,female,1,2025-05-07_19h02.04.177,sm,2024.2.4,59.99991600024196,2025-05-07 19h02.24.937421 +0200,
34,0,34,,,,,,space,52.32183259999965,None,None,3,None,0.769242999999733,0.2004901999998765,0,0,0,0,,,,,1,0,1,0,,,,,34,0,34,0,1076.0857051000003,,,,,,,,,,,,,,,,,,,,,,,,,,,,,,,,,,,,,,,,,,,Handtuch,2.9645,1076.0709310000002,1076.0715676999998,1076.0716653,1076.0857051000003,1079.0522001,1079.0366291999999,1079.0409797000002,1079.0522001,1079.0522001,1079.0522001,1079.0522001,1081.052186,1081.052186,1081.052186,1081.052186,1081.0363888000002,3,None,0.769242999999733,0.2004901999998765,,,,,,,,,,,,,Guess_3415,20,female,1,2025-05-07_19h02.04.177,sm,2024.2.4,59.99991600024196,2025-05-07 19h02.24.937421 +0200,
35,0,35,,,,,,space,52.32183259999965,None,None,3,None,0.9829448000000411,0.412282199999936,0,0,0,0,,,,,1,0,1,0,,,,,35,0,35,0,1081.052186,,,,,,,,,,,,,,,,,,,,,,,,,,,,,,,,,,,,,,,,,,,Geburtstag,2.3843,1081.0368755999998,1081.0375067000004,1081.0376118000004,1081.052186,1083.4352205000005,1083.4200276000001,1083.4245062999998,1083.4352205000005,1083.4352205000005,1083.4352205000005,1083.4352205000005,1085.4352005,1085.4352005,1085.4352005,1085.4352005,1085.4197267,3,None,0.9829448000000411,0.412282199999936,,,,,,,,,,,,,Guess_3415,20,female,1,2025-05-07_19h02.04.177,sm,2024.2.4,59.99991600024196,2025-05-07 19h02.24.937421 +0200,
36,0,36,,,,,,space,52.32183259999965,None,None,2,None,1.1231669000007969,0.404933699999674,0,0,0,0,,,,,1,0,1,0,,,,,36,0,36,0,1085.4352005,,,,,,,,,,,,,,,,,,,,,,,,,,,,,,,,,,,,,,,,,,,Reise,4.3424,1085.4202182999998,1085.4207198000004,1085.4208214,1085.4352005,1089.7845995999996,1089.7692255000002,1089.7725123,1089.7845995999996,1089.7845995999996,1089.7845995999996,1089.7845995999996,1091.7847416000004,1091.7847416000004,1091.7847416000004,1091.7847416000004,1091.7693050999997,2,None,1.1231669000007969,0.404933699999674,,,,,,,,,,,,,Guess_3415,20,female,1,2025-05-07_19h02.04.177,sm,2024.2.4,59.99991600024196,2025-05-07 19h02.24.937421 +0200,
37,0,37,,,,,,space,52.32183259999965,None,None,3,None,0.8541826999999103,0.6488505000006626,0,0,0,0,,,,,1,0,1,0,,,,,37,0,37,0,1091.7847416000004,,,,,,,,,,,,,,,,,,,,,,,,,,,,,,,,,,,,,,,,,,,Asche,3.0547,1091.7697993000002,1091.7703121000004,1091.7704157999997,1091.7847416000004,1094.8509622000001,1094.8353966000004,1094.8385340000004,1094.8509622000001,1094.8509622000001,1094.8509622000001,1094.8509622000001,1096.8511411999998,1096.8511411999998,1096.8511411999998,1096.8511411999998,1096.8356563999996,3,None,0.8541826999999103,0.6488505000006626,,,,,,,,,,,,,Guess_3415,20,female,1,2025-05-07_19h02.04.177,sm,2024.2.4,59.99991600024196,2025-05-07 19h02.24.937421 +0200,
38,0,38,,,,,,space,52.32183259999965,None,None,2,None,0.8915397000000667,0.5296213999999964,0,0,0,0,,,,,1,0,1,0,,,,,38,0,38,0,1096.8511411999998,,,,,,,,,,,,,,,,,,,,,,,,,,,,,,,,,,,,,,,,,,,Publikum,2.8901,1096.8361501,1096.8366600999998,1096.8367635000004,1096.8511411999998,1099.7516778,1099.7356049999999,1099.7399017999996,1099.7516778,1099.7516778,1099.7516778,1099.7516778,1101.7508777000003,1101.7508777000003,1101.7508777000003,1101.7508777000003,1101.7353900999997,2,None,0.8915397000000667,0.5296213999999964,,,,,,,,,,,,,Guess_3415,20,female,1,2025-05-07_19h02.04.177,sm,2024.2.4,59.99991600024196,2025-05-07 19h02.24.937421 +0200,
39,0,39,,,,,,space,52.32183259999965,None,None,3,None,1.2453557999997429,None,0,0,0,0,,,,,1,0,1,0,,,,,39,0,39,0,1101.7508777000003,,,,,,,,,,,,,,,,,,,,,,,,,,,,,,,,,,,,,,,,,,,Dschungel,2.1949,1101.7358419000002,1101.7363691,1101.7364656999998,1101.7508777000003,1103.9507500999998,1103.9349995000002,1103.9389413,1103.9507500999998,1103.9507500999998,1103.9507500999998,1103.9507500999998,1105.9507727,1105.9507727,1105.9507727,1105.9507727,1105.9351669999996,3,None,1.2453557999997429,None,,,,,,,,,,,,,Guess_3415,20,female,1,2025-05-07_19h02.04.177,sm,2024.2.4,59.99991600024196,2025-05-07 19h02.24.937421 +0200,
40,0,40,,,,,,space,52.32183259999965,None,None,3,None,0.9398180000007414,0.5495588999992833,0,0,0,0,,,,,1,0,1,0,,,,,40,0,40,0,1105.9507727,,,,,,,,,,,,,,,,,,,,,,,,,,,,,,,,,,,,,,,,,,,Klippe,2.3419,1105.9356229000005,1105.9361454999998,1105.9362431999998,1105.9507727,1108.3005027999998,1108.2846840000002,1108.2896833000004,1108.3005027999998,1108.3005027999998,1108.3005027999998,1108.3005027999998,1110.3006047999997,1110.3006047999997,1110.3006047999997,1110.3006047999997,1110.2852027,3,None,0.9398180000007414,0.5495588999992833,,,,,,,,,,,,,Guess_3415,20,female,1,2025-05-07_19h02.04.177,sm,2024.2.4,59.99991600024196,2025-05-07 19h02.24.937421 +0200,
41,0,41,,,,,,space,52.32183259999965,None,None,3,None,0.7234222999995836,0.4593631000007008,0,0,0,0,,,,,1,0,1,0,,,,,41,0,41,0,1110.3006047999997,,,,,,,,,,,,,,,,,,,,,,,,,,,,,,,,,,,,,,,,,,,Teller,3.6297,1110.2856896000003,1110.2863366000001,1110.2864404000002,1110.3006047999997,1113.9337867000004,1113.9180821,1113.9221140999998,1113.9337867000004,1113.9337867000004,1113.9337867000004,1113.9337867000004,1115.9335621999999,1115.9335621999999,1115.9335621999999,1115.9335621999999,1115.9178481999998,3,None,0.7234222999995836,0.4593631000007008,,,,,,,,,,,,,Guess_3415,20,female,1,2025-05-07_19h02.04.177,sm,2024.2.4,59.99991600024196,2025-05-07 19h02.24.937421 +0200,
42,0,42,,,,,,space,52.32183259999965,None,None,2,None,0.8346876000005068,0.4219999999995707,0,0,0,0,,,,,1,0,1,0,,,,,42,0,42,0,1115.9335621999999,,,,,,,,,,,,,,,,,,,,,,,,,,,,,,,,,,,,,,,,,,,Gesellschaft,2.5982,1115.9183413,1115.9188506,1115.9189529000005,1115.9335621999999,1118.5332048999999,1118.5174564,1118.5213003999997,1118.5332048999999,1118.5332048999999,1118.5332048999999,1118.5332048999999,1120.5330569999996,1120.5330569999996,1120.5330569999996,1120.5330569999996,1120.5175136999997,2,None,0.8346876000005068,0.4219999999995707,,,,,,,,,,,,,Guess_3415,20,female,1,2025-05-07_19h02.04.177,sm,2024.2.4,59.99991600024196,2025-05-07 19h02.24.937421 +0200,
43,0,43,,,,,,space,52.32183259999965,None,None,3,None,0.9324517000004562,0.5753309000001536,0,0,0,0,,,,,1,0,1,0,,,,,43,0,43,0,1120.5330569999996,,,,,,,,,,,,,,,,,,,,,,,,,,,,,,,,,,,,,,,,,,,Klebstoff,2.6446,1120.5180036000002,1120.5186689000002,1120.5187761999996,1120.5330569999996,1123.1827248999998,1123.1672282999998,1123.1708145000002,1123.1827248999998,1123.1827248999998,1123.1827248999998,1123.1827248999998,1125.1831029000004,1125.1831029000004,1125.1831029000004,1125.1831029000004,1125.1673348000004,3,None,0.9324517000004562,0.5753309000001536,,,,,,,,,,,,,Guess_3415,20,female,1,2025-05-07_19h02.04.177,sm,2024.2.4,59.99991600024196,2025-05-07 19h02.24.937421 +0200,
44,0,44,,,,,,space,52.32183259999965,None,None,2,None,0.9680711000000883,0.3915222999994512,0,0,0,0,,,,,1,0,1,0,,,,,44,0,44,0,1125.1831029000004,,,,,,,,,,,,,,,,,,,,,,,,,,,,,,,,,,,,,,,,,,,Rose,3.4445,1125.1677392000001,1125.1682036000002,1125.1682926000003,1125.1831029000004,1128.6327407999997,1128.6171790999997,1128.6207286999997,1128.6327407999997,1128.6327407999997,1128.6327407999997,1128.6327407999997,1130.6327653999997,1130.6327653999997,1130.6327653999997,1130.6327653999997,1130.6175628,2,None,0.9680711000000883,0.3915222999994512,,,,,,,,,,,,,Guess_3415,20,female,1,2025-05-07_19h02.04.177,sm,2024.2.4,59.99991600024196,2025-05-07 19h02.24.937421 +0200,
45,0,45,,,,,,space,52.32183259999965,None,None,2,None,1.1349239999999554,0.4362401000007594,0,0,0,0,,,,,1,0,1,0,,,,,45,0,45,0,1130.6327653999997,,,,,,,,,,,,,,,,,,,,,,,,,,,,,,,,,,,,,,,,,,,Zeigen,2.9036,1130.6180482,1130.6185772,1130.6186785999998,1130.6327653999997,1133.5488784999998,1133.5334580999997,1133.5372054,1133.5488784999998,1133.5488784999998,1133.5488784999998,1133.5488784999998,1135.5489232,1135.5489232,1135.5489232,1135.5489232,1135.5336312999998,2,None,1.1349239999999554,0.4362401000007594,,,,,,,,,,,,,Guess_3415,20,female,1,2025-05-07_19h02.04.177,sm,2024.2.4,59.99991600024196,2025-05-07 19h02.24.937421 +0200,
46,0,46,,,,,,space,52.32183259999965,None,None,3,None,1.364444600000752,0.49708689999988565,0,0,0,0,,,,,1,0,1,0,,,,,46,0,46,0,1135.5489232,,,,,,,,,,,,,,,,,,,,,,,,,,,,,,,,,,,,,,,,,,,Poesie,2.0589,1135.5341304000003,1135.5346436999998,1135.5347479000002,1135.5489232,1137.6155953999996,1137.5998683999997,1137.6038520000002,1137.6155953999996,1137.6155953999996,1137.6155953999996,1137.6155953999996,1139.6153801,1139.6153801,1139.6153801,1139.6153801,1139.6001679,3,None,1.364444600000752,0.49708689999988565,,,,,,,,,,,,,Guess_3415,20,female,1,2025-05-07_19h02.04.177,sm,2024.2.4,59.99991600024196,2025-05-07 19h02.24.937421 +0200,
47,0,47,,,,,,space,52.32183259999965,None,None,3,None,0.9198953999994046,0.45277679999981046,0,0,0,0,,,,,1,0,1,0,,,,,47,0,47,0,1139.6153801,,,,,,,,,,,,,,,,,,,,,,,,,,,,,,,,,,,,,,,,,,,Zug,2.1697,1139.6006605000002,1139.6011675999998,1139.6012766000003,1139.6153801,1141.7984954000003,1141.7829828000004,1141.7874832999996,1141.7984954000003,1141.7984954000003,1141.7984954000003,1141.7984954000003,1143.7989881000003,1143.7989881000003,1143.7989881000003,1143.7989881000003,1143.7833094999996,3,None,0.9198953999994046,0.45277679999981046,,,,,,,,,,,,,Guess_3415,20,female,1,2025-05-07_19h02.04.177,sm,2024.2.4,59.99991600024196,2025-05-07 19h02.24.937421 +0200,
48,0,48,,,,,,space,52.32183259999965,None,None,3,None,1.355061499999465,0.43468600000051083,0,0,0,0,,,,,1,0,1,0,,,,,48,0,48,0,1143.7989881000003,,,,,,,,,,,,,,,,,,,,,,,,,,,,,,,,,,,,,,,,,,,Wahrheit,2.6312,1143.7838038,1143.7845859,1143.7846958999999,1143.7989881000003,1146.4316550000003,1146.4160832999996,1146.4196107999996,1146.4316550000003,1146.4316550000003,1146.4316550000003,1146.4316550000003,1148.4325314999996,1148.4325314999996,1148.4325314999996,1148.4325314999996,1148.4160137,3,None,1.355061499999465,0.43468600000051083,,,,,,,,,,,,,Guess_3415,20,female,1,2025-05-07_19h02.04.177,sm,2024.2.4,59.99991600024196,2025-05-07 19h02.24.937421 +0200,
49,0,49,,,,,,space,52.32183259999965,None,None,3,None,0.9475376000000324,0.4750862999999299,0,0,0,0,,,,,1,0,1,0,,,,,49,0,49,0,1148.4325314999996,,,,,,,,,,,,,,,,,,,,,,,,,,,,,,,,,,,,,,,,,,,Kissen,4.3756,1148.4165001000001,1148.4172005,1148.4173091000002,1148.4325314999996,1152.8145854000004,1152.7989324,1152.8030281000001,1152.8145854000004,1152.8145854000004,1152.8145854000004,1152.8145854000004,1154.8146093000005,1154.8146093000005,1154.8146093000005,1154.8146093000005,1154.7989907,3,None,0.9475376000000324,0.4750862999999299,,,,,,,,,,,,,Guess_3415,20,female,1,2025-05-07_19h02.04.177,sm,2024.2.4,59.99991600024196,2025-05-07 19h02.24.937421 +0200,
50,0,50,,,,,,space,52.32183259999965,None,None,3,None,0.804540299999644,0.38650679999955173,0,0,0,0,,,,,1,0,1,0,,,,,50,0,50,0,1154.8146093000005,,,,,,,,,,,,,,,,,,,,,,,,,,,,,,,,,,,,,,,,,,,Pumpe,5.1698,1154.7994900000003,1154.8001254,1154.8002290000004,1154.8146093000005,1159.9975817000004,1159.9819164,1159.9852391000004,1159.9975817000004,1159.9975817000004,1159.9975817000004,1159.9975817000004,1161.9975175999998,1161.9975175999998,1161.9975175999998,1161.9975175999998,1161.9820404000002,3,None,0.804540299999644,0.38650679999955173,,,,,,,,,,,,,Guess_3415,20,female,1,2025-05-07_19h02.04.177,sm,2024.2.4,59.99991600024196,2025-05-07 19h02.24.937421 +0200,
51,0,51,,,,,,space,52.32183259999965,None,None,3,None,1.2139017999998032,0.3568410000007134,0,0,0,0,,,,,1,0,1,0,,,,,51,0,51,0,1161.9975175999998,,,,,,,,,,,,,,,,,,,,,,,,,,,,,,,,,,,,,,,,,,,Sturm,2.8863,1161.9825307,1161.9831752999999,1161.9832777000001,1161.9975175999998,1164.8969902,1164.8814819,1164.8852679000001,1164.8969902,1164.8969902,1164.8969902,1164.8969902,1166.8971920000004,1166.8971920000004,1166.8971920000004,1166.8971920000004,1166.8816506000003,3,None,1.2139017999998032,0.3568410000007134,,,,,,,,,,,,,Guess_3415,20,female,1,2025-05-07_19h02.04.177,sm,2024.2.4,59.99991600024196,2025-05-07 19h02.24.937421 +0200,
52,0,52,,,,,,space,52.32183259999965,None,None,2,None,1.0568851999996696,0.38003200000002835,0,0,0,0,,,,,1,0,1,0,,,,,52,0,52,0,1166.8971920000004,,,,,,,,,,,,,,,,,,,,,,,,,,,,,,,,,,,,,,,,,,,Zwerg,2.1413,1166.8821426000004,1166.8827254999997,1166.8828320000002,1166.8971920000004,1169.0470877999996,1169.0317882999998,1169.0368368,1169.0470877999996,1169.0470877999996,1169.0470877999996,1169.0470877999996,1171.0469702,1171.0469702,1171.0469702,1171.0469702,1171.0313237,2,None,1.0568851999996696,0.38003200000002835,,,,,,,,,,,,,Guess_3415,20,female,1,2025-05-07_19h02.04.177,sm,2024.2.4,59.99991600024196,2025-05-07 19h02.24.937421 +0200,
53,0,53,,,,,,space,52.32183259999965,None,None,3,None,0.8565060999999332,0.49050960000022314,0,0,0,0,,,,,1,0,1,0,,,,,53,0,53,0,1171.0469702,,,,,,,,,,,,,,,,,,,,,,,,,,,,,,,,,,,,,,,,,,,Schleim,3.6723,1171.0318078999999,1171.0323736,1171.0324742000003,1171.0469702,1174.7298223999996,1174.7142807,1174.7179180000003,1174.7298223999996,1174.7298223999996,1174.7298223999996,1174.7298223999996,1176.7300041999997,1176.7300041999997,1176.7300041999997,1176.7300041999997,1176.7144220999999,3,None,0.8565060999999332,0.49050960000022314,,,,,,,,,,,,,Guess_3415,20,female,1,2025-05-07_19h02.04.177,sm,2024.2.4,59.99991600024196,2025-05-07 19h02.24.937421 +0200,
54,0,54,,,,,,space,52.32183259999965,None,None,3,None,1.194542299999739,0.5300090000000637,0,0,0,0,,,,,1,0,1,0,,,,,54,0,54,0,1176.7300041999997,,,,,,,,,,,,,,,,,,,,,,,,,,,,,,,,,,,,,,,,,,,Schuh,2.2639,1176.7148911000004,1176.7155156,1176.7156169999998,1176.7300041999997,1178.9966330999996,1178.9808272999999,1178.9856522,1178.9966330999996,1178.9966330999996,1178.9966330999996,1178.9966330999996,1180.9964903999999,1180.9964903999999,1180.9964903999999,1180.9964903999999,1180.9811804,3,None,1.194542299999739,0.5300090000000637,,,,,,,,,,,,,Guess_3415,20,female,1,2025-05-07_19h02.04.177,sm,2024.2.4,59.99991600024196,2025-05-07 19h02.24.937421 +0200,
55,0,55,,,,,,space,52.32183259999965,None,None,2,None,1.2191976000003706,0.44317270000010467,0,0,0,0,,,,,1,0,1,0,,,,,55,0,55,0,1180.9964903999999,,,,,,,,,,,,,,,,,,,,,,,,,,,,,,,,,,,,,,,,,,,Angriff,3.6615,1180.9816775999998,1180.9821947,1180.9823019000005,1180.9964903999999,1184.6625669000005,1184.6471690999997,1184.6509453999997,1184.6625669000005,1184.6625669000005,1184.6625669000005,1184.6625669000005,1186.6627692000002,1186.6627692000002,1186.6627692000002,1186.6627692000002,1186.6472487,2,None,1.2191976000003706,0.44317270000010467,,,,,,,,,,,,,Guess_3415,20,female,1,2025-05-07_19h02.04.177,sm,2024.2.4,59.99991600024196,2025-05-07 19h02.24.937421 +0200,
56,0,56,,,,,,space,52.32183259999965,None,None,3,None,0.8315249000006588,0.5734457999997176,0,0,0,0,,,,,1,0,1,0,,,,,56,0,56,0,1186.6627692000002,,,,,,,,,,,,,,,,,,,,,,,,,,,,,,,,,,,,,,,,,,,Chips,3.1264,1186.6477357000003,1186.6482382000004,1186.6483417,1186.6627692000002,1189.7961679999999,1189.7801771000004,1189.7870980999996,1189.7961679999999,1189.7961679999999,1189.7961679999999,1189.7961679999999,1191.7958631000001,1191.7958631000001,1191.7958631000001,1191.7958631000001,1191.7801375999998,3,None,0.8315249000006588,0.5734457999997176,,,,,,,,,,,,,Guess_3415,20,female,1,2025-05-07_19h02.04.177,sm,2024.2.4,59.99991600024196,2025-05-07 19h02.24.937421 +0200,
57,0,57,,,,,,space,52.32183259999965,None,None,3,None,1.0272279999999228,0.4623903000001519,0,0,0,0,,,,,1,0,1,0,,,,,57,0,57,0,1191.7958631000001,,,,,,,,,,,,,,,,,,,,,,,,,,,,,,,,,,,,,,,,,,,Rauch,4.4429,1191.7806303999996,1191.7811860000002,1191.7812886000002,1191.7958631000001,1196.2454745000005,1196.2297328000004,1196.2331684,1196.2454745000005,1196.2454745000005,1196.2454745000005,1196.2454745000005,1198.2451561999997,1198.2451561999997,1198.2451561999997,1198.2451561999997,1198.2301882000002,3,None,1.0272279999999228,0.4623903000001519,,,,,,,,,,,,,Guess_3415,20,female,1,2025-05-07_19h02.04.177,sm,2024.2.4,59.99991600024196,2025-05-07 19h02.24.937421 +0200,
58,0,58,,,,,,space,52.32183259999965,None,None,3,None,1.0392314000000624,0.5275526999994327,0,0,0,0,,,,,1,0,1,0,,,,,58,0,58,0,1198.2451561999997,,,,,,,,,,,,,,,,,,,,,,,,,,,,,,,,,,,,,,,,,,,Ball,3.6564,1198.2306478,1198.2311410000002,1198.2312377999997,1198.2451561999997,1201.9124840000004,1201.8961716000003,1201.8994937999996,1201.9124840000004,1201.9124840000004,1201.9124840000004,1201.9124840000004,1203.9119277,1203.9119277,1203.9119277,1203.9119277,1203.8961532000003,3,None,1.0392314000000624,0.5275526999994327,,,,,,,,,,,,,Guess_3415,20,female,1,2025-05-07_19h02.04.177,sm,2024.2.4,59.99991600024196,2025-05-07 19h02.24.937421 +0200,
59,0,59,,,,,,space,52.32183259999965,None,None,3,None,0.8083105999994586,0.5253946000002543,0,0,0,0,,,,,1,0,1,0,,,,,59,0,59,0,1203.9119277,,,,,,,,,,,,,,,,,,,,,,,,,,,,,,,,,,,,,,,,,,,Kaffee,4.3942,1203.8966394999998,1203.8971420999997,1203.8972463,1203.9119277,1208.3115596999996,1208.2959969000003,1208.2999719,1208.3115596999996,1208.3115596999996,1208.3115596999996,1208.3115596999996,1210.3136170999996,1210.3136170999996,1210.3136170999996,1210.3136170999996,1210.295623,3,None,0.8083105999994586,0.5253946000002543,,,,,,,,,,,,,Guess_3415,20,female,1,2025-05-07_19h02.04.177,sm,2024.2.4,59.99991600024196,2025-05-07 19h02.24.937421 +0200,
0,0,0,,,,,2.5169,space,17.73306009999942,None,None,2,None,1.0852595999995174,0.35003710000000865,0,0,0,0,,,,,2,0,2,0,0,79,79,50,0,0,0,0,1270.5245292,,,,,,,,,,,,,,,,,,,,,,,,,,1228.2745942000001,1228.274816,1228.2821176999996,1228.2864612000003,1228.2864612000003,1246.0275935999998,space,17.73306009999942,None,1246.0277463000002,1246.0426785,1246.0426785,1258.5082320000001,None,1258.5083752,1258.5254636999998,1270.5089852,Vogel,2.5169,1270.5101206999998,1270.5107533999999,1270.5108470000005,1270.5245292,1273.0415389,1273.0254645000005,1273.0285694000004,1273.0415389,1273.0415389,1273.0415389,1273.0415389,1275.0409061,1275.0409061,1275.0409061,1275.0409061,1275.0254948000002,2,None,1.0852595999995174,0.35003710000000865,1222.3109765999998,1222.3274473000001,1222.3274473000001,1228.2292761999997,2,5.884143700000095,None,1270.5245292,,,,,Guess_3415,20,female,1,2025-05-07_19h02.04.177,sm,2024.2.4,59.99991600024196,2025-05-07 19h02.24.937421 +0200,
1,0,1,,,,,,space,17.73306009999942,None,None,2,None,0.929831400000694,0.3702715999997963,0,0,0,0,,,,,2,0,2,0,,,,,1,0,1,0,1275.0409061,,,,,,,,,,,,,,,,,,,,,,,,,,,,,,,,,,,,,,,,,,,Arm,4.5524,1275.0259859999996,1275.0264942000003,1275.0266015999996,1275.0409061,1279.607462,1279.5918940000001,1279.5952908,1279.607462,1279.607462,1279.607462,1279.607462,1281.6072639000004,1281.6072639000004,1281.6072639000004,1281.6072639000004,1281.5922817,2,None,0.929831400000694,0.3702715999997963,,,,,,,,,,,,,Guess_3415,20,female,1,2025-05-07_19h02.04.177,sm,2024.2.4,59.99991600024196,2025-05-07 19h02.24.937421 +0200,
2,0,2,,,,,,space,17.73306009999942,None,None,2,None,0.8543656000001647,0.34306829999968613,0,0,0,0,,,,,2,0,2,0,,,,,2,0,2,0,1281.6072639000004,,,,,,,,,,,,,,,,,,,,,,,,,,,,,,,,,,,,,,,,,,,Ziege,2.2129,1281.5927714,1281.5932868,1281.5933904000003,1281.6072639000004,1283.8238294000002,1283.8082376000002,1283.8121910999998,1283.8238294000002,1283.8238294000002,1283.8238294000002,1283.8238294000002,1285.8236391,1285.8236391,1285.8236391,1285.8236391,1285.8079518000004,2,None,0.8543656000001647,0.34306829999968613,,,,,,,,,,,,,Guess_3415,20,female,1,2025-05-07_19h02.04.177,sm,2024.2.4,59.99991600024196,2025-05-07 19h02.24.937421 +0200,
3,0,3,,,,,,space,17.73306009999942,None,None,3,None,0.952545199999804,0.5215072000000873,0,0,0,0,,,,,2,0,2,0,,,,,3,0,3,0,1285.8236391,,,,,,,,,,,,,,,,,,,,,,,,,,,,,,,,,,,,,,,,,,,Hülse,5.1698,1285.8083820000002,1285.8089874999996,1285.8090791000004,1285.8236391,1291.0068706000002,1290.9909244,1290.9942182000004,1291.0068706000002,1291.0068706000002,1291.0068706000002,1291.0068706000002,1293.0066023,1293.0066023,1293.0066023,1293.0066023,1292.9911812999999,3,None,0.952545199999804,0.5215072000000873,,,,,,,,,,,,,Guess_3415,20,female,1,2025-05-07_19h02.04.177,sm,2024.2.4,59.99991600024196,2025-05-07 19h02.24.937421 +0200,
4,0,4,,,,,,space,17.73306009999942,None,None,3,None,0.9021346999998059,0.44660300000032294,0,0,0,0,,,,,2,0,2,0,,,,,4,0,4,0,1293.0066023,,,,,,,,,,,,,,,,,,,,,,,,,,,,,,,,,,,,,,,,,,,Sauber,3.6723,1292.9916679999997,1292.9923104,1292.9924145000005,1293.0066023,1296.6897096000002,1296.6743278000004,1296.6785404000002,1296.6897096000002,1296.6897096000002,1296.6897096000002,1296.6897096000002,1298.6897001999996,1298.6897001999996,1298.6897001999996,1298.6897001999996,1298.6741652,3,None,0.9021346999998059,0.44660300000032294,,,,,,,,,,,,,Guess_3415,20,female,1,2025-05-07_19h02.04.177,sm,2024.2.4,59.99991600024196,2025-05-07 19h02.24.937421 +0200,
5,0,5,,,,,,space,17.73306009999942,None,None,2,None,0.8500989000003756,0.46462199999950826,0,0,0,0,,,,,2,0,2,0,,,,,5,0,5,0,1298.6897001999996,,,,,,,,,,,,,,,,,,,,,,,,,,,,,,,,,,,,,,,,,,,Junge,3.6005,1298.6746681000004,1298.6751782000001,1298.6752808,1298.6897001999996,1302.2898599,1302.2740460000005,1302.2822956999998,1302.2898599,1302.2898599,1302.2898599,1302.2898599,1304.2894538,1304.2894538,1304.2894538,1304.2894538,1304.2737415000001,2,None,0.8500989000003756,0.46462199999950826,,,,,,,,,,,,,Guess_3415,20,female,1,2025-05-07_19h02.04.177,sm,2024.2.4,59.99991600024196,2025-05-07 19h02.24.937421 +0200,
6,0,6,,,,,,space,17.73306009999942,None,None,3,None,0.8379660000000513,0.45681039999999484,0,0,0,0,,,,,2,0,2,0,,,,,6,0,6,0,1304.2894538,,,,,,,,,,,,,,,,,,,,,,,,,,,,,,,,,,,,,,,,,,,Rot,4.0852,1304.2742329000002,1304.2747397000003,1304.2748442000002,1304.2894538,1308.3890474,1308.3734347999998,1308.3769386000004,1308.3890474,1308.3890474,1308.3890474,1308.3890474,1310.3891074000003,1310.3891074000003,1310.3891074000003,1310.3891074000003,1310.373579,3,None,0.8379660000000513,0.45681039999999484,,,,,,,,,,,,,Guess_3415,20,female,1,2025-05-07_19h02.04.177,sm,2024.2.4,59.99991600024196,2025-05-07 19h02.24.937421 +0200,
7,0,7,,,,,,space,17.73306009999942,None,None,2,None,1.277709899999536,0.4483311000003596,0,0,0,0,,,,,2,0,2,0,,,,,7,0,7,0,1310.3891074000003,,,,,,,,,,,,,,,,,,,,,,,,,,,,,,,,,,,,,,,,,,,Safari,2.9061,1310.3740645999997,1310.3748123000005,1310.3749165,1310.3891074000003,1313.3053060000002,1313.2898888999998,1313.2933162,1313.3053060000002,1313.3053060000002,1313.3053060000002,1313.3053060000002,1315.3055316,1315.3055316,1315.3055316,1315.3055316,1315.2899070000003,2,None,1.277709899999536,0.4483311000003596,,,,,,,,,,,,,Guess_3415,20,female,1,2025-05-07_19h02.04.177,sm,2024.2.4,59.99991600024196,2025-05-07 19h02.24.937421 +0200,
8,0,8,,,,,,space,17.73306009999942,None,None,2,None,1.1345942999996623,0.3902335000002495,0,0,0,0,,,,,2,0,2,0,,,,,8,0,8,0,1315.3055316,,,,,,,,,,,,,,,,,,,,,,,,,,,,,,,,,,,,,,,,,,,Kaktus,2.83,1315.2903982999997,1315.2909049999998,1315.2910067000003,1315.3055316,1318.1384928999996,1318.1231343,1318.1272693,1318.1384928999996,1318.1384928999996,1318.1384928999996,1318.1384928999996,1320.1385395999996,1320.1385395999996,1320.1385395999996,1320.1385395999996,1320.1228155,2,None,1.1345942999996623,0.3902335000002495,,,,,,,,,,,,,Guess_3415,20,female,1,2025-05-07_19h02.04.177,sm,2024.2.4,59.99991600024196,2025-05-07 19h02.24.937421 +0200,
9,0,9,,,,,,space,17.73306009999942,None,None,3,None,1.212037300000702,0.32617989999926067,0,0,0,0,,,,,2,0,2,0,,,,,9,0,9,0,1320.1385395999996,,,,,,,,,,,,,,,,,,,,,,,,,,,,,,,,,,,,,,,,,,,Garten,3.189,1320.1233080000002,1320.1238160000003,1320.1239206999999,1320.1385395999996,1323.3380150000003,1323.3227463000003,1323.3267341,1323.3380150000003,1323.3380150000003,1323.3380150000003,1323.3380150000003,1325.3381288,1325.3381288,1325.3381288,1325.3381288,1325.3227238,3,None,1.212037300000702,0.32617989999926067,,,,,,,,,,,,,Guess_3415,20,female,1,2025-05-07_19h02.04.177,sm,2024.2.4,59.99991600024196,2025-05-07 19h02.24.937421 +0200,
10,0,10,,,,,,space,17.73306009999942,None,None,3,None,1.1887034000001222,0.4168571999998676,0,0,0,0,,,,,2,0,2,0,,,,,10,0,10,0,1325.3381288,,,,,,,,,,,,,,,,,,,,,,,,,,,,,,,,,,,,,,,,,,,Zähne,2.6446,1325.3232229000005,1325.3237302999996,1325.3238360000005,1325.3381288,1327.9877009000002,1327.9721333999996,1327.9757636000004,1327.9877009000002,1327.9877009000002,1327.9877009000002,1327.9877009000002,1329.9880215000003,1329.9880215000003,1329.9880215000003,1329.9880215000003,1329.9727233000003,3,None,1.1887034000001222,0.4168571999998676,,,,,,,,,,,,,Guess_3415,20,female,1,2025-05-07_19h02.04.177,sm,2024.2.4,59.99991600024196,2025-05-07 19h02.24.937421 +0200,
11,0,11,,,,,,space,17.73306009999942,None,None,2,None,0.9404998999998497,0.466776100000061,0,0,0,0,,,,,2,0,2,0,,,,,11,0,11,0,1329.9880215000003,,,,,,,,,,,,,,,,,,,,,,,,,,,,,,,,,,,,,,,,,,,Boss,3.6438,1329.9732089999998,1329.9737844,1329.9738880000004,1329.9880215000003,1333.6377107999997,1333.6227402000004,1333.6269358,1333.6377107999997,1333.6377107999997,1333.6377107999997,1333.6377107999997,1335.6375027000004,1335.6375027000004,1335.6375027000004,1335.6375027000004,1335.6219707,2,None,0.9404998999998497,0.466776100000061,,,,,,,,,,,,,Guess_3415,20,female,1,2025-05-07_19h02.04.177,sm,2024.2.4,59.99991600024196,2025-05-07 19h02.24.937421 +0200,
12,0,12,,,,,,space,17.73306009999942,None,None,3,None,0.9468773999997211,0.4552708999999595,0,0,0,0,,,,,2,0,2,0,,,,,12,0,12,0,1335.6375027000004,,,,,,,,,,,,,,,,,,,,,,,,,,,,,,,,,,,,,,,,,,,Musik,2.3599,1335.6224541000001,1335.6229886,1335.6230923000003,1335.6375027000004,1338.0041478000003,1337.9882761999997,1337.9921929000002,1338.0041478000003,1338.0041478000003,1338.0041478000003,1338.0041478000003,1340.0040974000003,1340.0040974000003,1340.0040974000003,1340.0040974000003,1339.9883987000003,3,None,0.9468773999997211,0.4552708999999595,,,,,,,,,,,,,Guess_3415,20,female,1,2025-05-07_19h02.04.177,sm,2024.2.4,59.99991600024196,2025-05-07 19h02.24.937421 +0200,
13,0,13,,,,,,space,17.73306009999942,None,None,3,None,1.2043033999998443,0.4561319000004005,0,0,0,0,,,,,2,0,2,0,,,,,13,0,13,0,1340.0040974000003,,,,,,,,,,,,,,,,,,,,,,,,,,,,,,,,,,,,,,,,,,,Harmonie,2.3419,1339.9888829000001,1339.9895269999997,1339.9896329000003,1340.0040974000003,1342.3539356,1342.3380173000005,1342.3419061000004,1342.3539356,1342.3539356,1342.3539356,1342.3539356,1344.3536427,1344.3536427,1344.3536427,1344.3536427,1344.3383297999999,3,None,1.2043033999998443,0.4561319000004005,,,,,,,,,,,,,Guess_3415,20,female,1,2025-05-07_19h02.04.177,sm,2024.2.4,59.99991600024196,2025-05-07 19h02.24.937421 +0200,
14,0,14,,,,,,space,17.73306009999942,None,None,3,None,0.9914689000006547,0.35241580000001704,0,0,0,0,,,,,2,0,2,0,,,,,14,0,14,0,1344.3536427,,,,,,,,,,,,,,,,,,,,,,,,,,,,,,,,,,,,,,,,,,,Geschäft,4.4429,1344.3388180000002,1344.3393228000004,1344.3394263999999,1344.3536427,1348.8033824000004,1348.7879831,1348.7922306,1348.8033824000004,1348.8033824000004,1348.8033824000004,1348.8033824000004,1350.8032456,1350.8032456,1350.8032456,1350.8032456,1350.7877930000004,3,None,0.9914689000006547,0.35241580000001704,,,,,,,,,,,,,Guess_3415,20,female,1,2025-05-07_19h02.04.177,sm,2024.2.4,59.99991600024196,2025-05-07 19h02.24.937421 +0200,
15,0,15,,,,,,space,17.73306009999942,None,None,3,None,0.9473834999998871,0.5982966000001397,0,0,0,0,,,,,2,0,2,0,,,,,15,0,15,0,1350.8032456,,,,,,,,,,,,,,,,,,,,,,,,,,,,,,,,,,,,,,,,,,,Zimmer,4.4767,1350.7882201000002,1350.7889328,1350.7890257999998,1350.8032456,1355.2862973000001,1355.2707588000003,1355.2748411000002,1355.2862973000001,1355.2862973000001,1355.2862973000001,1355.2862973000001,1357.2863883999999,1357.2863883999999,1357.2863883999999,1357.2863883999999,1357.2707539000003,3,None,0.9473834999998871,0.5982966000001397,,,,,,,,,,,,,Guess_3415,20,female,1,2025-05-07_19h02.04.177,sm,2024.2.4,59.99991600024196,2025-05-07 19h02.24.937421 +0200,
16,0,16,,,,,,space,17.73306009999942,None,None,3,None,1.0012227999995957,0.5146028999997725,0,0,0,0,,,,,2,0,2,0,,,,,16,0,16,0,1357.2863883999999,,,,,,,,,,,,,,,,,,,,,,,,,,,,,,,,,,,,,,,,,,,Winter,2.8516,1357.2712449,1357.2717664000002,1357.2718672,1357.2863883999999,1360.1531199,1360.1372594000004,1360.1414433999998,1360.1531199,1360.1531199,1360.1531199,1360.1531199,1362.1529696999996,1362.1529696999996,1362.1529696999996,1362.1529696999996,1362.1371804999999,3,None,1.0012227999995957,0.5146028999997725,,,,,,,,,,,,,Guess_3415,20,female,1,2025-05-07_19h02.04.177,sm,2024.2.4,59.99991600024196,2025-05-07 19h02.24.937421 +0200,
17,0,17,,,,,,space,17.73306009999942,None,None,3,None,0.848931900000025,0.4956488999996509,0,0,0,0,,,,,2,0,2,0,,,,,17,0,17,0,1362.1529696999996,,,,,,,,,,,,,,,,,,,,,,,,,,,,,,,,,,,,,,,,,,,Küche,2.2385,1362.1376765000005,1362.1381807999996,1362.1382962999996,1362.1529696999996,1364.4025898,1364.3868743000003,1364.3901695000004,1364.4025898,1364.4025898,1364.4025898,1364.4025898,1366.4024685000004,1366.4024685000004,1366.4024685000004,1366.4024685000004,1366.3868542999999,3,None,0.848931900000025,0.4956488999996509,,,,,,,,,,,,,Guess_3415,20,female,1,2025-05-07_19h02.04.177,sm,2024.2.4,59.99991600024196,2025-05-07 19h02.24.937421 +0200,
18,0,18,,,,,,space,17.73306009999942,None,None,2,None,1.2644001999997272,0.33106390000011743,0,0,0,0,,,,,2,0,2,0,,,,,18,0,18,0,1366.4024685000004,,,,,,,,,,,,,,,,,,,,,,,,,,,,,,,,,,,,,,,,,,,Ehe,2.9645,1366.3873413000001,1366.3878483999997,1366.3879551999999,1366.4024685000004,1369.3685768000005,1369.3533542000005,1369.3570117999998,1369.3685768000005,1369.3685768000005,1369.3685768000005,1369.3685768000005,1371.3687277,1371.3687277,1371.3687277,1371.3687277,1371.3533505000005,2,None,1.2644001999997272,0.33106390000011743,,,,,,,,,,,,,Guess_3415,20,female,1,2025-05-07_19h02.04.177,sm,2024.2.4,59.99991600024196,2025-05-07 19h02.24.937421 +0200,
19,0,19,,,,,,space,17.73306009999942,None,None,3,None,0.8377956000003906,0.4212830999995276,0,0,0,0,,,,,2,0,2,0,,,,,19,0,19,0,1371.3687277,,,,,,,,,,,,,,,,,,,,,,,,,,,,,,,,,,,,,,,,,,,Dunkelheit,3.9589,1371.3538482000004,1371.3543535,1371.3544613000004,1371.3687277,1375.3352464,1375.3196863000003,1375.3238834000003,1375.3352464,1375.3352464,1375.3352464,1375.3352464,1377.3353084999999,1377.3353084999999,1377.3353084999999,1377.3353084999999,1377.3195636,3,None,0.8377956000003906,0.4212830999995276,,,,,,,,,,,,,Guess_3415,20,female,1,2025-05-07_19h02.04.177,sm,2024.2.4,59.99991600024196,2025-05-07 19h02.24.937421 +0200,
20,0,20,,,,,,space,17.73306009999942,None,None,2,None,1.1949436000004425,0.4201350999992428,0,0,0,0,,,,,2,0,2,0,,,,,20,0,20,0,1377.3353084999999,,,,,,,,,,,,,,,,,,,,,,,,,,,,,,,,,,,,,,,,,,,Spiele,2.3843,1377.3200212000002,1377.3206391000003,1377.3207384999996,1377.3353084999999,1379.7352702999997,1379.7192166000004,1379.7229058000003,1379.7352702999997,1379.7352702999997,1379.7352702999997,1379.7352702999997,1381.7350888,1381.7350888,1381.7350888,1381.7350888,1381.7193016,2,None,1.1949436000004425,0.4201350999992428,,,,,,,,,,,,,Guess_3415,20,female,1,2025-05-07_19h02.04.177,sm,2024.2.4,59.99991600024196,2025-05-07 19h02.24.937421 +0200,
21,0,21,,,,,,space,17.73306009999942,None,None,3,None,0.9413458999997601,0.47490170000037324,0,0,0,0,,,,,2,0,2,0,,,,,21,0,21,0,1381.7350888,,,,,,,,,,,,,,,,,,,,,,,,,,,,,,,,,,,,,,,,,,,Wort,2.9109,1381.7197880000003,1381.7204222999999,1381.7205274999997,1381.7350888,1384.6513690000002,1384.6358949000005,1384.639185,1384.6513690000002,1384.6513690000002,1384.6513690000002,1384.6513690000002,1386.6513542000002,1386.6513542000002,1386.6513542000002,1386.6513542000002,1386.6355617,3,None,0.9413458999997601,0.47490170000037324,,,,,,,,,,,,,Guess_3415,20,female,1,2025-05-07_19h02.04.177,sm,2024.2.4,59.99991600024196,2025-05-07 19h02.24.937421 +0200,
22,0,22,,,,,,space,17.73306009999942,None,None,2,None,1.5773519999993368,0.3588694000000032,0,0,0,0,,,,,2,0,2,0,,,,,22,0,22,0,1386.6513542000002,,,,,,,,,,,,,,,,,,,,,,,,,,,,,,,,,,,,,,,,,,,Kiefer,2.4916,1386.6360495999998,1386.6366937000003,1386.6367976000001,1386.6513542000002,1389.15081,1389.1351911000002,1389.1384375999996,1389.15081,1389.15081,1389.15081,1389.15081,1391.1509800000003,1391.1509800000003,1391.1509800000003,1391.1509800000003,1391.1358693000002,2,None,1.5773519999993368,0.3588694000000032,,,,,,,,,,,,,Guess_3415,20,female,1,2025-05-07_19h02.04.177,sm,2024.2.4,59.99991600024196,2025-05-07 19h02.24.937421 +0200,
23,0,23,,,,,,space,17.73306009999942,None,None,2,None,1.249172499999986,0.3942845000001398,0,0,0,0,,,,,2,0,2,0,,,,,23,0,23,0,1391.1509800000003,,,,,,,,,,,,,,,,,,,,,,,,,,,,,,,,,,,,,,,,,,,Humor,5.3655,1391.1363628999998,1391.1368678,1391.1370011,1391.1509800000003,1396.5169647000002,1396.5015646000002,1396.5048877,1396.5169647000002,1396.5169647000002,1396.5169647000002,1396.5169647000002,1398.5179527,1398.5179527,1398.5179527,1398.5179527,1398.5014363999999,2,None,1.249172499999986,0.3942845000001398,,,,,,,,,,,,,Guess_3415,20,female,1,2025-05-07_19h02.04.177,sm,2024.2.4,59.99991600024196,2025-05-07 19h02.24.937421 +0200,
24,0,24,,,,,,space,17.73306009999942,None,None,2,None,1.0165800999993735,0.42192290000002686,0,0,0,0,,,,,2,0,2,0,,,,,24,0,24,0,1398.5179527,,,,,,,,,,,,,,,,,,,,,,,,,,,,,,,,,,,,,,,,,,,Turnerin,3.0127,1398.5018621,1398.5023348000004,1398.5024283000002,1398.5179527,1401.5344218999999,1401.5179091,1401.5217364999999,1401.5344218999999,1401.5344218999999,1401.5344218999999,1401.5344218999999,1403.5336570999998,1403.5336570999998,1403.5336570999998,1403.5336570999998,1403.5180404000002,2,None,1.0165800999993735,0.42192290000002686,,,,,,,,,,,,,Guess_3415,20,female,1,2025-05-07_19h02.04.177,sm,2024.2.4,59.99991600024196,2025-05-07 19h02.24.937421 +0200,
25,0,25,,,,,,space,17.73306009999942,None,None,3,None,0.9362197999998898,0.4301197000004322,0,0,0,0,,,,,2,0,2,0,,,,,25,0,25,0,1403.5336570999998,,,,,,,,,,,,,,,,,,,,,,,,,,,,,,,,,,,,,,,,,,,Ziegel,3.2825,1403.5185299000004,1403.5191821999997,1403.5192856000003,1403.5336570999998,1406.8168457000002,1406.8012262000002,1406.8061678000004,1406.8168457000002,1406.8168457000002,1406.8168457000002,1406.8168457000002,1408.8169506000004,1408.8169506000004,1408.8169506000004,1408.8169506000004,1408.8010885000003,3,None,0.9362197999998898,0.4301197000004322,,,,,,,,,,,,,Guess_3415,20,female,1,2025-05-07_19h02.04.177,sm,2024.2.4,59.99991600024196,2025-05-07 19h02.24.937421 +0200,
26,0,26,,,,,,space,17.73306009999942,None,None,3,None,1.0230248999996547,0.44480600000042614,0,0,0,0,,,,,2,0,2,0,,,,,26,0,26,0,1408.8169506000004,,,,,,,,,,,,,,,,,,,,,,,,,,,,,,,,,,,,,,,,,,,Gewürz,2.0031,1408.8015783,1408.8021699,1408.8022742000003,1408.8169506000004,1410.8329279999998,1410.8175149999997,1410.8213231999998,1410.8329279999998,1410.8329279999998,1410.8329279999998,1410.8329279999998,1412.8331232,1412.8331232,1412.8331232,1412.8331232,1412.8175374000002,3,None,1.0230248999996547,0.44480600000042614,,,,,,,,,,,,,Guess_3415,20,female,1,2025-05-07_19h02.04.177,sm,2024.2.4,59.99991600024196,2025-05-07 19h02.24.937421 +0200,
27,0,27,,,,,,space,17.73306009999942,None,None,2,None,0.8208392000005915,0.43205439999928785,0,0,0,0,,,,,2,0,2,0,,,,,27,0,27,0,1412.8331232,,,,,,,,,,,,,,,,,,,,,,,,,,,,,,,,,,,,,,,,,,,Besucher,2.0934,1412.8180238000004,1412.8187125000004,1412.8188182000004,1412.8331232,1414.9329273000003,1414.9175335999998,1414.9218511999998,1414.9329273000003,1414.9329273000003,1414.9329273000003,1414.9329273000003,1416.9332388000003,1416.9332388000003,1416.9332388000003,1416.9332388000003,1416.9171612,2,None,0.8208392000005915,0.43205439999928785,,,,,,,,,,,,,Guess_3415,20,female,1,2025-05-07_19h02.04.177,sm,2024.2.4,59.99991600024196,2025-05-07 19h02.24.937421 +0200,
28,0,28,,,,,,space,17.73306009999942,None,None,3,None,0.8301382999998168,0.43878980000044976,0,0,0,0,,,,,2,0,2,0,,,,,28,0,28,0,1416.9332388000003,,,,,,,,,,,,,,,,,,,,,,,,,,,,,,,,,,,,,,,,,,,Teleskop,4.3424,1416.9175954000002,1416.9183051,1416.9183991,1416.9332388000003,1421.2826732000003,1421.2669990000004,1421.2711676999998,1421.2826732000003,1421.2826732000003,1421.2826732000003,1421.2826732000003,1423.2830308000002,1423.2830308000002,1423.2830308000002,1423.2830308000002,1423.2671601000002,3,None,0.8301382999998168,0.43878980000044976,,,,,,,,,,,,,Guess_3415,20,female,1,2025-05-07_19h02.04.177,sm,2024.2.4,59.99991600024196,2025-05-07 19h02.24.937421 +0200,
