thisN,thisTrialN,thisRepN,Cue,Target,Mediator1,Mediator2,iti,scanner_ready_press.keys,scanner_ready_press.rt,scanner_ready_press.duration,skip_trigger.keys,living_nonliving.keys,end_mapping.keys,living_nonliving.rt,living_nonliving.duration,blocks.thisRepN,blocks.thisTrialN,blocks.thisN,blocks.thisIndex,load_and_shuffle.thisRepN,load_and_shuffle.thisTrialN,load_and_shuffle.thisN,load_and_shuffle.thisIndex,runs.thisRepN,runs.thisTrialN,runs.thisN,runs.thisIndex,iti_loading_loop.thisRepN,iti_loading_loop.thisTrialN,iti_loading_loop.thisN,iti_loading_loop.thisIndex,semantic_mapping_run.thisRepN,semantic_mapping_run.thisTrialN,semantic_mapping_run.thisN,semantic_mapping_run.thisIndex,thisRow.t,notes,welcome.started,welcome_text.started,welcome.stopped,scout.started,scout_text.started,key_resp.started,scout.stopped,key_resp.keys,key_resp.rt,key_resp.duration,instructions_semantic_mapping1.started,sm_instructions1_text.started,sm_instructions1_key.started,instructions_semantic_mapping1.stopped,sm_instructions1_key.keys,sm_instructions1_key.rt,sm_instructions1_key.duration,instructions_semantic_mapping2.started,sm_instructions2_text.started,sm_instructions2_key.started,instructions_semantic_mapping2.stopped,sm_instructions2_key.keys,sm_instructions2_key.rt,sm_instructions2_key.duration,reset_run.started,reset_run.stopped,shuffle_items.started,shuffle_items.stopped,set_up_runs.started,set_up_runs.stopped,load_iti.started,load_iti.stopped,prep_scanner.started,scanner_ready_press.started,ready_set_text.started,prep_scanner.stopped,runs.scanner_ready_press.keys,runs.scanner_ready_press.rt,runs.scanner_ready_press.duration,wait_for_trigger.started,starting_soon.started,skip_trigger.started,wait_for_trigger.stopped,runs.skip_trigger.keys,blank.started,begin_end_run_cross.started,sound_1.started,sound_1.stopped,sound_2.started,sound_2.stopped,begin_end_run_cross.stopped,blank.stopped,CurrentItem,CurrentITI,set_up_trial.started,set_up_trial.stopped,sm_iti.started,iti_cross.started,iti_cross.stopped,sm_iti.stopped,item.started,living_nonliving.started,end_mapping.started,living_nonliving_text.started,semantic_map_item.started,item.stopped,semantic_mapping_run.living_nonliving.keys,semantic_mapping_run.end_mapping.keys,semantic_mapping_run.living_nonliving.rt,semantic_mapping_run.living_nonliving.duration,living_nonliving.stopped,end_mapping.stopped,living_nonliving_text.stopped,semantic_map_item.stopped,fieldmap.started,fieldmap.stopped,runs.fm_key.keys,task_break.started,task_break_text.started,task_break_resp.started,task_break.stopped,runs.task_break_resp.keys,runs.task_break_resp.rt,runs.task_break_resp.duration,fm_text.started,fm_key.started,runs.fm_key.rt,runs.fm_key.duration,thanks.started,thanks_text.started,thanks_text.stopped,thanks.stopped,PID,MRI,date,expName,psychopyVersion,frameRate,expStart,
,,,,,,,,,,,,,,,,,,,,,,,,,,,,,,,,,,,,,,0.003155700000206707,0.017211400001542643,3.001792300001398,,,,,,,,,,,,,,,,,,,,,,,,,,,,,,,,,,,,,,,,,,,,,,,,,,,,,,,,,,,,,,,,,,,,,,,,,,,,,,,,,,,,,,,,,,2020,1,2025-05-14_18h51.28.478,sm,2024.2.4,59.977748255283004,2025-05-14 18h54.15.637749 +0200,
,,,,,,,,,,,,,,,,,,,,,,,,,,,,,,,,,,,,,,,,,3.001868600000307,3.018316200003028,3.018316200003028,81.38553680000041,space,78.3589436000002,None,,,,,,,,,,,,,,,,,,,,,,,,,,,,,,,,,,,,,,,,,,,,,,,,,,,,,,,,,,,,,,,,,,,,,,,,,,,,,,,,,,,2020,1,2025-05-14_18h51.28.478,sm,2024.2.4,59.977748255283004,2025-05-14 18h54.15.637749 +0200,
,,,,,,,,,,,,,,,,,,,,,,,,,,,,,,,,,,,,,,,,,,,,,,,,81.3856442000033,81.39547340000354,81.39547340000354,88.44605740000043,3,7.04182800000126,None,,,,,,,,,,,,,,,,,,,,,,,,,,,,,,,,,,,,,,,,,,,,,,,,,,,,,,,,,,,,,,,,,,,,,,,,,,,,2020,1,2025-05-14_18h51.28.478,sm,2024.2.4,59.977748255283004,2025-05-14 18h54.15.637749 +0200,
,,,,,,,,,,,,,,,,,,,,,,,,,,,,,,,,,,,,,,,,,,,,,,,,,,,,,,,88.44615570000315,88.46170760000314,88.46170760000314,96.527992000003,3,8.060527399997227,None,,,,,,,,,,,,,,,,,,,,,,,,,,,,,,,,,,,,,,,,,,,,,,,,,,,,,,,,,,,,,,,,,,,,,2020,1,2025-05-14_18h51.28.478,sm,2024.2.4,59.977748255283004,2025-05-14 18h54.15.637749 +0200,
0,0,0,Nase,Atem,Gesicht,Riechen,3.2059,space,3.599092299999029,None,None,None,None,,,0,0,0,0,0,79,79,22,0,0,0,0,0,79,79,69,0,0,0,0,158.52452780000021,,,,,,,,,,,,,,,,,,,,,,,,,,96.52837090000321,96.52864020000197,96.60161790000348,96.6017952000002,96.60786640000151,96.60807550000027,96.6321588000028,96.63231270000324,96.63879600000291,96.64188390000345,96.64188390000345,100.24612130000241,space,3.599092299999029,None,100.24618190000183,100.26225950000298,100.26225950000298,146.5103882000003,None,146.5178237,146.5256644000001,146.52599506666982,147.7341383000021,156.5252991666678,157.5250827000018,158.52452780000021,158.50844580000194,Hülse,3.2059,158.50898570000209,158.50918130000355,158.51053440000032,158.52452780000021,161.74124660000234,161.72496690000116,161.72794120000253,161.74124660000234,161.74124660000234,161.74124660000234,161.74124660000234,163.72579940000287,None,None,,,,,,,,,,,,,,,,,,,,,,,,,2020,1,2025-05-14_18h51.28.478,sm,2024.2.4,59.977748255283004,2025-05-14 18h54.15.637749 +0200,
1,0,1,,,,,,space,3.599092299999029,None,None,3,None,1.2349771000008332,0.18159379999997327,0,0,0,0,,,,,0,0,0,0,,,,,1,0,1,0,163.74222210000153,,,,,,,,,,,,,,,,,,,,,,,,,,,,,,,,,,,,,,,,,,,,,,,,,,,,,,Angriff,2.3362,163.72626990000208,163.72679790000257,163.72690200000216,163.74222210000153,166.09072170000218,166.0745695000005,166.0764259000025,166.09072170000218,166.09072170000218,166.09072170000218,166.09072170000218,168.07517690000168,3,None,1.2349771000008332,0.18159379999997327,,,,,,,,,,,,,,,,,,,,,,,2020,1,2025-05-14_18h51.28.478,sm,2024.2.4,59.977748255283004,2025-05-14 18h54.15.637749 +0200,
2,0,2,,,,,,space,3.599092299999029,None,None,3,None,1.1120760000012524,0.20045109999773558,0,0,0,0,,,,,0,0,0,0,,,,,2,0,2,0,168.09164750000127,,,,,,,,,,,,,,,,,,,,,,,,,,,,,,,,,,,,,,,,,,,,,,,,,,,,,,Zug,3.0127,168.07563530000334,168.07612060000247,168.0762235000002,168.09164750000127,171.10737930000323,171.0912958000008,171.0968795000008,171.10737930000323,171.10737930000323,171.10737930000323,171.10737930000323,173.09108480000214,3,None,1.1120760000012524,0.20045109999773558,173.1079748000011,173.1079748000011,173.1079748000011,173.1079748000011,,,,,,,,,,,,,,,,,,,2020,1,2025-05-14_18h51.28.478,sm,2024.2.4,59.977748255283004,2025-05-14 18h54.15.637749 +0200,
3,0,3,,,,,,space,3.599092299999029,None,None,3,None,0.9187684000025911,0.18652509999810718,0,0,0,0,,,,,0,0,0,0,,,,,3,0,3,0,173.1079748000011,,,,,,,,,,,,,,,,,,,,,,,,,,,,,,,,,,,,,,,,,,,,,,,,,,,,,,Dunkelheit,2.6446,173.09131460000208,173.0916625000027,173.09171210000204,173.1079748000011,175.7576289000026,175.74141050000253,175.74406400000225,175.7576289000026,175.7576289000026,175.7576289000026,175.7576289000026,177.74092790000213,3,None,0.9187684000025911,0.18652509999810718,177.7575039000003,177.7575039000003,177.7575039000003,177.7575039000003,,,,,,,,,,,,,,,,,,,2020,1,2025-05-14_18h51.28.478,sm,2024.2.4,59.977748255283004,2025-05-14 18h54.15.637749 +0200,
4,0,4,,,,,,space,3.599092299999029,None,None,3,None,0.8050242999997863,0.16161280000233091,0,0,0,0,,,,,0,0,0,0,,,,,4,0,4,0,177.7575039000003,,,,,,,,,,,,,,,,,,,,,,,,,,,,,,,,,,,,,,,,,,,,,,,,,,,,,,Diamant,4.3424,177.7411131000008,177.74133220000294,177.74136870000075,177.7575039000003,182.10676370000147,182.0901823000022,182.09183380000104,182.10676370000147,182.10676370000147,182.10676370000147,182.10676370000147,184.09044300000096,3,None,0.8050242999997863,0.16161280000233091,184.10714680000092,184.10714680000092,184.10714680000092,184.10714680000092,,,,,,,,,,,,,,,,,,,2020,1,2025-05-14_18h51.28.478,sm,2024.2.4,59.977748255283004,2025-05-14 18h54.15.637749 +0200,
5,0,5,,,,,,space,3.599092299999029,None,None,2,None,1.038371399998141,0.220336700000189,0,0,0,0,,,,,0,0,0,0,,,,,5,0,5,0,184.10714680000092,,,,,,,,,,,,,,,,,,,,,,,,,,,,,,,,,,,,,,,,,,,,,,,,,,,,,,Wind,2.4137,184.0907748000027,184.0910642000017,184.09113210000214,184.10714680000092,186.52304360000198,186.50785930000347,186.5093377000012,186.52304360000198,186.52304360000198,186.52304360000198,186.52304360000198,188.50675200000114,2,None,1.038371399998141,0.220336700000189,188.52374130000317,188.52374130000317,188.52374130000317,188.52374130000317,,,,,,,,,,,,,,,,,,,2020,1,2025-05-14_18h51.28.478,sm,2024.2.4,59.977748255283004,2025-05-14 18h54.15.637749 +0200,
6,0,6,,,,,,space,3.599092299999029,None,None,3,None,0.582451399997808,0.16454980000344221,0,0,0,0,,,,,0,0,0,0,,,,,6,0,6,0,188.52374130000317,,,,,,,,,,,,,,,,,,,,,,,,,,,,,,,,,,,,,,,,,,,,,,,,,,,,,,Kamera,2.0031,188.50693760000286,188.50724700000137,188.5072891000018,188.52374130000317,190.53938930000004,190.52306070000122,190.5256885000017,190.53938930000004,190.53938930000004,190.53938930000004,190.53938930000004,192.52441020000333,3,None,0.582451399997808,0.16454980000344221,,,,,,,,,,,,,,,,,,,,,,,2020,1,2025-05-14_18h51.28.478,sm,2024.2.4,59.977748255283004,2025-05-14 18h54.15.637749 +0200,
7,0,7,,,,,,space,3.599092299999029,None,None,2,None,1.1986970999969344,0.19533050000245566,0,0,0,0,,,,,0,0,0,0,,,,,7,0,7,0,192.5402903000031,,,,,,,,,,,,,,,,,,,,,,,,,,,,,,,,,,,,,,,,,,,,,,,,,,,,,,Präsident,5.3463,192.52483680000296,192.52538130000175,192.5254737000032,192.5402903000031,197.8896889000025,197.87373170000137,197.87798620000103,197.8896889000025,197.8896889000025,197.8896889000025,197.8896889000025,199.8735977000033,2,None,1.1986970999969344,0.19533050000245566,199.88944060000358,199.88944060000358,199.88944060000358,199.88944060000358,,,,,,,,,,,,,,,,,,,2020,1,2025-05-14_18h51.28.478,sm,2024.2.4,59.977748255283004,2025-05-14 18h54.15.637749 +0200,
8,0,8,,,,,,space,3.599092299999029,None,None,2,None,0.9554816999989271,0.3319475999996939,0,0,0,0,,,,,0,0,0,0,,,,,8,0,8,0,199.88944060000358,,,,,,,,,,,,,,,,,,,,,,,,,,,,,,,,,,,,,,,,,,,,,,,,,,,,,,Geschwister,2.1831,199.87398740000208,199.87433140000212,199.87441410000247,199.88944060000358,202.07257160000154,202.05565220000062,202.05861310000182,202.07257160000154,202.07257160000154,202.07257160000154,202.07257160000154,204.0560682000032,2,None,0.9554816999989271,0.3319475999996939,,,,,,,,,,,,,,,,,,,,,,,2020,1,2025-05-14_18h51.28.478,sm,2024.2.4,59.977748255283004,2025-05-14 18h54.15.637749 +0200,
9,0,9,,,,,,space,3.599092299999029,None,None,3,None,0.8724775000009686,0.14950250000038068,0,0,0,0,,,,,0,0,0,0,,,,,9,0,9,0,204.07221570000183,,,,,,,,,,,,,,,,,,,,,,,,,,,,,,,,,,,,,,,,,,,,,,,,,,,,,,Universität,2.1961,204.05640010000207,204.05691920000027,204.05698290000146,204.07221570000183,206.27248170000166,206.2573031000029,206.2623190000013,206.27248170000166,206.27248170000166,206.27248170000166,206.27248170000166,208.25553890000083,3,None,0.8724775000009686,0.14950250000038068,208.27239610000106,208.27239610000106,208.27239610000106,208.27239610000106,,,,,,,,,,,,,,,,,,,2020,1,2025-05-14_18h51.28.478,sm,2024.2.4,59.977748255283004,2025-05-14 18h54.15.637749 +0200,
10,0,10,,,,,,space,3.599092299999029,None,None,3,None,1.099889400000393,0.19147050000174204,0,0,0,0,,,,,0,0,0,0,,,,,10,0,10,0,208.27239610000106,,,,,,,,,,,,,,,,,,,,,,,,,,,,,,,,,,,,,,,,,,,,,,,,,,,,,,Asche,2.6097,208.2557220000017,208.25588100000095,208.25591820000045,208.27239610000106,210.8881379000013,210.8723342000012,210.87379970000256,210.8881379000013,210.8881379000013,210.8881379000013,210.8881379000013,212.87236680000206,3,None,1.099889400000393,0.19147050000174204,212.88859770000272,212.88859770000272,212.88859770000272,212.88859770000272,,,,,,,,,,,,,,,,,,,2020,1,2025-05-14_18h51.28.478,sm,2024.2.4,59.977748255283004,2025-05-14 18h54.15.637749 +0200,
11,0,11,,,,,,space,3.599092299999029,None,None,2,None,1.0490863999984867,0.1864850000019942,0,0,0,0,,,,,0,0,0,0,,,,,11,0,11,0,212.88859770000272,,,,,,,,,,,,,,,,,,,,,,,,,,,,,,,,,,,,,,,,,,,,,,,,,,,,,,Gesellschaft,2.1413,212.872653800001,212.87287840000135,212.87294200000179,212.88859770000272,215.038902100001,215.02331890000278,215.02806020000207,215.038902100001,215.038902100001,215.038902100001,215.038902100001,217.02301450000232,2,None,1.0490863999984867,0.1864850000019942,217.03837080000085,217.03837080000085,217.03837080000085,217.03837080000085,,,,,,,,,,,,,,,,,,,2020,1,2025-05-14_18h51.28.478,sm,2024.2.4,59.977748255283004,2025-05-14 18h54.15.637749 +0200,
12,0,12,,,,,,space,3.599092299999029,None,None,3,None,0.8260496000002604,0.20053159999952186,0,0,0,0,,,,,0,0,0,0,,,,,12,0,12,0,217.03837080000085,,,,,,,,,,,,,,,,,,,,,,,,,,,,,,,,,,,,,,,,,,,,,,,,,,,,,,Zahnpasta,3.189,217.02348610000263,217.02381690000038,217.02391870000065,217.03837080000085,220.23763330000293,220.2225483000002,220.2265952000016,220.23763330000293,220.23763330000293,220.23763330000293,220.23763330000293,222.22227930000008,3,None,0.8260496000002604,0.20053159999952186,222.23814310000307,222.23814310000307,222.23814310000307,222.23814310000307,,,,,,,,,,,,,,,,,,,2020,1,2025-05-14_18h51.28.478,sm,2024.2.4,59.977748255283004,2025-05-14 18h54.15.637749 +0200,
13,0,13,,,,,,space,3.599092299999029,None,None,3,None,1.1815410999988671,0.2083773000013025,0,0,0,0,,,,,0,0,0,0,,,,,13,0,13,0,222.23814310000307,,,,,,,,,,,,,,,,,,,,,,,,,,,,,,,,,,,,,,,,,,,,,,,,,,,,,,Zeichnung,2.4521,222.22268500000064,222.22325660000206,222.2233843000031,222.23814310000307,224.70518850000008,224.6895852000016,224.69361290000234,224.70518850000008,224.70518850000008,224.70518850000008,224.70518850000008,226.68855110000004,3,None,1.1815410999988671,0.2083773000013025,226.70467110000027,226.70467110000027,226.70467110000027,226.70467110000027,,,,,,,,,,,,,,,,,,,2020,1,2025-05-14_18h51.28.478,sm,2024.2.4,59.977748255283004,2025-05-14 18h54.15.637749 +0200,
14,0,14,,,,,,space,3.599092299999029,None,None,3,None,0.9568204999995942,0.1875644000028842,0,0,0,0,,,,,0,0,0,0,,,,,14,0,14,0,226.70467110000027,,,,,,,,,,,,,,,,,,,,,,,,,,,,,,,,,,,,,,,,,,,,,,,,,,,,,,Film,3.1264,226.68879880000168,226.68909880000137,226.68915130000096,226.70467110000027,229.836935000003,229.8209730000017,229.82328840000264,229.836935000003,229.836935000003,229.836935000003,229.836935000003,231.82137630000216,3,None,0.9568204999995942,0.1875644000028842,,,,,,,,,,,,,,,,,,,,,,,2020,1,2025-05-14_18h51.28.478,sm,2024.2.4,59.977748255283004,2025-05-14 18h54.15.637749 +0200,
15,0,15,,,,,,space,3.599092299999029,None,None,3,None,0.8276256999997713,0.18447160000141594,0,0,0,0,,,,,0,0,0,0,,,,,15,0,15,0,231.8368666000024,,,,,,,,,,,,,,,,,,,,,,,,,,,,,,,,,,,,,,,,,,,,,,,,,,,,,,Trinken,2.021,231.82199200000105,231.82236660000126,231.8224678000006,231.8368666000024,233.87066120000236,233.8547282000036,233.85858250000092,233.87066120000236,233.87066120000236,233.87066120000236,233.87066120000236,235.85501580000346,3,None,0.8276256999997713,0.18447160000141594,,,,,,,,,,,,,,,,,,,,,,,2020,1,2025-05-14_18h51.28.478,sm,2024.2.4,59.977748255283004,2025-05-14 18h54.15.637749 +0200,
16,0,16,,,,,,space,3.599092299999029,None,None,3,None,0.7312213999975938,0.21955940000043483,0,0,0,0,,,,,0,0,0,0,,,,,16,0,16,0,235.87077160000263,,,,,,,,,,,,,,,,,,,,,,,,,,,,,,,,,,,,,,,,,,,,,,,,,,,,,,Schule,2.3599,235.85554510000293,235.85609850000037,235.85619990000123,235.87077160000263,238.23684590000266,238.22094760000255,238.22258630000215,238.23684590000266,238.23684590000266,238.23684590000266,238.23684590000266,240.2200165000031,3,None,0.7312213999975938,0.21955940000043483,240.23741910000172,240.23741910000172,240.23741910000172,240.23741910000172,,,,,,,,,,,,,,,,,,,2020,1,2025-05-14_18h51.28.478,sm,2024.2.4,59.977748255283004,2025-05-14 18h54.15.637749 +0200,
17,0,17,,,,,,space,3.599092299999029,None,None,3,None,0.737701999998535,0.21545160000096075,0,0,0,0,,,,,0,0,0,0,,,,,17,0,17,0,240.23741910000172,,,,,,,,,,,,,,,,,,,,,,,,,,,,,,,,,,,,,,,,,,,,,,,,,,,,,,Harmonie,3.039,240.22024720000263,240.22044080000342,240.22048280000308,240.23741910000172,243.28688990000228,243.27086970000164,243.2732595000016,243.28688990000228,243.28688990000228,243.28688990000228,243.28688990000228,245.26998840000306,3,None,0.737701999998535,0.21545160000096075,245.28634640000018,245.28634640000018,245.28634640000018,245.28634640000018,,,,,,,,,,,,,,,,,,,2020,1,2025-05-14_18h51.28.478,sm,2024.2.4,59.977748255283004,2025-05-14 18h54.15.637749 +0200,
18,0,18,,,,,,space,3.599092299999029,None,None,3,None,0.7521155000031285,0.19743670000025304,0,0,0,0,,,,,0,0,0,0,,,,,18,0,18,0,245.28634640000018,,,,,,,,,,,,,,,,,,,,,,,,,,,,,,,,,,,,,,,,,,,,,,,,,,,,,,Tradition,2.9109,245.27018090000274,245.2703861000009,245.27043170000252,245.28634640000018,248.20331870000155,248.18733770000108,248.1904444000029,248.20331870000155,248.20331870000155,248.20331870000155,248.20331870000155,250.18696230000205,3,None,0.7521155000031285,0.19743670000025304,250.2028981000003,250.2028981000003,250.2028981000003,250.2028981000003,,,,,,,,,,,,,,,,,,,2020,1,2025-05-14_18h51.28.478,sm,2024.2.4,59.977748255283004,2025-05-14 18h54.15.637749 +0200,
19,0,19,,,,,,space,3.599092299999029,None,None,3,None,0.9648063000022375,0.22517189999780385,0,0,0,0,,,,,0,0,0,0,,,,,19,0,19,0,250.2028981000003,,,,,,,,,,,,,,,,,,,,,,,,,,,,,,,,,,,,,,,,,,,,,,,,,,,,,,Gegenwart,3.9589,250.18715720000182,250.18751930000144,250.1875609000017,250.2028981000003,254.17021900000327,254.15336170000228,254.15637290000086,254.17021900000327,254.17021900000327,254.17021900000327,254.17021900000327,256.1539150000026,3,None,0.9648063000022375,0.22517189999780385,256.1693139000017,256.1693139000017,256.1693139000017,256.1693139000017,,,,,,,,,,,,,,,,,,,2020,1,2025-05-14_18h51.28.478,sm,2024.2.4,59.977748255283004,2025-05-14 18h54.15.637749 +0200,
20,0,20,,,,,,space,3.599092299999029,None,None,2,None,0.8060621000004176,0.3032415999987279,0,0,0,0,,,,,0,0,0,0,,,,,20,0,20,0,256.1693139000017,,,,,,,,,,,,,,,,,,,,,,,,,,,,,,,,,,,,,,,,,,,,,,,,,,,,,,Eule,5.1698,256.15411850000237,256.15446670000165,256.1545463000002,256.1693139000017,261.3521271000027,261.33598220000204,261.33733380000194,261.3521271000027,261.3521271000027,261.3521271000027,261.3521271000027,263.3362625000009,2,None,0.8060621000004176,0.3032415999987279,,,,,,,,,,,,,,,,,,,,,,,2020,1,2025-05-14_18h51.28.478,sm,2024.2.4,59.977748255283004,2025-05-14 18h54.15.637749 +0200,
21,0,21,,,,,,space,3.599092299999029,None,None,3,None,0.8991433000010147,0.20751499999823864,0,0,0,0,,,,,0,0,0,0,,,,,21,0,21,0,263.3524251000017,,,,,,,,,,,,,,,,,,,,,,,,,,,,,,,,,,,,,,,,,,,,,,,,,,,,,,Tablett,4.3942,263.33669270000246,263.3371954000031,263.33730330000253,263.3524251000017,267.7516850000029,267.7354437000031,267.73699430000124,267.7516850000029,267.7516850000029,267.7516850000029,267.7516850000029,269.7356426000006,3,None,0.8991433000010147,0.20751499999823864,,,,,,,,,,,,,,,,,,,,,,,2020,1,2025-05-14_18h51.28.478,sm,2024.2.4,59.977748255283004,2025-05-14 18h54.15.637749 +0200,
22,0,22,,,,,,space,3.599092299999029,None,None,3,None,1.028588100001798,0.21953299999950104,0,0,0,0,,,,,0,0,0,0,,,,,22,0,22,0,269.7520826,,,,,,,,,,,,,,,,,,,,,,,,,,,,,,,,,,,,,,,,,,,,,,,,,,,,,,Raum,2.2385,269.73609280000164,269.7364891000034,269.7365892000016,269.7520826,272.0015258000021,271.9850296000004,271.98636610000176,272.0015258000021,272.0015258000021,272.0015258000021,272.0015258000021,273.98536370000147,3,None,1.028588100001798,0.21953299999950104,274.0014031000028,274.0014031000028,274.0014031000028,274.0014031000028,,,,,,,,,,,,,,,,,,,2020,1,2025-05-14_18h51.28.478,sm,2024.2.4,59.977748255283004,2025-05-14 18h54.15.637749 +0200,
23,0,23,,,,,,space,3.599092299999029,None,None,3,None,0.744045699997514,0.19143350000013015,0,0,0,0,,,,,0,0,0,0,,,,,23,0,23,0,274.0014031000028,,,,,,,,,,,,,,,,,,,,,,,,,,,,,,,,,,,,,,,,,,,,,,,,,,,,,,Knie,4.5524,273.98555930000293,273.98573540000143,273.9857770000017,274.0014031000028,278.5680699000004,278.55240510000294,278.55525040000066,278.5680699000004,278.5680699000004,278.5680699000004,278.5680699000004,280.55222050000157,3,None,0.744045699997514,0.19143350000013015,280.56832970000323,280.56832970000323,280.56832970000323,280.56832970000323,,,,,,,,,,,,,,,,,,,2020,1,2025-05-14_18h51.28.478,sm,2024.2.4,59.977748255283004,2025-05-14 18h54.15.637749 +0200,
24,0,24,,,,,,space,3.599092299999029,None,None,3,None,0.9885933000005025,0.21544709999943734,0,0,0,0,,,,,0,0,0,0,,,,,24,0,24,0,280.56832970000323,,,,,,,,,,,,,,,,,,,,,,,,,,,,,,,,,,,,,,,,,,,,,,,,,,,,,,Arbeit,3.6297,280.5525196000017,280.55280920000223,280.55287370000224,280.56832970000323,284.201019600001,284.18497330000173,284.1878151000019,284.201019600001,284.201019600001,284.201019600001,284.201019600001,286.184204600002,3,None,0.9885933000005025,0.21544709999943734,286.201092700001,286.201092700001,286.201092700001,286.201092700001,,,,,,,,,,,,,,,,,,,2020,1,2025-05-14_18h51.28.478,sm,2024.2.4,59.977748255283004,2025-05-14 18h54.15.637749 +0200,
25,0,25,,,,,,space,3.599092299999029,None,None,2,None,0.9341206999997667,0.22406190000037896,0,0,0,0,,,,,0,0,0,0,,,,,25,0,25,0,286.201092700001,,,,,,,,,,,,,,,,,,,,,,,,,,,,,,,,,,,,,,,,,,,,,,,,,,,,,,Vampir,2.9832,286.1844145000032,286.1846977000023,286.1847430000016,286.201092700001,289.18453210000007,289.16877900000327,289.1728406000002,289.18453210000007,289.18453210000007,289.18453210000007,289.18453210000007,291.1684399000005,2,None,0.9341206999997667,0.22406190000037896,291.18481600000086,291.18481600000086,291.18481600000086,291.18481600000086,,,,,,,,,,,,,,,,,,,2020,1,2025-05-14_18h51.28.478,sm,2024.2.4,59.977748255283004,2025-05-14 18h54.15.637749 +0200,
26,0,26,,,,,,space,3.599092299999029,None,None,3,None,0.7195663999991666,0.20549279999977443,0,0,0,0,,,,,0,0,0,0,,,,,26,0,26,0,291.18481600000086,,,,,,,,,,,,,,,,,,,,,,,,,,,,,,,,,,,,,,,,,,,,,,,,,,,,,,Schnürsenkel,2.9036,291.1689213000027,291.1693974000009,291.16949320000276,291.18481600000086,294.09995530000015,294.08381160000135,294.0855584000019,294.09995530000015,294.09995530000015,294.09995530000015,294.09995530000015,296.0843509000006,3,None,0.7195663999991666,0.20549279999977443,,,,,,,,,,,,,,,,,,,,,,,2020,1,2025-05-14_18h51.28.478,sm,2024.2.4,59.977748255283004,2025-05-14 18h54.15.637749 +0200,
27,0,27,,,,,,space,3.599092299999029,None,None,3,None,0.9928798000000825,0.1824890999996569,0,0,0,0,,,,,0,0,0,0,,,,,27,0,27,0,296.1008320000001,,,,,,,,,,,,,,,,,,,,,,,,,,,,,,,,,,,,,,,,,,,,,,,,,,,,,,Fakt,5.3655,296.0848089000028,296.08522670000093,296.0853291000021,296.1008320000001,301.46650750000117,301.4504401000013,301.45177330000297,301.46650750000117,301.46650750000117,301.46650750000117,301.46650750000117,303.4507228000002,3,None,0.9928798000000825,0.1824890999996569,,,,,,,,,,,,,,,,,,,,,,,2020,1,2025-05-14_18h51.28.478,sm,2024.2.4,59.977748255283004,2025-05-14 18h54.15.637749 +0200,
28,0,28,,,,,,space,3.599092299999029,None,None,3,None,0.865915500002302,0.24535659999673953,0,0,0,0,,,,,0,0,0,0,,,,,28,0,28,0,303.46672540000145,,,,,,,,,,,,,,,,,,,,,,,,,,,,,,,,,,,,,,,,,,,,,,,,,,,,,,Ostern,2.7584,303.4510994000011,303.4515781000009,303.4516638000023,303.46672540000145,306.2331168000019,306.2180983000035,306.22541280000223,306.2331168000019,306.2331168000019,306.2331168000019,306.2331168000019,308.21648650000134,3,None,0.865915500002302,0.24535659999673953,308.2328073000026,308.2328073000026,308.2328073000026,308.2328073000026,,,,,,,,,,,,,,,,,,,2020,1,2025-05-14_18h51.28.478,sm,2024.2.4,59.977748255283004,2025-05-14 18h54.15.637749 +0200,
29,0,29,,,,,,space,3.599092299999029,None,None,3,None,1.0141448999966087,0.23936529999991762,0,0,0,0,,,,,0,0,0,0,,,,,29,0,29,0,308.2328073000026,,,,,,,,,,,,,,,,,,,,,,,,,,,,,,,,,,,,,,,,,,,,,,,,,,,,,,Gemüse,2.0842,308.2168448000011,308.2171119000013,308.217169800002,308.2328073000026,310.3163046000009,310.300705200003,310.3044081000007,310.3163046000009,310.3163046000009,310.3163046000009,310.3163046000009,312.3005933000022,3,None,1.0141448999966087,0.23936529999991762,312.3164682000024,312.3164682000024,312.3164682000024,312.3164682000024,,,,,,,,,,,,,,,,,,,2020,1,2025-05-14_18h51.28.478,sm,2024.2.4,59.977748255283004,2025-05-14 18h54.15.637749 +0200,
30,0,30,,,,,,space,3.599092299999029,None,None,3,None,1.0193283000007796,0.22139140000217594,0,0,0,0,,,,,0,0,0,0,,,,,30,0,30,0,312.3164682000024,,,,,,,,,,,,,,,,,,,,,,,,,,,,,,,,,,,,,,,,,,,,,,,,,,,,,,Poesie,3.6615,312.3010624000017,312.3015441000025,312.30163940000057,312.3164682000024,315.98290540000016,315.9675401000022,315.971137200002,315.98290540000016,315.98290540000016,315.98290540000016,315.98290540000016,317.96682740000324,3,None,1.0193283000007796,0.22139140000217594,317.9828296000014,317.9828296000014,317.9828296000014,317.9828296000014,,,,,,,,,,,,,,,,,,,2020,1,2025-05-14_18h51.28.478,sm,2024.2.4,59.977748255283004,2025-05-14 18h54.15.637749 +0200,
31,0,31,,,,,,space,3.599092299999029,None,None,2,None,1.4968777000030968,0.34912919999987935,0,0,0,0,,,,,0,0,0,0,,,,,31,0,31,0,317.9828296000014,,,,,,,,,,,,,,,,,,,,,,,,,,,,,,,,,,,,,,,,,,,,,,,,,,,,,,Sturm,2.1743,317.96731050000017,317.96764130000156,317.9677358000008,317.9828296000014,320.16592540000056,320.1495440000035,320.1515329000031,320.16592540000056,320.16592540000056,320.16592540000056,320.16592540000056,322.1500546000025,2,None,1.4968777000030968,0.34912919999987935,322.1654167000015,322.1654167000015,322.1654167000015,322.1654167000015,,,,,,,,,,,,,,,,,,,2020,1,2025-05-14_18h51.28.478,sm,2024.2.4,59.977748255283004,2025-05-14 18h54.15.637749 +0200,
32,0,32,,,,,,space,3.599092299999029,None,None,3,None,0.8434113000002981,0.19246650000059162,0,0,0,0,,,,,0,0,0,0,,,,,32,0,32,0,322.1654167000015,,,,,,,,,,,,,,,,,,,,,,,,,,,,,,,,,,,,,,,,,,,,,,,,,,,,,,Zirkus,3.0547,322.1505234000033,322.1508543000018,322.1509496000035,322.1654167000015,325.2318290000003,325.2153822,325.21688500000164,325.2318290000003,325.2318290000003,325.2318290000003,325.2318290000003,327.2150984,3,None,0.8434113000002981,0.19246650000059162,327.23195540000233,327.23195540000233,327.23195540000233,327.23195540000233,,,,,,,,,,,,,,,,,,,2020,1,2025-05-14_18h51.28.478,sm,2024.2.4,59.977748255283004,2025-05-14 18h54.15.637749 +0200,
33,0,33,,,,,,space,3.599092299999029,None,None,3,None,1.0552328000012494,0.21740779999890947,0,0,0,0,,,,,0,0,0,0,,,,,33,0,33,0,327.23195540000233,,,,,,,,,,,,,,,,,,,,,,,,,,,,,,,,,,,,,,,,,,,,,,,,,,,,,,Wein,2.8516,327.2152769000022,327.2155163000025,327.215553500002,327.23195540000233,330.0991775000002,330.08297420000235,330.08562090000123,330.0991775000002,330.0991775000002,330.0991775000002,330.0991775000002,332.0819973000034,3,None,1.0552328000012494,0.21740779999890947,332.0986214000004,332.0986214000004,332.0986214000004,332.0986214000004,,,,,,,,,,,,,,,,,,,2020,1,2025-05-14_18h51.28.478,sm,2024.2.4,59.977748255283004,2025-05-14 18h54.15.637749 +0200,
34,0,34,,,,,,space,3.599092299999029,None,None,3,None,0.7388116999973136,0.20342580000215094,0,0,0,0,,,,,0,0,0,0,,,,,34,0,34,0,332.0986214000004,,,,,,,,,,,,,,,,,,,,,,,,,,,,,,,,,,,,,,,,,,,,,,,,,,,,,,Spaß,2.0946,332.082193000002,332.08251890000247,332.0825612000008,332.0986214000004,334.19849350000004,334.1828996000004,334.1885747000015,334.19849350000004,334.19849350000004,334.19849350000004,334.19849350000004,336.1816953000016,3,None,0.7388116999973136,0.20342580000215094,336.19864730000336,336.19864730000336,336.19864730000336,336.19864730000336,,,,,,,,,,,,,,,,,,,2020,1,2025-05-14_18h51.28.478,sm,2024.2.4,59.977748255283004,2025-05-14 18h54.15.637749 +0200,
35,0,35,,,,,,space,3.599092299999029,None,None,3,None,0.8661799000001338,0.20643209999980172,0,0,0,0,,,,,0,0,0,0,,,,,35,0,35,0,336.19864730000336,,,,,,,,,,,,,,,,,,,,,,,,,,,,,,,,,,,,,,,,,,,,,,,,,,,,,,Hand,2.0589,336.1819123000023,336.18211990000054,336.18216400000165,336.19864730000336,338.2650941000029,338.2489454000024,338.25216940000246,338.2650941000029,338.2650941000029,338.2650941000029,338.2650941000029,340.2489336000035,3,None,0.8661799000001338,0.20643209999980172,340.2648842000017,340.2648842000017,340.2648842000017,340.2648842000017,,,,,,,,,,,,,,,,,,,2020,1,2025-05-14_18h51.28.478,sm,2024.2.4,59.977748255283004,2025-05-14 18h54.15.637749 +0200,
36,0,36,,,,,,space,3.599092299999029,None,None,3,None,0.717674799998349,0.22341560000131722,0,0,0,0,,,,,0,0,0,0,,,,,36,0,36,0,340.2648842000017,,,,,,,,,,,,,,,,,,,,,,,,,,,,,,,,,,,,,,,,,,,,,,,,,,,,,,Gabel,4.4429,340.24927150000076,340.24966530000165,340.2497402000008,340.2648842000017,344.7138116000024,344.6977153000007,344.69917480000004,344.7138116000024,344.7138116000024,344.7138116000024,344.7138116000024,346.6977251000026,3,None,0.717674799998349,0.22341560000131722,346.71380650000356,346.71380650000356,346.71380650000356,346.71380650000356,,,,,,,,,,,,,,,,,,,2020,1,2025-05-14_18h51.28.478,sm,2024.2.4,59.977748255283004,2025-05-14 18h54.15.637749 +0200,
37,0,37,,,,,,space,3.599092299999029,None,None,3,None,0.9986901999982365,0.21221780000269064,0,0,0,0,,,,,0,0,0,0,,,,,37,0,37,0,346.71380650000356,,,,,,,,,,,,,,,,,,,,,,,,,,,,,,,,,,,,,,,,,,,,,,,,,,,,,,Berg,3.6438,346.6980656000014,346.6982725000016,346.6983280000022,346.71380650000356,350.3639899000009,350.3477984000019,350.3510270000006,350.3639899000009,350.3639899000009,350.3639899000009,350.3639899000009,352.348158300003,3,None,0.9986901999982365,0.21221780000269064,352.3639506000036,352.3639506000036,352.3639506000036,352.3639506000036,,,,,,,,,,,,,,,,,,,2020,1,2025-05-14_18h51.28.478,sm,2024.2.4,59.977748255283004,2025-05-14 18h54.15.637749 +0200,
38,0,38,,,,,,space,3.599092299999029,None,None,2,None,0.8548168999986956,0.24726400000145077,0,0,0,0,,,,,0,0,0,0,,,,,38,0,38,0,352.3639506000036,,,,,,,,,,,,,,,,,,,,,,,,,,,,,,,,,,,,,,,,,,,,,,,,,,,,,,Elephant,2.5519,352.3486100000009,352.3489596000036,352.34905750000325,352.3639506000036,354.93009620000157,354.9135961000029,354.9151372000015,354.93009620000157,354.93009620000157,354.93009620000157,354.93009620000157,356.9140796000029,2,None,0.8548168999986956,0.24726400000145077,356.93079910000233,356.93079910000233,356.93079910000233,356.93079910000233,,,,,,,,,,,,,,,,,,,2020,1,2025-05-14_18h51.28.478,sm,2024.2.4,59.977748255283004,2025-05-14 18h54.15.637749 +0200,
39,0,39,,,,,,space,3.599092299999029,None,None,3,None,0.8988223999986076,0.19845290000012028,0,0,0,0,,,,,0,0,0,0,,,,,39,0,39,0,356.93079910000233,,,,,,,,,,,,,,,,,,,,,,,,,,,,,,,,,,,,,,,,,,,,,,,,,,,,,,Conditioner,2.3861,356.9145414000013,356.91489130000264,356.91498980000324,356.93079910000233,359.3301438000017,359.3134895000003,359.31626320000214,359.3301438000017,359.3301438000017,359.3301438000017,359.3301438000017,361.3136188000026,3,None,0.8988223999986076,0.19845290000012028,361.3293792000004,361.3293792000004,361.3293792000004,361.3293792000004,,,,,,,,,,,,,,,,,,,2020,1,2025-05-14_18h51.28.478,sm,2024.2.4,59.977748255283004,2025-05-14 18h54.15.637749 +0200,
40,0,40,,,,,,space,3.599092299999029,None,None,2,None,1.311138299999584,0.24638169999889215,0,0,0,0,,,,,0,0,0,0,,,,,40,0,40,0,361.3293792000004,,,,,,,,,,,,,,,,,,,,,,,,,,,,,,,,,,,,,,,,,,,,,,,,,,,,,,Sprechen,2.1697,361.31437220000225,361.3147336000002,361.3148355000012,361.3293792000004,363.5125603000015,363.49662810000154,363.4981499000023,363.5125603000015,363.5125603000015,363.5125603000015,363.5125603000015,365.49685560000216,2,None,1.311138299999584,0.24638169999889215,,,,,,,,,,,,,,,,,,,,,,,2020,1,2025-05-14_18h51.28.478,sm,2024.2.4,59.977748255283004,2025-05-14 18h54.15.637749 +0200,
41,0,41,,,,,,space,3.599092299999029,None,None,3,None,0.7982695999999123,0.21779269999751705,0,0,0,0,,,,,0,0,0,0,,,,,41,0,41,0,365.51344940000126,,,,,,,,,,,,,,,,,,,,,,,,,,,,,,,,,,,,,,,,,,,,,,,,,,,,,,Olympia,2.5169,365.4974750000001,365.49801410000146,365.498127400002,365.51344940000126,368.0296057000014,368.0138773000035,368.0201552000035,368.0296057000014,368.0296057000014,368.0296057000014,368.0296057000014,370.0145877000032,3,None,0.7982695999999123,0.21779269999751705,370.0298849000028,370.0298849000028,370.0298849000028,370.0298849000028,,,,,,,,,,,,,,,,,,,2020,1,2025-05-14_18h51.28.478,sm,2024.2.4,59.977748255283004,2025-05-14 18h54.15.637749 +0200,
42,0,42,,,,,,space,3.599092299999029,None,None,2,None,0.9642061999984435,0.20543040000120527,0,0,0,0,,,,,0,0,0,0,,,,,42,0,42,0,370.0298849000028,,,,,,,,,,,,,,,,,,,,,,,,,,,,,,,,,,,,,,,,,,,,,,,,,,,,,,Ziege,3.2825,370.0151072000008,370.0155822000015,370.0156847000035,370.0298849000028,373.3122211000009,373.2968280000023,373.3004080000028,373.3122211000009,373.3122211000009,373.3122211000009,373.3122211000009,375.29634090000036,2,None,0.9642061999984435,0.20543040000120527,375.3122258000003,375.3122258000003,375.3122258000003,375.3122258000003,,,,,,,,,,,,,,,,,,,2020,1,2025-05-14_18h51.28.478,sm,2024.2.4,59.977748255283004,2025-05-14 18h54.15.637749 +0200,
43,0,43,,,,,,space,3.599092299999029,None,None,3,None,1.639007900001161,0.21748350000052596,0,0,0,0,,,,,0,0,0,0,,,,,43,0,43,0,375.3122258000003,,,,,,,,,,,,,,,,,,,,,,,,,,,,,,,,,,,,,,,,,,,,,,,,,,,,,,Riechen,2.7378,375.29659340000217,375.2969594000024,375.29703770000197,375.3122258000003,378.06257630000255,378.04669510000167,378.0511168000012,378.06257630000255,378.06257630000255,378.06257630000255,378.06257630000255,380.04714920000333,3,None,1.639007900001161,0.21748350000052596,380.0627846000025,380.0627846000025,380.0627846000025,380.0627846000025,,,,,,,,,,,,,,,,,,,2020,1,2025-05-14_18h51.28.478,sm,2024.2.4,59.977748255283004,2025-05-14 18h54.15.637749 +0200,
44,0,44,,,,,,space,3.599092299999029,None,None,2,None,1.3642827000003308,0.28025460000208113,0,0,0,0,,,,,0,0,0,0,,,,,44,0,44,0,380.0627846000025,,,,,,,,,,,,,,,,,,,,,,,,,,,,,,,,,,,,,,,,,,,,,,,,,,,,,,Weinen,2.3419,380.047628100001,380.0481342000021,380.0482712000012,380.0627846000025,382.4126546000007,382.39624390000245,382.39920930000153,382.4126546000007,382.4126546000007,382.4126546000007,382.4126546000007,384.3967694000021,2,None,1.3642827000003308,0.28025460000208113,384.41240910000124,384.41240910000124,384.41240910000124,384.41240910000124,,,,,,,,,,,,,,,,,,,2020,1,2025-05-14_18h51.28.478,sm,2024.2.4,59.977748255283004,2025-05-14 18h54.15.637749 +0200,
45,0,45,,,,,,space,3.599092299999029,None,None,3,None,1.272043400000257,0.2054651999969792,0,0,0,0,,,,,0,0,0,0,,,,,45,0,45,0,384.41240910000124,,,,,,,,,,,,,,,,,,,,,,,,,,,,,,,,,,,,,,,,,,,,,,,,,,,,,,Küche,4.3756,384.3972375000012,384.39773640000203,384.397836600001,384.41240910000124,388.79504050000105,388.78006090000054,388.7826159000033,388.79504050000105,388.79504050000105,388.79504050000105,388.79504050000105,390.7784565000002,3,None,1.272043400000257,0.2054651999969792,390.7945193000014,390.7945193000014,390.7945193000014,390.7945193000014,,,,,,,,,,,,,,,,,,,2020,1,2025-05-14_18h51.28.478,sm,2024.2.4,59.977748255283004,2025-05-14 18h54.15.637749 +0200,
46,0,46,,,,,,space,3.599092299999029,None,None,3,None,1.0143693999998504,0.26230740000028163,0,0,0,0,,,,,0,0,0,0,,,,,46,0,46,0,390.7945193000014,,,,,,,,,,,,,,,,,,,,,,,,,,,,,,,,,,,,,,,,,,,,,,,,,,,,,,Anruf,4.0852,390.7787031000007,390.77893660000336,390.7789859000004,390.7945193000014,394.8950137000029,394.8791607000021,394.88192170000184,394.8950137000029,394.8950137000029,394.8950137000029,394.8950137000029,396.8781136000034,3,None,1.0143693999998504,0.26230740000028163,396.8951857000029,396.8951857000029,396.8951857000029,396.8951857000029,,,,,,,,,,,,,,,,,,,2020,1,2025-05-14_18h51.28.478,sm,2024.2.4,59.977748255283004,2025-05-14 18h54.15.637749 +0200,
47,0,47,,,,,,space,3.599092299999029,None,None,2,None,0.9885929000010947,0.3322301999978663,0,0,0,0,,,,,0,0,0,0,,,,,47,0,47,0,396.8951857000029,,,,,,,,,,,,,,,,,,,,,,,,,,,,,,,,,,,,,,,,,,,,,,,,,,,,,,Kuh,3.8592,396.87843670000075,396.8788252000013,396.87891050000326,396.8951857000029,400.76126880000083,400.7452645000012,400.7474768000029,400.76126880000083,400.76126880000083,400.76126880000083,400.76126880000083,402.7457800000011,2,None,0.9885929000010947,0.3322301999978663,402.76150680000137,402.76150680000137,402.76150680000137,402.76150680000137,,,,,,,,,,,,,,,,,,,2020,1,2025-05-14_18h51.28.478,sm,2024.2.4,59.977748255283004,2025-05-14 18h54.15.637749 +0200,
48,0,48,,,,,,space,3.599092299999029,None,None,3,None,1.3515471999999136,0.21353870000166353,0,0,0,0,,,,,0,0,0,0,,,,,48,0,48,0,402.76150680000137,,,,,,,,,,,,,,,,,,,,,,,,,,,,,,,,,,,,,,,,,,,,,,,,,,,,,,Kabine,2.9443,402.7462385000035,402.7466979000019,402.7467944000018,402.76150680000137,405.7109173000026,405.69449410000016,405.69750320000094,405.7109173000026,405.7109173000026,405.7109173000026,405.7109173000026,407.69465090000085,3,None,1.3515471999999136,0.21353870000166353,,,,,,,,,,,,,,,,,,,,,,,2020,1,2025-05-14_18h51.28.478,sm,2024.2.4,59.977748255283004,2025-05-14 18h54.15.637749 +0200,
49,0,49,,,,,,space,3.599092299999029,None,None,3,None,1.1024979000030726,0.2653707999998005,0,0,0,0,,,,,0,0,0,0,,,,,49,0,49,0,407.7111201000007,,,,,,,,,,,,,,,,,,,,,,,,,,,,,,,,,,,,,,,,,,,,,,,,,,,,,,Schlamm,3.6564,407.69509070000277,407.69566620000114,407.6957485000021,407.7111201000007,411.3767377000004,411.36155540000254,411.3630366000034,411.3767377000004,411.3767377000004,411.3767377000004,411.3767377000004,413.36017950000314,3,None,1.1024979000030726,0.2653707999998005,413.3765102000034,413.3765102000034,413.3765102000034,413.3765102000034,,,,,,,,,,,,,,,,,,,2020,1,2025-05-14_18h51.28.478,sm,2024.2.4,59.977748255283004,2025-05-14 18h54.15.637749 +0200,
50,0,50,,,,,,space,3.599092299999029,None,None,3,None,0.8973913999980141,0.22449240000059945,0,0,0,0,,,,,0,0,0,0,,,,,50,0,50,0,413.3765102000034,,,,,,,,,,,,,,,,,,,,,,,,,,,,,,,,,,,,,,,,,,,,,,,,,,,,,,Geruch,3.6723,413.36036270000113,413.36053040000115,413.3605667000011,413.3765102000034,417.0599908000004,417.04388830000244,417.0469581000034,417.0599908000004,417.0599908000004,417.0599908000004,417.0599908000004,419.04429000000164,3,None,0.8973913999980141,0.22449240000059945,419.0599555000008,419.0599555000008,419.0599555000008,419.0599555000008,,,,,,,,,,,,,,,,,,,2020,1,2025-05-14_18h51.28.478,sm,2024.2.4,59.977748255283004,2025-05-14 18h54.15.637749 +0200,
51,0,51,,,,,,space,3.599092299999029,None,None,3,None,1.0414294000001973,0.1805052000017895,0,0,0,0,,,,,0,0,0,0,,,,,51,0,51,0,419.0599555000008,,,,,,,,,,,,,,,,,,,,,,,,,,,,,,,,,,,,,,,,,,,,,,,,,,,,,,Himmel,2.1186,419.04476420000356,419.0451408000008,419.0452572000031,419.0599555000008,421.193645000003,421.17772200000036,421.1806910000014,421.193645000003,421.193645000003,421.193645000003,421.193645000003,423.1776396000023,3,None,1.0414294000001973,0.1805052000017895,423.1939580000035,423.1939580000035,423.1939580000035,423.1939580000035,,,,,,,,,,,,,,,,,,,2020,1,2025-05-14_18h51.28.478,sm,2024.2.4,59.977748255283004,2025-05-14 18h54.15.637749 +0200,
52,0,52,,,,,,space,3.599092299999029,None,None,3,None,0.9574603000000934,0.19448189999820897,0,0,0,0,,,,,0,0,0,0,,,,,52,0,52,0,423.1939580000035,,,,,,,,,,,,,,,,,,,,,,,,,,,,,,,,,,,,,,,,,,,,,,,,,,,,,,Ordner,2.7992,423.1781015000015,423.1785026000034,423.1785978000007,423.1939580000035,425.99261730000217,425.9766645000018,425.978337200002,425.99261730000217,425.99261730000217,425.99261730000217,425.99261730000217,427.9767780000002,3,None,0.9574603000000934,0.19448189999820897,427.99250210000173,427.99250210000173,427.99250210000173,427.99250210000173,,,,,,,,,,,,,,,,,,,2020,1,2025-05-14_18h51.28.478,sm,2024.2.4,59.977748255283004,2025-05-14 18h54.15.637749 +0200,
53,0,53,,,,,,space,3.599092299999029,None,None,3,None,0.6620298000016192,0.2593022999972163,0,0,0,0,,,,,0,0,0,0,,,,,53,0,53,0,427.99250210000173,,,,,,,,,,,,,,,,,,,,,,,,,,,,,,,,,,,,,,,,,,,,,,,,,,,,,,Golf,3.6005,427.9769914000026,427.97717790000024,427.9772223,427.99250210000173,431.59272260000216,431.57637109999996,431.5777756000025,431.59272260000216,431.59272260000216,431.59272260000216,431.59272260000216,433.57673090000026,3,None,0.6620298000016192,0.2593022999972163,433.592636100002,433.592636100002,433.592636100002,433.592636100002,,,,,,,,,,,,,,,,,,,2020,1,2025-05-14_18h51.28.478,sm,2024.2.4,59.977748255283004,2025-05-14 18h54.15.637749 +0200,
54,0,54,,,,,,space,3.599092299999029,None,None,3,None,0.9031919999979436,0.23546550000173738,0,0,0,0,,,,,0,0,0,0,,,,,54,0,54,0,433.592636100002,,,,,,,,,,,,,,,,,,,,,,,,,,,,,,,,,,,,,,,,,,,,,,,,,,,,,,Marmor,2.2074,433.5771882000008,433.5775493000001,433.5776786000024,433.592636100002,435.80958570000075,435.7927443000008,435.79534610000337,435.80958570000075,435.80958570000075,435.80958570000075,435.80958570000075,437.7933447000032,3,None,0.9031919999979436,0.23546550000173738,437.80945840000277,437.80945840000277,437.80945840000277,437.80945840000277,,,,,,,,,,,,,,,,,,,2020,1,2025-05-14_18h51.28.478,sm,2024.2.4,59.977748255283004,2025-05-14 18h54.15.637749 +0200,
55,0,55,,,,,,space,3.599092299999029,None,None,3,None,0.664215000000695,0.21737600000051316,0,0,0,0,,,,,0,0,0,0,,,,,55,0,55,0,437.80945840000277,,,,,,,,,,,,,,,,,,,,,,,,,,,,,,,,,,,,,,,,,,,,,,,,,,,,,,Pumpe,2.83,437.7938058,437.79426690000037,437.79437040000266,437.80945840000277,440.6415741000019,440.62524170000324,440.626734700003,440.6415741000019,440.6415741000019,440.6415741000019,440.6415741000019,442.62544160000107,3,None,0.664215000000695,0.21737600000051316,,,,,,,,,,,,,,,,,,,,,,,2020,1,2025-05-14_18h51.28.478,sm,2024.2.4,59.977748255283004,2025-05-14 18h54.15.637749 +0200,
56,0,56,,,,,,space,3.599092299999029,None,None,3,None,1.1048413999997138,0.21050430000104825,0,0,0,0,,,,,0,0,0,0,,,,,56,0,56,0,442.6419111000032,,,,,,,,,,,,,,,,,,,,,,,,,,,,,,,,,,,,,,,,,,,,,,,,,,,,,,Wanne,2.8901,442.62562660000185,442.62589330000264,442.6259357000017,442.6419111000032,445.54158310000275,445.5251098000008,445.5269522000017,445.54158310000275,445.54158310000275,445.54158310000275,445.54158310000275,447.52512350000325,3,None,1.1048413999997138,0.21050430000104825,447.54114670000126,447.54114670000126,447.54114670000126,447.54114670000126,,,,,,,,,,,,,,,,,,,2020,1,2025-05-14_18h51.28.478,sm,2024.2.4,59.977748255283004,2025-05-14 18h54.15.637749 +0200,
57,0,57,,,,,,space,3.599092299999029,None,None,2,None,1.3376945000018168,0.5055675999974483,0,0,0,0,,,,,0,0,0,0,,,,,57,0,57,0,447.54114670000126,,,,,,,,,,,,,,,,,,,,,,,,,,,,,,,,,,,,,,,,,,,,,,,,,,,,,,Spion,2.3229,447.5255759000029,447.52587960000164,447.5259717000008,447.54114670000126,449.8752841000023,449.8594142000002,449.8632881000012,449.8752841000023,449.8752841000023,449.8752841000023,449.8752841000023,451.85975410000174,2,None,1.3376945000018168,0.5055675999974483,451.8748676000032,451.8748676000032,451.8748676000032,451.8748676000032,,,,,,,,,,,,,,,,,,,2020,1,2025-05-14_18h51.28.478,sm,2024.2.4,59.977748255283004,2025-05-14 18h54.15.637749 +0200,
58,0,58,,,,,,space,3.599092299999029,None,None,2,None,1.0669784999990952,0.2114705000021786,0,0,0,0,,,,,0,0,0,0,,,,,58,0,58,0,451.8748676000032,,,,,,,,,,,,,,,,,,,,,,,,,,,,,,,,,,,,,,,,,,,,,,,,,,,,,,Rasen,2.7357,451.8600981000018,451.86037880000003,451.86045450000165,451.8748676000032,454.62421970000287,454.6080295000029,454.6095250000035,454.62421970000287,454.62421970000287,454.62421970000287,454.62421970000287,456.6087288000017,2,None,1.0669784999990952,0.2114705000021786,,,,,,,,,,,,,,,,,,,,,,,2020,1,2025-05-14_18h51.28.478,sm,2024.2.4,59.977748255283004,2025-05-14 18h54.15.637749 +0200,
59,0,59,,,,,,space,3.599092299999029,None,None,3,None,0.8077534000003652,0.22140940000099363,0,0,0,0,,,,,0,0,0,0,,,,,59,0,59,0,456.6250274000013,,,,,,,,,,,,,,,,,,,,,,,,,,,,,,,,,,,,,,,,,,,,,,,,,,,,,,Klippe,2.9645,456.6094245000022,456.6099596000022,456.6100669000007,456.6250274000013,459.59163100000296,459.5755551000002,459.57869210000354,459.59163100000296,459.59163100000296,459.59163100000296,459.59163100000296,461.5903301000035,3,None,0.8077534000003652,0.22140940000099363,,,,,,,,,,,,,,,,,,,,,,,2020,1,2025-05-14_18h51.28.478,sm,2024.2.4,59.977748255283004,2025-05-14 18h54.15.637749 +0200,
60,0,60,,,,,,space,3.599092299999029,None,None,3,None,0.7381366000008711,0.23538389999885112,0,0,0,0,,,,,0,0,0,0,,,,,60,0,60,0,461.60693320000064,,,,,,,,,,,,,,,,,,,,,,,,,,,,,,,,,,,,,,,,,,,,,,,,,,,,,,Sack,2.0168,461.5905186000018,461.5907872000025,461.5908402000023,461.60693320000064,463.62420250000287,463.6079114000022,463.60926560000007,463.62420250000287,463.62420250000287,463.62420250000287,463.62420250000287,465.6084643000031,3,None,0.7381366000008711,0.23538389999885112,465.6242652000001,465.6242652000001,465.6242652000001,465.6242652000001,,,,,,,,,,,,,,,,,,,2020,1,2025-05-14_18h51.28.478,sm,2024.2.4,59.977748255283004,2025-05-14 18h54.15.637749 +0200,
61,0,61,,,,,,space,3.599092299999029,None,None,2,None,0.8133720000005269,0.2284178999980213,0,0,0,0,,,,,0,0,0,0,,,,,61,0,61,0,465.6242652000001,,,,,,,,,,,,,,,,,,,,,,,,,,,,,,,,,,,,,,,,,,,,,,,,,,,,,,Kunde,3.4445,465.60893670000223,465.60940800000026,465.6095120000027,465.6242652000001,469.07407520000197,469.0583497000007,469.0619773000035,469.07407520000197,469.07407520000197,469.07407520000197,469.07407520000197,471.0584172000017,2,None,0.8133720000005269,0.2284178999980213,471.0741960000014,471.0741960000014,471.0741960000014,471.0741960000014,,,,,,,,,,,,,,,,,,,2020,1,2025-05-14_18h51.28.478,sm,2024.2.4,59.977748255283004,2025-05-14 18h54.15.637749 +0200,
62,0,62,,,,,,space,3.599092299999029,None,None,3,None,0.7233584999994491,0.26132700000016484,0,0,0,0,,,,,0,0,0,0,,,,,62,0,62,0,471.0741960000014,,,,,,,,,,,,,,,,,,,,,,,,,,,,,,,,,,,,,,,,,,,,,,,,,,,,,,Fahrrad,2.5982,471.0588895000001,471.0592686000018,471.0593632000018,471.0741960000014,473.67390640000303,473.65844460000153,473.66218760000265,473.67390640000303,473.67390640000303,473.67390640000303,473.67390640000303,475.6732955000007,3,None,0.7233584999994491,0.26132700000016484,,,,,,,,,,,,,,,,,,,,,,,2020,1,2025-05-14_18h51.28.478,sm,2024.2.4,59.977748255283004,2025-05-14 18h54.15.637749 +0200,
63,0,63,,,,,,space,3.599092299999029,None,None,3,None,0.993556899997202,0.21342890000232728,0,0,0,0,,,,,0,0,0,0,,,,,63,0,63,0,475.6898891000019,,,,,,,,,,,,,,,,,,,,,,,,,,,,,,,,,,,,,,,,,,,,,,,,,,,,,,Trennung,2.1949,475.67368030000216,475.67397020000135,475.6740361000011,475.6898891000019,477.8899581000005,477.8745885000026,477.8798615000014,477.8899581000005,477.8899581000005,477.8899581000005,477.8899581000005,479.87433560000136,3,None,0.993556899997202,0.21342890000232728,479.89026060000106,479.89026060000106,479.89026060000106,479.89026060000106,,,,,,,,,,,,,,,,,,,2020,1,2025-05-14_18h51.28.478,sm,2024.2.4,59.977748255283004,2025-05-14 18h54.15.637749 +0200,
64,0,64,,,,,,space,3.599092299999029,None,None,3,None,0.8799438999994891,0.23944349999874248,0,0,0,0,,,,,0,0,0,0,,,,,64,0,64,0,479.89026060000106,,,,,,,,,,,,,,,,,,,,,,,,,,,,,,,,,,,,,,,,,,,,,,,,,,,,,,Schnee,4.4767,479.87480890000006,479.8751469000017,479.875247400003,479.89026060000106,484.3734274000017,484.35777150000285,484.36158120000255,484.3734274000017,484.3734274000017,484.3734274000017,484.3734274000017,486.35770820000107,3,None,0.8799438999994891,0.23944349999874248,486.3734840000034,486.3734840000034,486.3734840000034,486.3734840000034,,,,,,,,,,,,,,,,,,,2020,1,2025-05-14_18h51.28.478,sm,2024.2.4,59.977748255283004,2025-05-14 18h54.15.637749 +0200,
65,0,65,,,,,,space,3.599092299999029,None,None,3,None,0.9799947999999858,0.21734769999966375,0,0,0,0,,,,,0,0,0,0,,,,,65,0,65,0,486.3734840000034,,,,,,,,,,,,,,,,,,,,,,,,,,,,,,,,,,,,,,,,,,,,,,,,,,,,,,Feld,2.4167,486.3581723000025,486.35862420000194,486.3587200000002,486.3734840000034,488.78940950000106,488.7735704000006,488.77687290000176,488.78940950000106,488.78940950000106,488.78940950000106,488.78940950000106,490.7741767000007,3,None,0.9799947999999858,0.21734769999966375,490.78984240000136,490.78984240000136,490.78984240000136,490.78984240000136,,,,,,,,,,,,,,,,,,,2020,1,2025-05-14_18h51.28.478,sm,2024.2.4,59.977748255283004,2025-05-14 18h54.15.637749 +0200,
66,0,66,,,,,,space,3.599092299999029,None,None,2,None,1.5957210999986273,0.20349400000122841,0,0,0,0,,,,,0,0,0,0,,,,,66,0,66,0,490.78984240000136,,,,,,,,,,,,,,,,,,,,,,,,,,,,,,,,,,,,,,,,,,,,,,,,,,,,,,Applaus,2.8863,490.7746571000025,490.7751961000031,490.77532030000293,490.78984240000136,493.68905900000027,493.67286920000333,493.67568870000105,493.68905900000027,493.68905900000027,493.68905900000027,493.68905900000027,495.6730008000013,2,None,1.5957210999986273,0.20349400000122841,495.68874830000277,495.68874830000277,495.68874830000277,495.68874830000277,,,,,,,,,,,,,,,,,,,2020,1,2025-05-14_18h51.28.478,sm,2024.2.4,59.977748255283004,2025-05-14 18h54.15.637749 +0200,
67,0,67,,,,,,space,3.599092299999029,None,None,3,None,1.095118100001855,0.21336069999961182,0,0,0,0,,,,,0,0,0,0,,,,,67,0,67,0,495.68874830000277,,,,,,,,,,,,,,,,,,,,,,,,,,,,,,,,,,,,,,,,,,,,,,,,,,,,,,Sicherheit,2.3843,495.67321840000295,495.6735473000008,495.6735959000034,495.68874830000277,498.08913830000165,498.0723876000011,498.0765879000028,498.08913830000165,498.08913830000165,498.08913830000165,498.08913830000165,500.07325200000196,3,None,1.095118100001855,0.21336069999961182,,,,,,,,,,,,,,,,,,,,,,,2020,1,2025-05-14_18h51.28.478,sm,2024.2.4,59.977748255283004,2025-05-14 18h54.15.637749 +0200,
68,0,68,,,,,,space,3.599092299999029,None,None,3,None,0.934399100002338,0.2602755999978399,0,0,0,0,,,,,0,0,0,0,,,,,68,0,68,0,500.0888528000032,,,,,,,,,,,,,,,,,,,,,,,,,,,,,,,,,,,,,,,,,,,,,,,,,,,,,,Schnorchel,4.5959,500.0737216000016,500.07427290000123,500.07437570000184,500.0888528000032,504.6895893000001,504.6736346000034,504.6779063000031,504.6895893000001,504.6895893000001,504.6895893000001,504.6895893000001,506.6887458000019,3,None,0.934399100002338,0.2602755999978399,,,,,,,,,,,,,,,,,,,,,,,2020,1,2025-05-14_18h51.28.478,sm,2024.2.4,59.977748255283004,2025-05-14 18h54.15.637749 +0200,
69,0,69,,,,,,space,3.599092299999029,None,None,3,None,0.6962720999981684,0.21747700000196346,0,0,0,0,,,,,0,0,0,0,,,,,69,0,69,0,506.70604970000204,,,,,,,,,,,,,,,,,,,,,,,,,,,,,,,,,,,,,,,,,,,,,,,,,,,,,,Decke,2.0052,506.68910210000104,506.6895816000033,506.68964640000195,506.70604970000204,508.72206650000226,508.7059902000001,508.70924300000115,508.72206650000226,508.72206650000226,508.72206650000226,508.72206650000226,510.70568410000124,3,None,0.6962720999981684,0.21747700000196346,510.72203750000335,510.72203750000335,510.72203750000335,510.72203750000335,,,,,,,,,,,,,,,,,,,2020,1,2025-05-14_18h51.28.478,sm,2024.2.4,59.977748255283004,2025-05-14 18h54.15.637749 +0200,
70,0,70,,,,,,space,3.599092299999029,None,None,3,None,1.4884696000008262,0.23142039999947883,0,0,0,0,,,,,0,0,0,0,,,,,70,0,70,0,510.72203750000335,,,,,,,,,,,,,,,,,,,,,,,,,,,,,,,,,,,,,,,,,,,,,,,,,,,,,,Beine,2.5377,510.70614820000264,510.7065096000006,510.70660840000346,510.72203750000335,513.2708165000004,513.2548459000027,513.2567935000006,513.2708165000004,513.2708165000004,513.2708165000004,513.2708165000004,515.2549543000023,3,None,1.4884696000008262,0.23142039999947883,515.2706770000004,515.2706770000004,515.2706770000004,515.2706770000004,,,,,,,,,,,,,,,,,,,2020,1,2025-05-14_18h51.28.478,sm,2024.2.4,59.977748255283004,2025-05-14 18h54.15.637749 +0200,
71,0,71,,,,,,space,3.599092299999029,None,None,3,None,0.8035987000002933,0.3789069999984349,0,0,0,0,,,,,0,0,0,0,,,,,71,0,71,0,515.2706770000004,,,,,,,,,,,,,,,,,,,,,,,,,,,,,,,,,,,,,,,,,,,,,,,,,,,,,,Tür,2.0934,515.2559195000031,515.2563954000034,515.2565483000035,515.2706770000004,517.3706809000032,517.3543950000021,517.3566869000024,517.3706809000032,517.3706809000032,517.3706809000032,517.3706809000032,519.3548888000005,3,None,0.8035987000002933,0.3789069999984349,,,,,,,,,,,,,,,,,,,,,,,2020,1,2025-05-14_18h51.28.478,sm,2024.2.4,59.977748255283004,2025-05-14 18h54.15.637749 +0200,
72,0,72,,,,,,space,3.599092299999029,None,None,3,None,0.7689935999987938,0.17065609999917797,0,0,0,0,,,,,0,0,0,0,,,,,72,0,72,0,519.371145000001,,,,,,,,,,,,,,,,,,,,,,,,,,,,,,,,,,,,,,,,,,,,,,,,,,,,,,Chips,2.6312,519.3553457000016,519.3557505000026,519.3558527000023,519.371145000001,522.0038803000025,521.9879203000019,521.9895602000033,522.0038803000025,522.0038803000025,522.0038803000025,522.0038803000025,523.9885755000032,3,None,0.7689935999987938,0.17065609999917797,524.0042096000034,524.0042096000034,524.0042096000034,524.0042096000034,,,,,,,,,,,,,,,,,,,2020,1,2025-05-14_18h51.28.478,sm,2024.2.4,59.977748255283004,2025-05-14 18h54.15.637749 +0200,
73,0,73,,,,,,space,3.599092299999029,None,None,3,None,0.8355061000002024,0.22938000000067404,0,0,0,0,,,,,0,0,0,0,,,,,73,0,73,0,524.0042096000034,,,,,,,,,,,,,,,,,,,,,,,,,,,,,,,,,,,,,,,,,,,,,,,,,,,,,,Spaghetti,2.4916,523.9889834000023,523.989419700003,523.9895082000003,524.0042096000034,526.5041144000024,526.4883242000033,526.4914144000031,526.5041144000024,526.5041144000024,526.5041144000024,526.5041144000024,528.488159200002,3,None,0.8355061000002024,0.22938000000067404,528.5039210000032,528.5039210000032,528.5039210000032,528.5039210000032,,,,,,,,,,,,,,,,,,,2020,1,2025-05-14_18h51.28.478,sm,2024.2.4,59.977748255283004,2025-05-14 18h54.15.637749 +0200,
74,0,74,,,,,,space,3.599092299999029,None,None,3,None,0.939553899999737,0.3680537000000186,0,0,0,0,,,,,0,0,0,0,,,,,74,0,74,0,528.5039210000032,,,,,,,,,,,,,,,,,,,,,,,,,,,,,,,,,,,,,,,,,,,,,,,,,,,,,,Postkarte,2.3006,528.4886376000031,528.4891556000002,528.4892713000008,528.5039210000032,530.8041505000001,530.7883101000007,530.7914775000027,530.8041505000001,530.8041505000001,530.8041505000001,530.8041505000001,532.7881414000003,3,None,0.939553899999737,0.3680537000000186,532.8045380000003,532.8045380000003,532.8045380000003,532.8045380000003,,,,,,,,,,,,,,,,,,,2020,1,2025-05-14_18h51.28.478,sm,2024.2.4,59.977748255283004,2025-05-14 18h54.15.637749 +0200,
75,0,75,,,,,,space,3.599092299999029,None,None,3,None,0.8335138000002189,0.20242679999864777,0,0,0,0,,,,,0,0,0,0,,,,,75,0,75,0,532.8045380000003,,,,,,,,,,,,,,,,,,,,,,,,,,,,,,,,,,,,,,,,,,,,,,,,,,,,,,Zimt,2.9061,532.7885041000009,532.7889076000029,532.7889813000002,532.8045380000003,535.7195253000027,535.7034265000002,535.7047555000026,535.7195253000027,535.7195253000027,535.7195253000027,535.7195253000027,537.7037562000005,3,None,0.8335138000002189,0.20242679999864777,,,,,,,,,,,,,,,,,,,,,,,2020,1,2025-05-14_18h51.28.478,sm,2024.2.4,59.977748255283004,2025-05-14 18h54.15.637749 +0200,
76,0,76,,,,,,space,3.599092299999029,None,None,2,None,1.187335400001757,0.19144709999818588,0,0,0,0,,,,,0,0,0,0,,,,,76,0,76,0,537.7192570000007,,,,,,,,,,,,,,,,,,,,,,,,,,,,,,,,,,,,,,,,,,,,,,,,,,,,,,Journalistin,2.3916,537.704274300002,537.7046055000028,537.7046670000018,537.7192570000007,540.120829800002,540.1047101000004,540.1121927000022,540.120829800002,540.120829800002,540.120829800002,540.120829800002,542.1047567000023,2,None,1.187335400001757,0.19144709999818588,542.1203451000001,542.1203451000001,542.1203451000001,542.1203451000001,,,,,,,,,,,,,,,,,,,2020,1,2025-05-14_18h51.28.478,sm,2024.2.4,59.977748255283004,2025-05-14 18h54.15.637749 +0200,
77,0,77,,,,,,space,3.599092299999029,None,None,3,None,0.7045825999994122,0.2274265000014566,0,0,0,0,,,,,0,0,0,0,,,,,77,0,77,0,542.1203451000001,,,,,,,,,,,,,,,,,,,,,,,,,,,,,,,,,,,,,,,,,,,,,,,,,,,,,,Zimmer,2.2639,542.1053083000006,542.1058015000017,542.1058954,542.1203451000001,544.3863131000035,544.3708614000025,544.3740835000026,544.3863131000035,544.3863131000035,544.3863131000035,544.3863131000035,546.3695128000036,3,None,0.7045825999994122,0.2274265000014566,546.3860491000014,546.3860491000014,546.3860491000014,546.3860491000014,,,,,,,,,,,,,,,,,,,2020,1,2025-05-14_18h51.28.478,sm,2024.2.4,59.977748255283004,2025-05-14 18h54.15.637749 +0200,
78,0,78,,,,,,space,3.599092299999029,None,None,3,None,0.9995718999998644,0.21949559999848134,0,0,0,0,,,,,0,0,0,0,,,,,78,0,78,0,546.3860491000014,,,,,,,,,,,,,,,,,,,,,,,,,,,,,,,,,,,,,,,,,,,,,,,,,,,,,,Zigarette,2.2129,546.3698591000029,546.3700842000035,546.370138600003,546.3860491000014,548.6025750000008,548.5865639000003,548.5887102000015,548.6025750000008,548.6025750000008,548.6025750000008,548.6025750000008,550.5864103000022,3,None,0.9995718999998644,0.21949559999848134,550.6021115000003,550.6021115000003,550.6021115000003,550.6021115000003,,,,,,,,,,,,,,,,,,,2020,1,2025-05-14_18h51.28.478,sm,2024.2.4,59.977748255283004,2025-05-14 18h54.15.637749 +0200,
79,0,79,,,,,,space,3.599092299999029,None,None,3,None,0.7973977000001469,0.17751619999762625,0,0,0,0,,,,,0,0,0,0,,,,,79,0,79,0,550.6021115000003,,,,,,,,,,,,,,,,,,,,,,,,,,,,,,,,,,,,,,,,,,,,,,,,,,,,,,Kuchen ,4.7208,550.5866021000002,550.5867674000001,550.5868055000028,550.6021115000003,555.3351330000005,555.3186874000021,555.3202389000035,555.3351330000005,555.3351330000005,555.3351330000005,555.3351330000005,557.3188134000011,3,None,0.7973977000001469,0.17751619999762625,,,,,,,,,,,,,,,,,,,,,,,2020,1,2025-05-14_18h51.28.478,sm,2024.2.4,59.977748255283004,2025-05-14 18h54.15.637749 +0200,
0,0,0,,,,,3.039,space,9.965217199998733,None,None,2,None,1.3323720000007597,0.33911149999767076,0,0,0,0,,,,,1,0,1,0,0,79,79,40,0,0,0,0,605.9661817000015,,,,,,,,,,,,,,,,,,,,,,,,,,,,,,,,570.7555078000005,570.7557749000007,570.7683717,570.7721500000007,570.7721500000007,580.7522584000035,space,9.965217199998733,None,580.7523547000019,580.7684603000016,580.7684603000016,593.9513941000005,None,593.9579370000029,593.966682600003,593.9669032666682,595.175505500003,603.9671926666672,604.9834048000012,605.9661817000015,605.9500935000033,Freund,3.039,605.9510012000028,605.951194600002,605.9512371000019,605.9661817000015,609.0156318000008,608.9999149000032,609.0034415000009,609.0156318000008,609.0156318000008,609.0156318000008,609.0156318000008,610.9997992000026,2,None,1.3323720000007597,0.33911149999767076,611.0161448000035,611.0161448000035,611.0161448000035,611.0161448000035,569.3192767,569.3193331000002,None,569.3194636000007,569.3357623000011,569.3357623000011,570.7185865000029,3,1.3821340000031341,None,,,,,,,,,2020,1,2025-05-14_18h51.28.478,sm,2024.2.4,59.977748255283004,2025-05-14 18h54.15.637749 +0200,
1,0,1,,,,,,space,9.965217199998733,None,None,2,None,1.1026832000025024,0.28123689999847556,0,0,0,0,,,,,1,0,1,0,,,,,1,0,1,0,611.0161448000035,,,,,,,,,,,,,,,,,,,,,,,,,,,,,,,,,,,,,,,,,,,,,,,,,,,,,,Blätter,3.4445,611.0002740000018,611.0007129000005,611.0008106000023,611.0161448000035,614.4660663000031,614.4498858000006,614.4537724000002,614.4660663000031,614.4660663000031,614.4660663000031,614.4660663000031,616.4504536000022,2,None,1.1026832000025024,0.28123689999847556,616.466295000002,616.466295000002,616.466295000002,616.466295000002,,,,,,,,,,,,,,,,,,,2020,1,2025-05-14_18h51.28.478,sm,2024.2.4,59.977748255283004,2025-05-14 18h54.15.637749 +0200,
2,0,2,,,,,,space,9.965217199998733,None,None,3,None,0.6937977999987197,0.1974664000008488,0,0,0,0,,,,,1,0,1,0,,,,,2,0,2,0,616.466295000002,,,,,,,,,,,,,,,,,,,,,,,,,,,,,,,,,,,,,,,,,,,,,,,,,,,,,,Gesetz,2.9036,616.4509067000035,616.4514015000022,616.4514978000007,616.466295000002,619.3819283000012,619.3661550000033,619.3695643000028,619.3819283000012,619.3819283000012,619.3819283000012,619.3819283000012,621.3660053000021,3,None,0.6937977999987197,0.1974664000008488,621.3822603000008,621.3822603000008,621.3822603000008,621.3822603000008,,,,,,,,,,,,,,,,,,,2020,1,2025-05-14_18h51.28.478,sm,2024.2.4,59.977748255283004,2025-05-14 18h54.15.637749 +0200,
3,0,3,,,,,,space,9.965217199998733,None,None,3,None,0.7942325999974855,0.23838869999963208,0,0,0,0,,,,,1,0,1,0,,,,,3,0,3,0,621.3822603000008,,,,,,,,,,,,,,,,,,,,,,,,,,,,,,,,,,,,,,,,,,,,,,,,,,,,,,Kante,3.6438,621.3664059000002,621.3667288000033,621.3668152000027,621.3822603000008,625.032037500001,625.0160436000006,625.0196559000033,625.032037500001,625.032037500001,625.032037500001,625.032037500001,627.0163413000009,3,None,0.7942325999974855,0.23838869999963208,627.0319510000008,627.0319510000008,627.0319510000008,627.0319510000008,,,,,,,,,,,,,,,,,,,2020,1,2025-05-14_18h51.28.478,sm,2024.2.4,59.977748255283004,2025-05-14 18h54.15.637749 +0200,
4,0,4,,,,,,space,9.965217199998733,None,None,3,None,0.8441313000002992,0.18347329999960493,0,0,0,0,,,,,1,0,1,0,,,,,4,0,4,0,627.0319510000008,,,,,,,,,,,,,,,,,,,,,,,,,,,,,,,,,,,,,,,,,,,,,,,,,,,,,,Sport,2.2385,627.0168164000024,627.0172850000017,627.0173824000012,627.0319510000008,629.2810530000024,629.2647952000007,629.2666080000017,629.2810530000024,629.2810530000024,629.2810530000024,629.2810530000024,631.264414600002,3,None,0.8441313000002992,0.18347329999960493,631.2808688000005,631.2808688000005,631.2808688000005,631.2808688000005,,,,,,,,,,,,,,,,,,,2020,1,2025-05-14_18h51.28.478,sm,2024.2.4,59.977748255283004,2025-05-14 18h54.15.637749 +0200,
5,0,5,,,,,,space,9.965217199998733,None,None,3,None,0.8615953000007721,0.2294767999992473,0,0,0,0,,,,,1,0,1,0,,,,,5,0,5,0,631.2808688000005,,,,,,,,,,,,,,,,,,,,,,,,,,,,,,,,,,,,,,,,,,,,,,,,,,,,,,Seife,2.5169,631.2645991000027,631.2647885000006,631.2648302000016,631.2808688000005,633.7982183000022,633.7812199,633.7832140000028,633.7982183000022,633.7982183000022,633.7982183000022,633.7982183000022,635.7815892000035,3,None,0.8615953000007721,0.2294767999992473,,,,,,,,,,,,,,,,,,,,,,,2020,1,2025-05-14_18h51.28.478,sm,2024.2.4,59.977748255283004,2025-05-14 18h54.15.637749 +0200,
6,0,6,,,,,,space,9.965217199998733,None,None,2,None,1.5148766999991494,0.2462889999987965,0,0,0,0,,,,,1,0,1,0,,,,,6,0,6,0,635.7979092000023,,,,,,,,,,,,,,,,,,,,,,,,,,,,,,,,,,,,,,,,,,,,,,,,,,,,,,Ozean,3.6005,635.7821032000029,635.7826246000004,635.7827289000015,635.7979092000023,639.3981112000001,639.3823281000004,639.3866099000006,639.3981112000001,639.3981112000001,639.3981112000001,639.3981112000001,641.3971179,2,None,1.5148766999991494,0.2462889999987965,,,,,,,,,,,,,,,,,,,,,,,2020,1,2025-05-14_18h51.28.478,sm,2024.2.4,59.977748255283004,2025-05-14 18h54.15.637749 +0200,
7,0,7,,,,,,space,9.965217199998733,None,None,2,None,0.8587289999995846,0.21547049999935552,0,0,0,0,,,,,1,0,1,0,,,,,7,0,7,0,641.4140831000004,,,,,,,,,,,,,,,,,,,,,,,,,,,,,,,,,,,,,,,,,,,,,,,,,,,,,,Professor,2.9832,641.3974721000013,641.3978083000002,641.3978810000008,641.4140831000004,644.3968277000022,644.3814781000001,644.3845200000032,644.3968277000022,644.3968277000022,644.3968277000022,644.3968277000022,646.380373,2,None,0.8587289999995846,0.21547049999935552,646.3968557000007,646.3968557000007,646.3968557000007,646.3968557000007,,,,,,,,,,,,,,,,,,,2020,1,2025-05-14_18h51.28.478,sm,2024.2.4,59.977748255283004,2025-05-14 18h54.15.637749 +0200,
8,0,8,,,,,,space,9.965217199998733,None,None,3,None,0.8689296000011382,0.24235879999832832,0,0,0,0,,,,,1,0,1,0,,,,,8,0,8,0,646.3968557000007,,,,,,,,,,,,,,,,,,,,,,,,,,,,,,,,,,,,,,,,,,,,,,,,,,,,,,Geheimnis,3.6615,646.3805703000035,646.3807775000023,646.3808226000001,646.3968557000007,650.063061300003,650.0469648000035,650.0485651000017,650.063061300003,650.063061300003,650.063061300003,650.063061300003,652.0470977000004,3,None,0.8689296000011382,0.24235879999832832,652.0630499000035,652.0630499000035,652.0630499000035,652.0630499000035,,,,,,,,,,,,,,,,,,,2020,1,2025-05-14_18h51.28.478,sm,2024.2.4,59.977748255283004,2025-05-14 18h54.15.637749 +0200,
9,0,9,,,,,,space,9.965217199998733,None,None,2,None,0.780385699999897,0.3750365000014426,0,0,0,0,,,,,1,0,1,0,,,,,9,0,9,0,652.0630499000035,,,,,,,,,,,,,,,,,,,,,,,,,,,,,,,,,,,,,,,,,,,,,,,,,,,,,,Schaf,3.6564,652.0474401000029,652.0477148000027,652.047765000003,652.0630499000035,655.7296643000009,655.7142050000002,655.7173856000009,655.7296643000009,655.7296643000009,655.7296643000009,655.7296643000009,657.7136546000002,2,None,0.780385699999897,0.3750365000014426,657.7299998000017,657.7299998000017,657.7299998000017,657.7299998000017,,,,,,,,,,,,,,,,,,,2020,1,2025-05-14_18h51.28.478,sm,2024.2.4,59.977748255283004,2025-05-14 18h54.15.637749 +0200,
10,0,10,,,,,,space,9.965217199998733,None,None,2,None,0.7236247000000731,0.24137919999702717,0,0,0,0,,,,,1,0,1,0,,,,,10,0,10,0,657.7299998000017,,,,,,,,,,,,,,,,,,,,,,,,,,,,,,,,,,,,,,,,,,,,,,,,,,,,,,Koch,4.3942,657.7140443000026,657.7143855000031,657.7144639000035,657.7299998000017,662.1295099000017,662.1140422000026,662.1172939000026,662.1295099000017,662.1295099000017,662.1295099000017,662.1295099000017,664.1138988000021,2,None,0.7236247000000731,0.24137919999702717,664.1302820000019,664.1302820000019,664.1302820000019,664.1302820000019,,,,,,,,,,,,,,,,,,,2020,1,2025-05-14_18h51.28.478,sm,2024.2.4,59.977748255283004,2025-05-14 18h54.15.637749 +0200,
11,0,11,,,,,,space,9.965217199998733,None,None,2,None,0.7128202000021702,0.1805382999991707,0,0,0,0,,,,,1,0,1,0,,,,,11,0,11,0,664.1302820000019,,,,,,,,,,,,,,,,,,,,,,,,,,,,,,,,,,,,,,,,,,,,,,,,,,,,,,Familie,2.7378,664.1142687000029,664.1146738000025,664.1147423000002,664.1302820000019,666.8787443000001,666.862869800003,666.8675301000003,666.8787443000001,666.8787443000001,666.8787443000001,666.8787443000001,668.8631172000023,2,None,0.7128202000021702,0.1805382999991707,,,,,,,,,,,,,,,,,,,,,,,2020,1,2025-05-14_18h51.28.478,sm,2024.2.4,59.977748255283004,2025-05-14 18h54.15.637749 +0200,
12,0,12,,,,,,space,9.965217199998733,None,None,3,None,0.7561574999999721,0.23842510000031325,0,0,0,0,,,,,1,0,1,0,,,,,12,0,12,0,668.879201900003,,,,,,,,,,,,,,,,,,,,,,,,,,,,,,,,,,,,,,,,,,,,,,,,,,,,,,Datei,2.8516,668.8636315000003,668.8640246000032,668.864124300002,668.879201900003,671.7453738000004,671.7292703000021,671.7314680000018,671.7453738000004,671.7453738000004,671.7453738000004,671.7453738000004,673.7292277000015,3,None,0.7561574999999721,0.23842510000031325,673.7452664000011,673.7452664000011,673.7452664000011,673.7452664000011,,,,,,,,,,,,,,,,,,,2020,1,2025-05-14_18h51.28.478,sm,2024.2.4,59.977748255283004,2025-05-14 18h54.15.637749 +0200,
13,0,13,,,,,,space,9.965217199998733,None,None,3,None,1.0761471000005258,0.21644150000065565,0,0,0,0,,,,,1,0,1,0,,,,,13,0,13,0,673.7452664000011,,,,,,,,,,,,,,,,,,,,,,,,,,,,,,,,,,,,,,,,,,,,,,,,,,,,,,Ausbildung,3.2825,673.7294942000008,673.7297133000029,673.7297666000013,673.7452664000011,677.0284345,677.0120251000008,677.0136116000031,677.0284345,677.0284345,677.0284345,677.0284345,679.012498,3,None,1.0761471000005258,0.21644150000065565,679.0287375000007,679.0287375000007,679.0287375000007,679.0287375000007,,,,,,,,,,,,,,,,,,,2020,1,2025-05-14_18h51.28.478,sm,2024.2.4,59.977748255283004,2025-05-14 18h54.15.637749 +0200,
14,0,14,,,,,,space,9.965217199998733,None,None,3,None,1.0154146000022592,0.2721548999979859,0,0,0,0,,,,,1,0,1,0,,,,,14,0,14,0,679.0287375000007,,,,,,,,,,,,,,,,,,,,,,,,,,,,,,,,,,,,,,,,,,,,,,,,,,,,,,Kopf,4.5524,679.0128554000003,679.0133105000023,679.0133874000021,679.0287375000007,683.5954604000035,683.5793754000006,683.5825713000013,683.5954604000035,683.5954604000035,683.5954604000035,683.5954604000035,685.5781804000035,3,None,1.0154146000022592,0.2721548999979859,685.594480300002,685.594480300002,685.594480300002,685.594480300002,,,,,,,,,,,,,,,,,,,2020,1,2025-05-14_18h51.28.478,sm,2024.2.4,59.977748255283004,2025-05-14 18h54.15.637749 +0200,
15,0,15,,,,,,space,9.965217199998733,None,None,3,None,0.6835759000023245,0.40571469999849796,0,0,0,0,,,,,1,0,1,0,,,,,15,0,15,0,685.594480300002,,,,,,,,,,,,,,,,,,,,,,,,,,,,,,,,,,,,,,,,,,,,,,,,,,,,,,Stein,2.3599,685.5783631000013,685.5785287000035,685.5785651000006,685.594480300002,687.9615994000014,687.9461494000025,687.949954300002,687.9615994000014,687.9615994000014,687.9615994000014,687.9615994000014,689.9461216000018,3,None,0.6835759000023245,0.40571469999849796,689.9621093000023,689.9621093000023,689.9621093000023,689.9621093000023,,,,,,,,,,,,,,,,,,,2020,1,2025-05-14_18h51.28.478,sm,2024.2.4,59.977748255283004,2025-05-14 18h54.15.637749 +0200,
16,0,16,,,,,,space,9.965217199998733,None,None,3,None,0.7722365999979957,0.17055769999933545,0,0,0,0,,,,,1,0,1,0,,,,,16,0,16,0,689.9621093000023,,,,,,,,,,,,,,,,,,,,,,,,,,,,,,,,,,,,,,,,,,,,,,,,,,,,,,Wissen,2.3843,689.9465686000003,689.9470034000005,689.9471121000024,689.9621093000023,692.3610780000017,692.3456171000034,692.3488373,692.3610780000017,692.3610780000017,692.3610780000017,692.3610780000017,694.345546200002,3,None,0.7722365999979957,0.17055769999933545,694.3612901000015,694.3612901000015,694.3612901000015,694.3612901000015,,,,,,,,,,,,,,,,,,,2020,1,2025-05-14_18h51.28.478,sm,2024.2.4,59.977748255283004,2025-05-14 18h54.15.637749 +0200,
17,0,17,,,,,,space,9.965217199998733,None,None,2,None,1.2865731999991112,0.2164085000003979,0,0,0,0,,,,,1,0,1,0,,,,,17,0,17,0,694.3612901000015,,,,,,,,,,,,,,,,,,,,,,,,,,,,,,,,,,,,,,,,,,,,,,,,,,,,,,Klee,4.4767,694.3457499000033,694.3461050000005,694.346144500003,694.3612901000015,698.8438794000031,698.8281822000026,698.830971000003,698.8438794000031,698.8438794000031,698.8438794000031,698.8438794000031,700.8284235000028,2,None,1.2865731999991112,0.2164085000003979,,,,,,,,,,,,,,,,,,,,,,,2020,1,2025-05-14_18h51.28.478,sm,2024.2.4,59.977748255283004,2025-05-14 18h54.15.637749 +0200,
18,0,18,,,,,,space,9.965217199998733,None,None,3,None,0.8174756000007619,0.14655820000189124,0,0,0,0,,,,,1,0,1,0,,,,,18,0,18,0,700.843270100002,,,,,,,,,,,,,,,,,,,,,,,,,,,,,,,,,,,,,,,,,,,,,,,,,,,,,,Tal,2.4521,700.8288807000026,700.8295317000011,700.8296418000027,700.843270100002,703.3102922000035,703.2942184000021,703.2979349000016,703.3102922000035,703.3102922000035,703.3102922000035,703.3102922000035,705.2941394000009,3,None,0.8174756000007619,0.14655820000189124,705.3106994000009,705.3106994000009,705.3106994000009,705.3106994000009,,,,,,,,,,,,,,,,,,,2020,1,2025-05-14_18h51.28.478,sm,2024.2.4,59.977748255283004,2025-05-14 18h54.15.637749 +0200,
19,0,19,,,,,,space,9.965217199998733,None,None,2,None,1.200913299999229,0.27631990000008955,0,0,0,0,,,,,1,0,1,0,,,,,19,0,19,0,705.3106994000009,,,,,,,,,,,,,,,,,,,,,,,,,,,,,,,,,,,,,,,,,,,,,,,,,,,,,,Rebe,4.0852,705.2945438000024,705.2948419000022,705.2949270000026,705.3106994000009,709.4101803000012,709.3939205000024,709.3962230000034,709.4101803000012,709.4101803000012,709.4101803000012,709.4101803000012,711.393421300003,2,None,1.200913299999229,0.27631990000008955,711.4104442000025,711.4104442000025,711.4104442000025,711.4104442000025,,,,,,,,,,,,,,,,,,,2020,1,2025-05-14_18h51.28.478,sm,2024.2.4,59.977748255283004,2025-05-14 18h54.15.637749 +0200,
20,0,20,,,,,,space,9.965217199998733,None,None,3,None,0.7149724000009883,0.21944789999906789,0,0,0,0,,,,,1,0,1,0,,,,,20,0,20,0,711.4104442000025,,,,,,,,,,,,,,,,,,,,,,,,,,,,,,,,,,,,,,,,,,,,,,,,,,,,,,Puppe,2.4137,711.3939155000007,711.3942958000007,711.3943919000012,711.4104442000025,713.8273946000008,713.8115185000024,713.814356400002,713.8273946000008,713.8273946000008,713.8273946000008,713.8273946000008,715.8110158000018,3,None,0.7149724000009883,0.21944789999906789,715.826124700001,715.826124700001,715.826124700001,715.826124700001,,,,,,,,,,,,,,,,,,,2020,1,2025-05-14_18h51.28.478,sm,2024.2.4,59.977748255283004,2025-05-14 18h54.15.637749 +0200,
21,0,21,,,,,,space,9.965217199998733,None,None,3,None,0.6986369000005652,0.2154484999991837,0,0,0,0,,,,,1,0,1,0,,,,,21,0,21,0,715.826124700001,,,,,,,,,,,,,,,,,,,,,,,,,,,,,,,,,,,,,,,,,,,,,,,,,,,,,,Album,2.6446,715.8113568000008,715.8116648000032,715.8117789000025,715.826124700001,718.4765772000028,718.4607324000026,718.4639969000018,718.4765772000028,718.4765772000028,718.4765772000028,718.4765772000028,720.4606986000035,3,None,0.6986369000005652,0.2154484999991837,720.4766692000012,720.4766692000012,720.4766692000012,720.4766692000012,,,,,,,,,,,,,,,,,,,2020,1,2025-05-14_18h51.28.478,sm,2024.2.4,59.977748255283004,2025-05-14 18h54.15.637749 +0200,
22,0,22,,,,,,space,9.965217199998733,None,None,2,None,1.4875792999991972,0.37297860000035143,0,0,0,0,,,,,1,0,1,0,,,,,22,0,22,0,720.4766692000012,,,,,,,,,,,,,,,,,,,,,,,,,,,,,,,,,,,,,,,,,,,,,,,,,,,,,,Wasser,2.6312,720.4610881000008,720.4614873000028,720.4615644000005,720.4766692000012,723.1091354000018,723.0941397000024,723.0969907000035,723.1091354000018,723.1091354000018,723.1091354000018,723.1091354000018,725.0932971000002,2,None,1.4875792999991972,0.37297860000035143,725.1093611000033,725.1093611000033,725.1093611000033,725.1093611000033,,,,,,,,,,,,,,,,,,,2020,1,2025-05-14_18h51.28.478,sm,2024.2.4,59.977748255283004,2025-05-14 18h54.15.637749 +0200,
23,0,23,,,,,,space,9.965217199998733,None,None,2,None,1.0998240999979316,0.2901110000020708,0,0,0,0,,,,,1,0,1,0,,,,,23,0,23,0,725.1093611000033,,,,,,,,,,,,,,,,,,,,,,,,,,,,,,,,,,,,,,,,,,,,,,,,,,,,,,Alligator,2.9109,725.0937211000019,725.0941726000019,725.094253700001,725.1093611000033,728.0257926000013,728.0093344000015,728.0134732000006,728.0257926000013,728.0257926000013,728.0257926000013,728.0257926000013,730.0094024000027,2,None,1.0998240999979316,0.2901110000020708,730.0258463000027,730.0258463000027,730.0258463000027,730.0258463000027,,,,,,,,,,,,,,,,,,,2020,1,2025-05-14_18h51.28.478,sm,2024.2.4,59.977748255283004,2025-05-14 18h54.15.637749 +0200,
24,0,24,,,,,,space,9.965217199998733,None,None,3,None,0.7590416000020923,0.22639059999710298,0,0,0,0,,,,,1,0,1,0,,,,,24,0,24,0,730.0258463000027,,,,,,,,,,,,,,,,,,,,,,,,,,,,,,,,,,,,,,,,,,,,,,,,,,,,,,Ball,2.9645,730.0096944000034,730.0100644000013,730.0101100000029,730.0258463000027,732.9921727000001,732.9759128000005,732.977321600003,732.9921727000001,732.9921727000001,732.9921727000001,732.9921727000001,734.9754737000003,3,None,0.7590416000020923,0.22639059999710298,734.9913482000011,734.9913482000011,734.9913482000011,734.9913482000011,,,,,,,,,,,,,,,,,,,2020,1,2025-05-14_18h51.28.478,sm,2024.2.4,59.977748255283004,2025-05-14 18h54.15.637749 +0200,
25,0,25,,,,,,space,9.965217199998733,None,None,2,None,1.7555504000010842,None,0,0,0,0,,,,,1,0,1,0,,,,,25,0,25,0,734.9913482000011,,,,,,,,,,,,,,,,,,,,,,,,,,,,,,,,,,,,,,,,,,,,,,,,,,,,,,Vulkan,2.1949,734.975693700002,734.9759170000034,734.9759633000031,734.9913482000011,737.1917728000008,737.175346400003,737.1799814000005,737.1917728000008,737.1917728000008,737.1917728000008,737.1917728000008,739.1757698000001,2,None,1.7555504000010842,None,,,,,,,,,,,,,,,,,,,,,,,2020,1,2025-05-14_18h51.28.478,sm,2024.2.4,59.977748255283004,2025-05-14 18h54.15.637749 +0200,
26,0,26,,,,,,space,9.965217199998733,None,None,3,None,1.7064529999988736,0.2422789999982342,0,0,0,0,,,,,1,0,1,0,,,,,26,0,26,0,739.1917828000005,,,,,,,,,,,,,,,,,,,,,,,,,,,,,,,,,,,,,,,,,,,,,,,,,,,,,,Nebel,3.2059,739.1764519000026,739.1769083000036,739.1770357000023,739.1917828000005,742.4080394000011,742.391466000001,742.3932855000021,742.4080394000011,742.4080394000011,742.4080394000011,742.4080394000011,744.3916168000032,3,None,1.7064529999988736,0.2422789999982342,,,,,,,,,,,,,,,,,,,,,,,2020,1,2025-05-14_18h51.28.478,sm,2024.2.4,59.977748255283004,2025-05-14 18h54.15.637749 +0200,
27,0,27,,,,,,space,9.965217199998733,None,None,3,None,0.8865033000001858,0.1785271999979159,0,0,0,0,,,,,1,0,1,0,,,,,27,0,27,0,744.4080379000006,,,,,,,,,,,,,,,,,,,,,,,,,,,,,,,,,,,,,,,,,,,,,,,,,,,,,,Rot,2.3419,744.392316700003,744.3926861,744.3927531000008,744.4080379000006,746.7575679000001,746.7414362000018,746.7429607000013,746.7575679000001,746.7575679000001,746.7575679000001,746.7575679000001,748.7412895000016,3,None,0.8865033000001858,0.1785271999979159,748.7575443000023,748.7575443000023,748.7575443000023,748.7575443000023,,,,,,,,,,,,,,,,,,,2020,1,2025-05-14_18h51.28.478,sm,2024.2.4,59.977748255283004,2025-05-14 18h54.15.637749 +0200,
28,0,28,,,,,,space,9.965217199998733,None,None,3,None,1.5340901999989,0.31517689999964205,0,0,0,0,,,,,1,0,1,0,,,,,28,0,28,0,748.7575443000023,,,,,,,,,,,,,,,,,,,,,,,,,,,,,,,,,,,,,,,,,,,,,,,,,,,,,,Krieg,3.6297,748.7415266000025,748.7417337000006,748.741779400003,748.7575443000023,752.3909899000028,752.375216700002,752.3789538000019,752.3909899000028,752.3909899000028,752.3909899000028,752.3909899000028,754.3745019000016,3,None,1.5340901999989,0.31517689999964205,754.3908758000034,754.3908758000034,754.3908758000034,754.3908758000034,,,,,,,,,,,,,,,,,,,2020,1,2025-05-14_18h51.28.478,sm,2024.2.4,59.977748255283004,2025-05-14 18h54.15.637749 +0200,
29,0,29,,,,,,space,9.965217199998733,None,None,2,None,0.9293988999997964,0.208466000000044,0,0,0,0,,,,,1,0,1,0,,,,,29,0,29,0,754.3908758000034,,,,,,,,,,,,,,,,,,,,,,,,,,,,,,,,,,,,,,,,,,,,,,,,,,,,,,Turnerin,2.9443,754.3749771000003,754.3753660000002,754.3754662000028,754.3908758000034,757.3402919,757.3247095000006,757.3284433000008,757.3402919,757.3402919,757.3402919,757.3402919,759.3252425000028,2,None,0.9293988999997964,0.208466000000044,759.3407558000035,759.3407558000035,759.3407558000035,759.3407558000035,,,,,,,,,,,,,,,,,,,2020,1,2025-05-14_18h51.28.478,sm,2024.2.4,59.977748255283004,2025-05-14 18h54.15.637749 +0200,
30,0,30,,,,,,space,9.965217199998733,None,None,3,None,1.3462308999987727,0.17760550000093644,0,0,0,0,,,,,1,0,1,0,,,,,30,0,30,0,759.3407558000035,,,,,,,,,,,,,,,,,,,,,,,,,,,,,,,,,,,,,,,,,,,,,,,,,,,,,,Platz,4.5959,759.3257181000008,759.3261962000033,759.3262963000016,759.3407558000035,763.9405338000033,763.9244440000002,763.928176100002,763.9405338000033,763.9405338000033,763.9405338000033,763.9405338000033,765.9247375000014,3,None,1.3462308999987727,0.17760550000093644,765.9401964000026,765.9401964000026,765.9401964000026,765.9401964000026,,,,,,,,,,,,,,,,,,,2020,1,2025-05-14_18h51.28.478,sm,2024.2.4,59.977748255283004,2025-05-14 18h54.15.637749 +0200,
31,0,31,,,,,,space,9.965217199998733,None,None,2,None,0.8390652000016416,0.23723939999763388,0,0,0,0,,,,,1,0,1,0,,,,,31,0,31,0,765.9401964000026,,,,,,,,,,,,,,,,,,,,,,,,,,,,,,,,,,,,,,,,,,,,,,,,,,,,,,Servierer,5.3463,765.9249335000022,765.9251111000012,765.9251583000005,765.9401964000026,771.2896683000035,771.2733609000024,771.2751311000029,771.2896683000035,771.2896683000035,771.2896683000035,771.2896683000035,773.2737062000015,2,None,0.8390652000016416,0.23723939999763388,773.2903583000007,773.2903583000007,773.2903583000007,773.2903583000007,,,,,,,,,,,,,,,,,,,2020,1,2025-05-14_18h51.28.478,sm,2024.2.4,59.977748255283004,2025-05-14 18h54.15.637749 +0200,
32,0,32,,,,,,space,9.965217199998733,None,None,3,None,0.809896499999013,0.22650460000295425,0,0,0,0,,,,,1,0,1,0,,,,,32,0,32,0,773.2903583000007,,,,,,,,,,,,,,,,,,,,,,,,,,,,,,,,,,,,,,,,,,,,,,,,,,,,,,Hilfe,2.0589,773.2742173000006,773.2746591000032,773.2747694000027,773.2903583000007,775.356799000001,775.3408076000014,775.3449525000033,775.356799000001,775.356799000001,775.356799000001,775.356799000001,777.3397128000033,3,None,0.809896499999013,0.22650460000295425,777.3562510000011,777.3562510000011,777.3562510000011,777.3562510000011,,,,,,,,,,,,,,,,,,,2020,1,2025-05-14_18h51.28.478,sm,2024.2.4,59.977748255283004,2025-05-14 18h54.15.637749 +0200,
33,0,33,,,,,,space,9.965217199998733,None,None,2,None,0.7943865000015649,0.19555079999918235,0,0,0,0,,,,,1,0,1,0,,,,,33,0,33,0,777.3562510000011,,,,,,,,,,,,,,,,,,,,,,,,,,,,,,,,,,,,,,,,,,,,,,,,,,,,,,Publikum,2.7357,777.3399676000008,777.3402757000003,777.3403284000015,777.3562510000011,780.1057818000008,780.0896782000018,780.0924765000018,780.1057818000008,780.1057818000008,780.1057818000008,780.1057818000008,782.0892562000008,2,None,0.7943865000015649,0.19555079999918235,782.1055849000004,782.1055849000004,782.1055849000004,782.1055849000004,,,,,,,,,,,,,,,,,,,2020,1,2025-05-14_18h51.28.478,sm,2024.2.4,59.977748255283004,2025-05-14 18h54.15.637749 +0200,
34,0,34,,,,,,space,9.965217199998733,None,None,3,None,1.0238700000008976,0.20046309999816003,0,0,0,0,,,,,1,0,1,0,,,,,34,0,34,0,782.1055849000004,,,,,,,,,,,,,,,,,,,,,,,,,,,,,,,,,,,,,,,,,,,,,,,,,,,,,,Zunge,2.0934,782.0894673000003,782.0896672000017,782.0897086000004,782.1055849000004,784.2065617000007,784.1896721000012,784.1916471000004,784.2065617000007,784.2065617000007,784.2065617000007,784.2065617000007,786.2054574000031,3,None,1.0238700000008976,0.20046309999816003,,,,,,,,,,,,,,,,,,,,,,,2020,1,2025-05-14_18h51.28.478,sm,2024.2.4,59.977748255283004,2025-05-14 18h54.15.637749 +0200,
35,0,35,,,,,,space,9.965217199998733,None,None,3,None,1.0046135999982653,0.22835739999936777,0,0,0,0,,,,,1,0,1,0,,,,,35,0,35,0,786.222217100003,,,,,,,,,,,,,,,,,,,,,,,,,,,,,,,,,,,,,,,,,,,,,,,,,,,,,,Safari,3.8592,786.2056417000022,786.2058733000013,786.2059136000025,786.222217100003,790.0891753000033,790.0732770000031,790.0769590000018,790.0891753000033,790.0891753000033,790.0891753000033,790.0891753000033,792.0736212000011,3,None,1.0046135999982653,0.22835739999936777,792.0894388000015,792.0894388000015,792.0894388000015,792.0894388000015,,,,,,,,,,,,,,,,,,,2020,1,2025-05-14_18h51.28.478,sm,2024.2.4,59.977748255283004,2025-05-14 18h54.15.637749 +0200,
36,0,36,,,,,,space,9.965217199998733,None,None,3,None,0.9967757999984315,0.2392987000021094,0,0,0,0,,,,,1,0,1,0,,,,,36,0,36,0,792.0894388000015,,,,,,,,,,,,,,,,,,,,,,,,,,,,,,,,,,,,,,,,,,,,,,,,,,,,,,Ehe,2.7584,792.074106,792.0745683000023,792.0746638000019,792.0894388000015,794.8553555000035,794.8403303000014,794.8434592000012,794.8553555000035,794.8553555000035,794.8553555000035,794.8553555000035,796.8385094000005,3,None,0.9967757999984315,0.2392987000021094,796.8549461000002,796.8549461000002,796.8549461000002,796.8549461000002,,,,,,,,,,,,,,,,,,,2020,1,2025-05-14_18h51.28.478,sm,2024.2.4,59.977748255283004,2025-05-14 18h54.15.637749 +0200,
37,0,37,,,,,,space,9.965217199998733,None,None,3,None,0.8750211999977182,0.23929710000084015,0,0,0,0,,,,,1,0,1,0,,,,,37,0,37,0,796.8549461000002,,,,,,,,,,,,,,,,,,,,,,,,,,,,,,,,,,,,,,,,,,,,,,,,,,,,,,Gesicht,2.0168,796.8387532000015,796.8389702000022,796.8390235000006,796.8549461000002,798.8720844000018,798.8557038000035,798.8579234000026,798.8720844000018,798.8720844000018,798.8720844000018,798.8720844000018,800.8560092000007,3,None,0.8750211999977182,0.23929710000084015,,,,,,,,,,,,,,,,,,,,,,,2020,1,2025-05-14_18h51.28.478,sm,2024.2.4,59.977748255283004,2025-05-14 18h54.15.637749 +0200,
38,0,38,,,,,,space,9.965217199998733,None,None,3,None,0.6648194000008516,0.21847730000081356,0,0,0,0,,,,,1,0,1,0,,,,,38,0,38,0,800.8715484000022,,,,,,,,,,,,,,,,,,,,,,,,,,,,,,,,,,,,,,,,,,,,,,,,,,,,,,Tasche,2.0052,800.856463600001,800.8570160000017,800.8571176000005,800.8715484000022,802.8889641000023,802.8724264000011,802.8761783000009,802.8889641000023,802.8889641000023,802.8889641000023,802.8889641000023,804.8720724000013,3,None,0.6648194000008516,0.21847730000081356,804.8879834000036,804.8879834000036,804.8879834000036,804.8879834000036,,,,,,,,,,,,,,,,,,,2020,1,2025-05-14_18h51.28.478,sm,2024.2.4,59.977748255283004,2025-05-14 18h54.15.637749 +0200,
39,0,39,,,,,,space,9.965217199998733,None,None,3,None,0.7077150000004622,0.3600535999976273,0,0,0,0,,,,,1,0,1,0,,,,,39,0,39,0,804.8879834000036,,,,,,,,,,,,,,,,,,,,,,,,,,,,,,,,,,,,,,,,,,,,,,,,,,,,,,Juwel,2.8901,804.8725023000006,804.8730043000032,804.8731008000032,804.8879834000036,807.7880666000019,807.7721872000002,807.7767046000008,807.7880666000019,807.7880666000019,807.7880666000019,807.7880666000019,809.7717243000006,3,None,0.7077150000004622,0.3600535999976273,809.7876655,809.7876655,809.7876655,809.7876655,,,,,,,,,,,,,,,,,,,2020,1,2025-05-14_18h51.28.478,sm,2024.2.4,59.977748255283004,2025-05-14 18h54.15.637749 +0200,
40,0,40,,,,,,space,9.965217199998733,None,None,3,None,0.6747633000013593,0.2064460000001418,0,0,0,0,,,,,1,0,1,0,,,,,40,0,40,0,809.7876655,,,,,,,,,,,,,,,,,,,,,,,,,,,,,,,,,,,,,,,,,,,,,,,,,,,,,,Sand,2.3229,809.7721821000014,809.7726197000011,809.7726767000022,809.7876655,812.120450800001,812.1050982000015,812.1087300000036,812.120450800001,812.120450800001,812.120450800001,812.120450800001,814.1049613000032,3,None,0.6747633000013593,0.2064460000001418,814.1237484000012,814.1237484000012,814.1237484000012,814.1237484000012,,,,,,,,,,,,,,,,,,,2020,1,2025-05-14_18h51.28.478,sm,2024.2.4,59.977748255283004,2025-05-14 18h54.15.637749 +0200,
41,0,41,,,,,,space,9.965217199998733,None,None,3,None,0.661887399997795,0.2802384000024176,0,0,0,0,,,,,1,0,1,0,,,,,41,0,41,0,814.1237484000012,,,,,,,,,,,,,,,,,,,,,,,,,,,,,,,,,,,,,,,,,,,,,,,,,,,,,,Gelenk,2.6097,814.1054485000022,814.1059383000029,814.1060393000007,814.1237484000012,816.7370794000017,816.720904400001,816.7229143000004,816.7370794000017,816.7370794000017,816.7370794000017,816.7370794000017,818.7210618000026,3,None,0.661887399997795,0.2802384000024176,,,,,,,,,,,,,,,,,,,,,,,2020,1,2025-05-14_18h51.28.478,sm,2024.2.4,59.977748255283004,2025-05-14 18h54.15.637749 +0200,
42,0,42,,,,,,space,9.965217199998733,None,None,3,None,0.8213782999991963,0.20860580000226037,0,0,0,0,,,,,1,0,1,0,,,,,42,0,42,0,818.7374387000018,,,,,,,,,,,,,,,,,,,,,,,,,,,,,,,,,,,,,,,,,,,,,,,,,,,,,,Brief,2.7992,818.7216646000015,818.722201200002,818.7222926000031,818.7374387000018,821.5373682000027,821.5204742000024,821.5219987000019,821.5373682000027,821.5373682000027,821.5373682000027,821.5373682000027,823.5204034000017,3,None,0.8213782999991963,0.20860580000226037,823.5366579000001,823.5366579000001,823.5366579000001,823.5366579000001,,,,,,,,,,,,,,,,,,,2020,1,2025-05-14_18h51.28.478,sm,2024.2.4,59.977748255283004,2025-05-14 18h54.15.637749 +0200,
43,0,43,,,,,,space,9.965217199998733,None,None,3,None,0.6914599000010639,0.2035041999988607,0,0,0,0,,,,,1,0,1,0,,,,,43,0,43,0,823.5366579000001,,,,,,,,,,,,,,,,,,,,,,,,,,,,,,,,,,,,,,,,,,,,,,,,,,,,,,Geschichte,5.1698,823.5208472000013,823.5210951000008,823.5211633000035,823.5366579000001,828.7203595000028,828.703400800001,828.7068774000036,828.7203595000028,828.7203595000028,828.7203595000028,828.7203595000028,830.7038488000035,3,None,0.6914599000010639,0.2035041999988607,,,,,,,,,,,,,,,,,,,,,,,2020,1,2025-05-14_18h51.28.478,sm,2024.2.4,59.977748255283004,2025-05-14 18h54.15.637749 +0200,
44,0,44,,,,,,space,9.965217199998733,None,None,3,None,0.583464899998944,0.22840010000072652,0,0,0,0,,,,,1,0,1,0,,,,,44,0,44,0,830.720484700003,,,,,,,,,,,,,,,,,,,,,,,,,,,,,,,,,,,,,,,,,,,,,,,,,,,,,,Soße,2.2639,830.7043046000035,830.7047107000035,830.7048181000027,830.720484700003,832.986317400002,832.9709558000031,832.9749991000026,832.986317400002,832.986317400002,832.986317400002,832.986317400002,834.9707916000007,3,None,0.583464899998944,0.22840010000072652,834.9868200000019,834.9868200000019,834.9868200000019,834.9868200000019,,,,,,,,,,,,,,,,,,,2020,1,2025-05-14_18h51.28.478,sm,2024.2.4,59.977748255283004,2025-05-14 18h54.15.637749 +0200,
45,0,45,,,,,,space,9.965217199998733,None,None,3,None,0.7201287999996566,0.23442380000051344,0,0,0,0,,,,,1,0,1,0,,,,,45,0,45,0,834.9868200000019,,,,,,,,,,,,,,,,,,,,,,,,,,,,,,,,,,,,,,,,,,,,,,,,,,,,,,Rolle,4.4429,834.971221900003,834.9716802000003,834.9717703000024,834.9868200000019,839.436049400003,839.4200994000021,839.4231008000024,839.436049400003,839.436049400003,839.436049400003,839.436049400003,841.4200059000032,3,None,0.7201287999996566,0.23442380000051344,841.435978700003,841.435978700003,841.435978700003,841.435978700003,,,,,,,,,,,,,,,,,,,2020,1,2025-05-14_18h51.28.478,sm,2024.2.4,59.977748255283004,2025-05-14 18h54.15.637749 +0200,
46,0,46,,,,,,space,9.965217199998733,None,None,3,None,0.7600138999987394,0.22434179999982007,0,0,0,0,,,,,1,0,1,0,,,,,46,0,46,0,841.435978700003,,,,,,,,,,,,,,,,,,,,,,,,,,,,,,,,,,,,,,,,,,,,,,,,,,,,,,Butter,2.2074,841.4202651000014,841.4206322000027,841.4206752000027,841.435978700003,843.6526371,843.6367063000034,843.6405385000035,843.6526371,843.6526371,843.6526371,843.6526371,845.6355842000012,3,None,0.7600138999987394,0.22434179999982007,845.6521993000024,845.6521993000024,845.6521993000024,845.6521993000024,,,,,,,,,,,,,,,,,,,2020,1,2025-05-14_18h51.28.478,sm,2024.2.4,59.977748255283004,2025-05-14 18h54.15.637749 +0200,
47,0,47,,,,,,space,9.965217199998733,None,None,3,None,0.8918257999976049,0.23039210000206367,0,0,0,0,,,,,1,0,1,0,,,,,47,0,47,0,845.6521993000024,,,,,,,,,,,,,,,,,,,,,,,,,,,,,,,,,,,,,,,,,,,,,,,,,,,,,,Winter,2.4167,845.6358368000001,845.6360446000035,845.6360929000002,845.6521993000024,848.0686523000004,848.0536508000005,848.0571793000017,848.0686523000004,848.0686523000004,848.0686523000004,848.0686523000004,850.0527798000003,3,None,0.8918257999976049,0.23039210000206367,850.0686409000009,850.0686409000009,850.0686409000009,850.0686409000009,,,,,,,,,,,,,,,,,,,2020,1,2025-05-14_18h51.28.478,sm,2024.2.4,59.977748255283004,2025-05-14 18h54.15.637749 +0200,
48,0,48,,,,,,space,9.965217199998733,None,None,3,None,0.9378575999980967,0.26418700000067474,0,0,0,0,,,,,1,0,1,0,,,,,48,0,48,0,850.0686409000009,,,,,,,,,,,,,,,,,,,,,,,,,,,,,,,,,,,,,,,,,,,,,,,,,,,,,,Schwimmen,2.1413,850.0531461000028,850.0535163000022,850.0536148000028,850.0686409000009,852.2195750000028,852.2028875000033,852.2067453000018,852.2195750000028,852.2195750000028,852.2195750000028,852.2195750000028,854.2045297000004,3,None,0.9378575999980967,0.26418700000067474,,,,,,,,,,,,,,,,,,,,,,,2020,1,2025-05-14_18h51.28.478,sm,2024.2.4,59.977748255283004,2025-05-14 18h54.15.637749 +0200,
49,0,49,,,,,,space,9.965217199998733,None,None,3,None,1.0642923999985214,0.24130430000150227,0,0,0,0,,,,,1,0,1,0,,,,,49,0,49,0,854.217902700002,,,,,,,,,,,,,,,,,,,,,,,,,,,,,,,,,,,,,,,,,,,,,,,,,,,,,,Keller,3.0547,854.2050361000001,854.2054558000018,854.2055558000029,854.217902700002,857.2852594000033,857.2690802000034,857.2715340000032,857.2852594000033,857.2852594000033,857.2852594000033,857.2852594000033,859.2685746000025,3,None,1.0642923999985214,0.24130430000150227,859.2851403000022,859.2851403000022,859.2851403000022,859.2851403000022,,,,,,,,,,,,,,,,,,,2020,1,2025-05-14_18h51.28.478,sm,2024.2.4,59.977748255283004,2025-05-14 18h54.15.637749 +0200,
50,0,50,,,,,,space,9.965217199998733,None,None,2,None,0.8068064999970375,0.2663328000016918,0,0,0,0,,,,,1,0,1,0,,,,,50,0,50,0,859.2851403000022,,,,,,,,,,,,,,,,,,,,,,,,,,,,,,,,,,,,,,,,,,,,,,,,,,,,,,Schwester,2.2129,859.2688738000033,859.269156600003,859.2692165000008,859.2851403000022,861.5011637000025,861.4852106000035,861.4881618000036,861.5011637000025,861.5011637000025,861.5011637000025,861.5011637000025,863.4854070000001,2,None,0.8068064999970375,0.2663328000016918,863.5024567,863.5024567,863.5024567,863.5024567,,,,,,,,,,,,,,,,,,,2020,1,2025-05-14_18h51.28.478,sm,2024.2.4,59.977748255283004,2025-05-14 18h54.15.637749 +0200,
51,0,51,,,,,,space,9.965217199998733,None,None,2,None,1.3211975000012899,0.4397782999985793,0,0,0,0,,,,,1,0,1,0,,,,,51,0,51,0,863.5024567,,,,,,,,,,,,,,,,,,,,,,,,,,,,,,,,,,,,,,,,,,,,,,,,,,,,,,Zwerg,2.5377,863.4857893000008,863.4862373000033,863.4863412000013,863.5024567,866.0509640000018,866.0349374000034,866.0366414000018,866.0509640000018,866.0509640000018,866.0509640000018,866.0509640000018,868.0346949000013,2,None,1.3211975000012899,0.4397782999985793,868.0506303000002,868.0506303000002,868.0506303000002,868.0506303000002,,,,,,,,,,,,,,,,,,,2020,1,2025-05-14_18h51.28.478,sm,2024.2.4,59.977748255283004,2025-05-14 18h54.15.637749 +0200,
52,0,52,,,,,,space,9.965217199998733,None,None,3,None,0.8062725999989198,0.18855099999927916,0,0,0,0,,,,,1,0,1,0,,,,,52,0,52,0,868.0506303000002,,,,,,,,,,,,,,,,,,,,,,,,,,,,,,,,,,,,,,,,,,,,,,,,,,,,,,Komödie,2.3916,868.0350577000027,868.0353062000031,868.0353727000002,868.0506303000002,870.4505393000036,870.4348430000027,870.4370110000018,870.4505393000036,870.4505393000036,870.4505393000036,870.4505393000036,872.4342486000023,3,None,0.8062725999989198,0.18855099999927916,872.4505398000001,872.4505398000001,872.4505398000001,872.4505398000001,,,,,,,,,,,,,,,,,,,2020,1,2025-05-14_18h51.28.478,sm,2024.2.4,59.977748255283004,2025-05-14 18h54.15.637749 +0200,
53,0,53,,,,,,space,9.965217199998733,None,None,3,None,0.9888496000021405,0.20612160000018775,0,0,0,0,,,,,1,0,1,0,,,,,53,0,53,0,872.4505398000001,,,,,,,,,,,,,,,,,,,,,,,,,,,,,,,,,,,,,,,,,,,,,,,,,,,,,,Feier,2.1743,872.4344493000026,872.4346356000024,872.4346774000005,872.4505398000001,874.6338485000015,874.6177012000007,874.6203766000035,874.6338485000015,874.6338485000015,874.6338485000015,874.6338485000015,876.6178550000004,3,None,0.9888496000021405,0.20612160000018775,,,,,,,,,,,,,,,,,,,,,,,2020,1,2025-05-14_18h51.28.478,sm,2024.2.4,59.977748255283004,2025-05-14 18h54.15.637749 +0200,
54,0,54,,,,,,space,9.965217199998733,None,None,2,None,0.7937837000026775,0.2781228999992891,0,0,0,0,,,,,1,0,1,0,,,,,54,0,54,0,876.6348266000023,,,,,,,,,,,,,,,,,,,,,,,,,,,,,,,,,,,,,,,,,,,,,,,,,,,,,,Schnecke,2.1961,876.6183106000026,876.618768700002,876.6188483000005,876.6348266000023,878.8339619000035,878.8181752000019,878.8210101000004,878.8339619000035,878.8339619000035,878.8339619000035,878.8339619000035,880.8170635000024,2,None,0.7937837000026775,0.2781228999992891,880.833092300003,880.833092300003,880.833092300003,880.833092300003,,,,,,,,,,,,,,,,,,,2020,1,2025-05-14_18h51.28.478,sm,2024.2.4,59.977748255283004,2025-05-14 18h54.15.637749 +0200,
55,0,55,,,,,,space,9.965217199998733,None,None,3,None,0.800666099999944,0.21450589999949443,0,0,0,0,,,,,1,0,1,0,,,,,55,0,55,0,880.833092300003,,,,,,,,,,,,,,,,,,,,,,,,,,,,,,,,,,,,,,,,,,,,,,,,,,,,,,Fuß,2.3362,880.8172659000011,880.8174710000021,880.8175333000036,880.833092300003,883.1832545000034,883.1672031000016,883.169642300003,883.1832545000034,883.1832545000034,883.1832545000034,883.1832545000034,885.1669974000033,3,None,0.800666099999944,0.21450589999949443,885.1832317000008,885.1832317000008,885.1832317000008,885.1832317000008,,,,,,,,,,,,,,,,,,,2020,1,2025-05-14_18h51.28.478,sm,2024.2.4,59.977748255283004,2025-05-14 18h54.15.637749 +0200,
56,0,56,,,,,,space,9.965217199998733,None,None,3,None,0.7138483000017004,0.23935599999822443,0,0,0,0,,,,,1,0,1,0,,,,,56,0,56,0,885.1832317000008,,,,,,,,,,,,,,,,,,,,,,,,,,,,,,,,,,,,,,,,,,,,,,,,,,,,,,Salz,4.3424,885.1675098000014,885.1678711000022,885.1679638000023,885.1832317000008,889.5335128000006,889.5179134000027,889.5208210000019,889.5335128000006,889.5335128000006,889.5335128000006,889.5335128000006,891.5173637000007,3,None,0.7138483000017004,0.23935599999822443,891.5333278000035,891.5333278000035,891.5333278000035,891.5333278000035,,,,,,,,,,,,,,,,,,,2020,1,2025-05-14_18h51.28.478,sm,2024.2.4,59.977748255283004,2025-05-14 18h54.15.637749 +0200,
57,0,57,,,,,,space,9.965217199998733,None,None,3,None,1.07594749999771,0.2214687000014237,0,0,0,0,,,,,1,0,1,0,,,,,57,0,57,0,891.5333278000035,,,,,,,,,,,,,,,,,,,,,,,,,,,,,,,,,,,,,,,,,,,,,,,,,,,,,,Strand,3.1264,891.5178495,891.518185500001,891.5182806000012,891.5333278000035,894.6656447000023,894.6505325000035,894.6546080000007,894.6656447000023,894.6656447000023,894.6656447000023,894.6656447000023,896.649949300001,3,None,1.07594749999771,0.2214687000014237,896.6661722000026,896.6661722000026,896.6661722000026,896.6661722000026,,,,,,,,,,,,,,,,,,,2020,1,2025-05-14_18h51.28.478,sm,2024.2.4,59.977748255283004,2025-05-14 18h54.15.637749 +0200,
58,0,58,,,,,,space,9.965217199998733,None,None,3,None,0.6679943999988609,0.22142430000167224,0,0,0,0,,,,,1,0,1,0,,,,,58,0,58,0,896.6661722000026,,,,,,,,,,,,,,,,,,,,,,,,,,,,,,,,,,,,,,,,,,,,,,,,,,,,,,Zapfen,2.3861,896.6504420000019,896.6509233000033,896.6510474000024,896.6661722000026,899.0658464000007,899.0502710000001,899.0548699000028,899.0658464000007,899.0658464000007,899.0658464000007,899.0658464000007,901.0494188000011,3,None,0.6679943999988609,0.22142430000167224,901.0653302000028,901.0653302000028,901.0653302000028,901.0653302000028,,,,,,,,,,,,,,,,,,,2020,1,2025-05-14_18h51.28.478,sm,2024.2.4,59.977748255283004,2025-05-14 18h54.15.637749 +0200,
59,0,59,,,,,,space,9.965217199998733,None,None,3,None,0.6290173999987019,0.23340430000098422,0,0,0,0,,,,,1,0,1,0,,,,,59,0,59,0,901.0653302000028,,,,,,,,,,,,,,,,,,,,,,,,,,,,,,,,,,,,,,,,,,,,,,,,,,,,,,Kissen,2.0946,901.0496123000012,901.0497937,901.0498332000025,901.0653302000028,903.1650820000032,903.149985,903.1535853000023,903.1650820000032,903.1650820000032,903.1650820000032,903.1650820000032,905.1502133000031,3,None,0.6290173999987019,0.23340430000098422,905.1660626000012,905.1660626000012,905.1660626000012,905.1660626000012,,,,,,,,,,,,,,,,,,,2020,1,2025-05-14_18h51.28.478,sm,2024.2.4,59.977748255283004,2025-05-14 18h54.15.637749 +0200,
60,0,60,,,,,,space,9.965217199998733,None,None,3,None,0.8711558999966655,0.43085180000343826,0,0,0,0,,,,,1,0,1,0,,,,,60,0,60,0,905.1660626000012,,,,,,,,,,,,,,,,,,,,,,,,,,,,,,,,,,,,,,,,,,,,,,,,,,,,,,Gericht,3.6723,905.1506806000034,905.1511426000034,905.1512382000001,905.1660626000012,908.8488684000004,908.8330223000012,908.8367103000019,908.8488684000004,908.8488684000004,908.8488684000004,908.8488684000004,910.8326149000022,3,None,0.8711558999966655,0.43085180000343826,910.8488607000036,910.8488607000036,910.8488607000036,910.8488607000036,,,,,,,,,,,,,,,,,,,2020,1,2025-05-14_18h51.28.478,sm,2024.2.4,59.977748255283004,2025-05-14 18h54.15.637749 +0200,
61,0,61,,,,,,space,9.965217199998733,None,None,3,None,0.9251944000025105,0.2093946999993932,0,0,0,0,,,,,1,0,1,0,,,,,61,0,61,0,910.8488607000036,,,,,,,,,,,,,,,,,,,,,,,,,,,,,,,,,,,,,,,,,,,,,,,,,,,,,,Schreibtisch,4.3756,910.832980500003,910.8335092000016,910.8335875000012,910.8488607000036,915.2317389000018,915.2148568000011,915.2165264000032,915.2317389000018,915.2317389000018,915.2317389000018,915.2317389000018,917.2154830000036,3,None,0.9251944000025105,0.2093946999993932,917.2319336,917.2319336,917.2319336,917.2319336,,,,,,,,,,,,,,,,,,,2020,1,2025-05-14_18h51.28.478,sm,2024.2.4,59.977748255283004,2025-05-14 18h54.15.637749 +0200,
62,0,62,,,,,,space,9.965217199998733,None,None,2,None,0.9100423999989289,0.18652529999963008,0,0,0,0,,,,,1,0,1,0,,,,,62,0,62,0,917.2319336,,,,,,,,,,,,,,,,,,,,,,,,,,,,,,,,,,,,,,,,,,,,,,,,,,,,,,Gruppe,2.1186,917.2158224000013,917.2162134000027,917.2162904000033,917.2319336,919.3646080000035,919.3483814000028,919.350930800003,919.3646080000035,919.3646080000035,919.3646080000035,919.3646080000035,921.3479530000004,2,None,0.9100423999989289,0.18652529999963008,921.3646720000033,921.3646720000033,921.3646720000033,921.3646720000033,,,,,,,,,,,,,,,,,,,2020,1,2025-05-14_18h51.28.478,sm,2024.2.4,59.977748255283004,2025-05-14 18h54.15.637749 +0200,
63,0,63,,,,,,space,9.965217199998733,None,None,3,None,0.6892628999994486,0.18442340000183322,0,0,0,0,,,,,1,0,1,0,,,,,63,0,63,0,921.3646720000033,,,,,,,,,,,,,,,,,,,,,,,,,,,,,,,,,,,,,,,,,,,,,,,,,,,,,,Handtuch,2.83,921.3482005000005,921.348400400002,921.3484502000028,921.3646720000033,924.1982330000028,924.182564900002,924.1863727000018,924.1982330000028,924.1982330000028,924.1982330000028,924.1982330000028,926.1978352000006,3,None,0.6892628999994486,0.18442340000183322,,,,,,,,,,,,,,,,,,,,,,,2020,1,2025-05-14_18h51.28.478,sm,2024.2.4,59.977748255283004,2025-05-14 18h54.15.637749 +0200,
64,0,64,,,,,,space,9.965217199998733,None,None,3,None,0.6492422000010265,0.19147489999886602,0,0,0,0,,,,,1,0,1,0,,,,,64,0,64,0,926.2139469000031,,,,,,,,,,,,,,,,,,,,,,,,,,,,,,,,,,,,,,,,,,,,,,,,,,,,,,Handy,2.1697,926.1980465000015,926.198363200001,926.1984054000022,926.2139469000031,928.3981327000001,928.3821882000011,928.3869560000021,928.3981327000001,928.3981327000001,928.3981327000001,928.3981327000001,930.3809374000011,3,None,0.6492422000010265,0.19147489999886602,930.3976326000011,930.3976326000011,930.3976326000011,930.3976326000011,,,,,,,,,,,,,,,,,,,2020,1,2025-05-14_18h51.28.478,sm,2024.2.4,59.977748255283004,2025-05-14 18h54.15.637749 +0200,
65,0,65,,,,,,space,9.965217199998733,None,None,2,None,1.5768124999995052,0.20157300000209943,0,0,0,0,,,,,1,0,1,0,,,,,65,0,65,0,930.3976326000011,,,,,,,,,,,,,,,,,,,,,,,,,,,,,,,,,,,,,,,,,,,,,,,,,,,,,,Fledermaus,2.8863,930.3812911000023,930.3815578000031,930.3816320000005,930.3976326000011,933.2970964000015,933.2815699000021,933.2847594000013,933.2970964000015,933.2970964000015,933.2970964000015,933.2970964000015,935.2802521000012,2,None,1.5768124999995052,0.20157300000209943,935.2965218000027,935.2965218000027,935.2965218000027,935.2965218000027,,,,,,,,,,,,,,,,,,,2020,1,2025-05-14_18h51.28.478,sm,2024.2.4,59.977748255283004,2025-05-14 18h54.15.637749 +0200,
66,0,66,,,,,,space,9.965217199998733,None,None,3,None,0.7128841999983706,0.15457870000318508,0,0,0,0,,,,,1,0,1,0,,,,,66,0,66,0,935.2965218000027,,,,,,,,,,,,,,,,,,,,,,,,,,,,,,,,,,,,,,,,,,,,,,,,,,,,,,Schwarz,3.9589,935.2804475000012,935.2808699000016,935.2809159000026,935.2965218000027,939.2641879000003,939.2482726000017,939.2528789000025,939.2641879000003,939.2641879000003,939.2641879000003,939.2641879000003,941.2471401000003,3,None,0.7128841999983706,0.15457870000318508,941.2631346000016,941.2631346000016,941.2631346000016,941.2631346000016,,,,,,,,,,,,,,,,,,,2020,1,2025-05-14_18h51.28.478,sm,2024.2.4,59.977748255283004,2025-05-14 18h54.15.637749 +0200,
