thisN,thisTrialN,thisRepN,Cue,Target,Mediator1,Mediator2,iti,scanner_ready_press.keys,scanner_ready_press.rt,scanner_ready_press.duration,skip_trigger.keys,living_nonliving.keys,living_nonliving.rt,living_nonliving.duration,end_mapping.keys,blocks.thisRepN,blocks.thisTrialN,blocks.thisN,blocks.thisIndex,load_and_shuffle.thisRepN,load_and_shuffle.thisTrialN,load_and_shuffle.thisN,load_and_shuffle.thisIndex,runs.thisRepN,runs.thisTrialN,runs.thisN,runs.thisIndex,iti_loading_loop.thisRepN,iti_loading_loop.thisTrialN,iti_loading_loop.thisN,iti_loading_loop.thisIndex,semantic_mapping_run.thisRepN,semantic_mapping_run.thisTrialN,semantic_mapping_run.thisN,semantic_mapping_run.thisIndex,thisRow.t,notes,welcome.started,welcome_text.started,welcome_text.stopped,welcome.stopped,scout.started,scout_text.started,key_resp.started,scout.stopped,key_resp.keys,key_resp.rt,key_resp.duration,instructions_semantic_mapping1.started,sm_instructions1_text.started,sm_instructions1_key.started,instructions_semantic_mapping1.stopped,sm_instructions1_key.keys,sm_instructions1_key.rt,sm_instructions1_key.duration,instructions_semantic_mapping2.started,sm_instructions2_text.started,sm_instructions2_key.started,instructions_semantic_mapping2.stopped,sm_instructions2_key.keys,sm_instructions2_key.rt,sm_instructions2_key.duration,reset_run.started,reset_run.stopped,shuffle_items.started,shuffle_items.stopped,set_up_runs.started,set_up_runs.stopped,load_iti.started,load_iti.stopped,prep_scanner.started,scanner_ready_press.started,ready_set_text.started,prep_scanner.stopped,runs.scanner_ready_press.keys,runs.scanner_ready_press.rt,runs.scanner_ready_press.duration,wait_for_trigger.started,starting_soon.started,skip_trigger.started,wait_for_trigger.stopped,runs.skip_trigger.keys,blank.started,begin_end_run_cross.started,sound_1.started,sound_1.stopped,sound_2.started,sound_2.stopped,begin_end_run_cross.stopped,blank.stopped,CurrentItem,CurrentITI,set_up_trial.started,set_up_trial.stopped,sm_iti.started,iti_cross.started,iti_cross.stopped,sm_iti.stopped,item.started,living_nonliving.started,end_mapping.started,living_nonliving_text.started,semantic_map_item.started,item.stopped,semantic_mapping_run.living_nonliving.keys,semantic_mapping_run.living_nonliving.rt,semantic_mapping_run.living_nonliving.duration,semantic_mapping_run.end_mapping.keys,living_nonliving.stopped,end_mapping.stopped,living_nonliving_text.stopped,semantic_map_item.stopped,fieldmap.started,fieldmap.stopped,runs.fm_key.keys,task_break.started,task_break_text.started,task_break_resp.started,task_break.stopped,runs.task_break_resp.keys,runs.task_break_resp.rt,runs.task_break_resp.duration,fm_text.started,fm_key.started,runs.fm_key.rt,runs.fm_key.duration,thanks.started,thanks_text.started,thanks_text.stopped,thanks.stopped,PID,MRI,date,expName,psychopyVersion,frameRate,expStart,
,,,,,,,,,,,,,,,,,,,,,,,,,,,,,,,,,,,,,,0.0026767999997900915,0.016630199999781325,3.0176424000001134,3.000816499999928,,,,,,,,,,,,,,,,,,,,,,,,,,,,,,,,,,,,,,,,,,,,,,,,,,,,,,,,,,,,,,,,,,,,,,,,,,,,,,,,,,,,,,,,,,2345,1,2025-05-12_13h58.25.708,sm,2024.2.4,59.98616718970231,2025-05-12 13h58.36.899473 +0200,
,,,,,,,,,,,,,,,,,,,,,,,,,,,,,,,,,,,,,,,,,,3.000907100000404,3.0176424000001134,3.0176424000001134,96.18016700000044,space,93.15012120000029,None,,,,,,,,,,,,,,,,,,,,,,,,,,,,,,,,,,,,,,,,,,,,,,,,,,,,,,,,,,,,,,,,,,,,,,,,,,,,,,,,,,,2345,1,2025-05-12_13h58.25.708,sm,2024.2.4,59.98616718970231,2025-05-12 13h58.36.899473 +0200,
,,,,,,,,,,,,,,,,,,,,,,,,,,,,,,,,,,,,,,,,,,,,,,,,,96.18022110000038,96.1935282000004,96.1935282000004,105.39435030000004,3,9.190362999999707,None,,,,,,,,,,,,,,,,,,,,,,,,,,,,,,,,,,,,,,,,,,,,,,,,,,,,,,,,,,,,,,,,,,,,,,,,,,,,2345,1,2025-05-12_13h58.25.708,sm,2024.2.4,59.98616718970231,2025-05-12 13h58.36.899473 +0200,
,,,,,,,,,,,,,,,,,,,,,,,,,,,,,,,,,,,,,,,,,,,,,,,,,,,,,,,,105.3944535999999,105.40977600000042,105.40977600000042,115.44353420000061,3,10.01724809999996,None,,,,,,,,,,,,,,,,,,,,,,,,,,,,,,,,,,,,,,,,,,,,,,,,,,,,,,,,,,,,,,,,,,,,,2345,1,2025-05-12_13h58.25.708,sm,2024.2.4,59.98616718970231,2025-05-12 13h58.36.899473 +0200,
0,0,0,Rose,Geruch,Dorn,Rot,2.1961,space,4.308449899999687,None,None,3,1.66931250000016,None,None,0,0,0,0,0,79,79,79,0,0,0,0,0,79,79,75,0,0,0,0,178.04071440000007,,,,,,,,,,,,,,,,,,,,,,,,,,,115.4439538000006,115.44433200000003,115.52043080000021,115.52067249999982,115.52520910000021,115.52556749999985,115.55955410000024,115.5599071000006,115.56689319999987,115.5707497000003,115.5707497000003,119.89339110000037,space,4.308449899999687,None,119.89347960000032,119.9099857000001,119.9099857000001,166.02550390000033,None,166.03374560000066,166.0405608000001,166.04110546666678,167.24828770000022,176.0407647666673,177.04742859999988,178.04071440000007,178.02465279999979,Schreibtisch,2.1961,178.0260570999999,178.02655030000005,178.02983380000023,178.04071440000007,180.23978119999992,180.22383679999984,180.22888580000017,180.23978119999992,180.23978119999992,180.23978119999992,180.23978119999992,182.22422900000038,3,1.66931250000016,None,None,,,,,,,,,,,,,,,,,,,,,,,2345,1,2025-05-12_13h58.25.708,sm,2024.2.4,59.98616718970231,2025-05-12 13h58.36.899473 +0200,
1,0,1,,,,,,space,4.308449899999687,None,None,3,1.4894242999998824,0.30109859999993205,None,0,0,0,0,,,,,0,0,0,0,,,,,1,0,1,0,182.24016260000008,,,,,,,,,,,,,,,,,,,,,,,,,,,,,,,,,,,,,,,,,,,,,,,,,,,,,,,Zimt,2.5519,182.2247041999999,182.22564330000023,182.22574540000005,182.24016260000008,184.80678799999987,184.79098440000053,184.79706330000045,184.80678799999987,184.80678799999987,184.80678799999987,184.80678799999987,186.79083080000055,3,1.4894242999998824,0.30109859999993205,None,186.8067748000003,186.8067748000003,186.8067748000003,186.8067748000003,,,,,,,,,,,,,,,,,,,2345,1,2025-05-12_13h58.25.708,sm,2024.2.4,59.98616718970231,2025-05-12 13h58.36.899473 +0200,
2,0,2,,,,,,space,4.308449899999687,None,None,2,1.3194564999994327,0.35401460000048246,None,0,0,0,0,,,,,0,0,0,0,,,,,2,0,2,0,186.8067748000003,,,,,,,,,,,,,,,,,,,,,,,,,,,,,,,,,,,,,,,,,,,,,,,,,,,,,,,Spion,3.8592,186.79124740000043,186.7917438000004,186.7918335000004,186.8067748000003,190.6733516000004,190.6572084999998,190.6614399,190.6733516000004,190.6733516000004,190.6733516000004,190.6733516000004,192.65712859999985,2,1.3194564999994327,0.35401460000048246,None,192.67290110000067,192.67290110000067,192.67290110000067,192.67290110000067,,,,,,,,,,,,,,,,,,,2345,1,2025-05-12_13h58.25.708,sm,2024.2.4,59.98616718970231,2025-05-12 13h58.36.899473 +0200,
3,0,3,,,,,,space,4.308449899999687,None,None,2,1.3055607000005693,0.3247230999995736,None,0,0,0,0,,,,,0,0,0,0,,,,,3,0,3,0,192.67290110000067,,,,,,,,,,,,,,,,,,,,,,,,,,,,,,,,,,,,,,,,,,,,,,,,,,,,,,,Afrika,3.9589,192.65759400000024,192.6581053,192.65819890000057,192.67290110000067,196.63979960000052,196.6232933000001,196.62692010000046,196.63979960000052,196.63979960000052,196.63979960000052,196.63979960000052,198.62316220000048,2,1.3055607000005693,0.3247230999995736,None,198.6387792000005,198.6387792000005,198.6387792000005,198.6387792000005,,,,,,,,,,,,,,,,,,,2345,1,2025-05-12_13h58.25.708,sm,2024.2.4,59.98616718970231,2025-05-12 13h58.36.899473 +0200,
4,0,4,,,,,,space,4.308449899999687,None,None,None,,,None,0,0,0,0,,,,,0,0,0,0,,,,,4,0,4,0,198.6387792000005,,,,,,,,,,,,,,,,,,,,,,,,,,,,,,,,,,,,,,,,,,,,,,,,,,,,,,,Tablett,2.0031,198.62351279999984,198.62398050000047,198.62405180000042,198.6387792000005,200.6559874000004,200.63903530000061,200.64115860000038,200.6559874000004,200.6559874000004,200.6559874000004,200.6559874000004,202.63921970000047,None,,,None,,,,,,,,,,,,,,,,,,,,,,,2345,1,2025-05-12_13h58.25.708,sm,2024.2.4,59.98616718970231,2025-05-12 13h58.36.899473 +0200,
5,0,5,,,,,,space,4.308449899999687,None,None,2,0.9871566000001621,0.2444273000000976,None,0,0,0,0,,,,,0,0,0,0,,,,,5,0,5,0,202.65684610000062,,,,,,,,,,,,,,,,,,,,,,,,,,,,,,,,,,,,,,,,,,,,,,,,,,,,,,,Spinne,2.4916,202.63964680000026,202.64047540000047,202.64058320000004,202.65684610000062,205.1559459,205.13978120000047,205.14364340000066,205.1559459,205.1559459,205.1559459,205.1559459,207.13922319999983,2,0.9871566000001621,0.2444273000000976,None,207.15549610000016,207.15549610000016,207.15549610000016,207.15549610000016,,,,,,,,,,,,,,,,,,,2345,1,2025-05-12_13h58.25.708,sm,2024.2.4,59.98616718970231,2025-05-12 13h58.36.899473 +0200,
6,0,6,,,,,,space,4.308449899999687,None,None,2,0.9126322000001892,0.2762407999998686,None,0,0,0,0,,,,,0,0,0,0,,,,,6,0,6,0,207.15549610000016,,,,,,,,,,,,,,,,,,,,,,,,,,,,,,,,,,,,,,,,,,,,,,,,,,,,,,,Nase,3.039,207.13961389999986,207.13993560000017,207.1400179000002,207.15549610000016,210.20523219999995,210.19022920000043,210.19344580000052,210.20523219999995,210.20523219999995,210.20523219999995,210.20523219999995,212.18920290000005,2,0.9126322000001892,0.2762407999998686,None,212.2048990000003,212.2048990000003,212.2048990000003,212.2048990000003,,,,,,,,,,,,,,,,,,,2345,1,2025-05-12_13h58.25.708,sm,2024.2.4,59.98616718970231,2025-05-12 13h58.36.899473 +0200,
7,0,7,,,,,,space,4.308449899999687,None,None,2,1.356698000000506,0.24026629999934812,None,0,0,0,0,,,,,0,0,0,0,,,,,7,0,7,0,212.2048990000003,,,,,,,,,,,,,,,,,,,,,,,,,,,,,,,,,,,,,,,,,,,,,,,,,,,,,,,Lernen,2.8863,212.18971909999982,212.19004250000035,212.19013650000034,212.2048990000003,215.10503250000056,215.0890116999999,215.09289220000028,215.10503250000056,215.10503250000056,215.10503250000056,215.10503250000056,217.08967550000034,2,1.356698000000506,0.24026629999934812,None,217.10534740000003,217.10534740000003,217.10534740000003,217.10534740000003,,,,,,,,,,,,,,,,,,,2345,1,2025-05-12_13h58.25.708,sm,2024.2.4,59.98616718970231,2025-05-12 13h58.36.899473 +0200,
8,0,8,,,,,,space,4.308449899999687,None,None,3,1.0207726000007824,0.2323605999999927,None,0,0,0,0,,,,,0,0,0,0,,,,,8,0,8,0,217.10534740000003,,,,,,,,,,,,,,,,,,,,,,,,,,,,,,,,,,,,,,,,,,,,,,,,,,,,,,,Kuchen ,4.7208,217.09013649999997,217.0907511000005,217.09084359999997,217.10534740000003,221.8376816,221.82149740000023,221.82404790000055,221.8376816,221.8376816,221.8376816,221.8376816,223.82146890000058,3,1.0207726000007824,0.2323605999999927,None,223.83743690000028,223.83743690000028,223.83743690000028,223.83743690000028,,,,,,,,,,,,,,,,,,,2345,1,2025-05-12_13h58.25.708,sm,2024.2.4,59.98616718970231,2025-05-12 13h58.36.899473 +0200,
9,0,9,,,,,,space,4.308449899999687,None,None,2,0.9505041000002166,0.23735200000010082,None,0,0,0,0,,,,,0,0,0,0,,,,,9,0,9,0,223.83743690000028,,,,,,,,,,,,,,,,,,,,,,,,,,,,,,,,,,,,,,,,,,,,,,,,,,,,,,,Liebe,2.7378,223.82178980000026,223.82223520000025,223.82236569999986,223.83743690000028,226.58751269999993,226.57181840000067,226.57495019999988,226.58751269999993,226.58751269999993,226.58751269999993,226.58751269999993,228.57094340000003,2,0.9505041000002166,0.23735200000010082,None,228.5873504000001,228.5873504000001,228.5873504000001,228.5873504000001,,,,,,,,,,,,,,,,,,,2345,1,2025-05-12_13h58.25.708,sm,2024.2.4,59.98616718970231,2025-05-12 13h58.36.899473 +0200,
10,0,10,,,,,,space,4.308449899999687,None,None,3,0.9028649000001678,0.2383417000000918,None,0,0,0,0,,,,,0,0,0,0,,,,,10,0,10,0,228.5873504000001,,,,,,,,,,,,,,,,,,,,,,,,,,,,,,,,,,,,,,,,,,,,,,,,,,,,,,,Stein,2.0589,228.5711239000002,228.57138320000013,228.5714254000004,228.5873504000001,230.6543198999998,230.63880120000067,230.6428818000004,230.6543198999998,230.6543198999998,230.6543198999998,230.6543198999998,232.63783020000028,3,0.9028649000001678,0.2383417000000918,None,232.65387270000065,232.65387270000065,232.65387270000065,232.65387270000065,,,,,,,,,,,,,,,,,,,2345,1,2025-05-12_13h58.25.708,sm,2024.2.4,59.98616718970231,2025-05-12 13h58.36.899473 +0200,
11,0,11,,,,,,space,4.308449899999687,None,None,3,1.9353293999993184,None,None,0,0,0,0,,,,,0,0,0,0,,,,,11,0,11,0,232.65387270000065,,,,,,,,,,,,,,,,,,,,,,,,,,,,,,,,,,,,,,,,,,,,,,,,,,,,,,,Schleim,4.3942,232.6382854000003,232.63877390000016,232.63886860000002,232.65387270000065,237.05407190000005,237.0382655000003,237.04217590000007,237.05407190000005,237.05407190000005,237.05407190000005,237.05407190000005,239.03733939999984,3,1.9353293999993184,None,None,239.05350290000024,239.05350290000024,239.05350290000024,239.05350290000024,,,,,,,,,,,,,,,,,,,2345,1,2025-05-12_13h58.25.708,sm,2024.2.4,59.98616718970231,2025-05-12 13h58.36.899473 +0200,
12,0,12,,,,,,space,4.308449899999687,None,None,2,1.1064381000005596,0.2642270999995162,None,0,0,0,0,,,,,0,0,0,0,,,,,12,0,12,0,239.05350290000024,,,,,,,,,,,,,,,,,,,,,,,,,,,,,,,,,,,,,,,,,,,,,,,,,,,,,,,Schmecken,2.0842,239.03773050000018,239.03806010000062,239.03814800000055,239.05350290000024,241.13723879999998,241.12084310000046,241.12538200000017,241.13723879999998,241.13723879999998,241.13723879999998,241.13723879999998,243.12035910000031,2,1.1064381000005596,0.2642270999995162,None,243.13677650000045,243.13677650000045,243.13677650000045,243.13677650000045,,,,,,,,,,,,,,,,,,,2345,1,2025-05-12_13h58.25.708,sm,2024.2.4,59.98616718970231,2025-05-12 13h58.36.899473 +0200,
13,0,13,,,,,,space,4.308449899999687,None,None,3,1.0173046999998405,0.23828180000055,None,0,0,0,0,,,,,0,0,0,0,,,,,13,0,13,0,243.13677650000045,,,,,,,,,,,,,,,,,,,,,,,,,,,,,,,,,,,,,,,,,,,,,,,,,,,,,,,Wohnung,2.1831,243.12056590000066,243.12079619999986,243.1208376000004,243.13677650000045,245.32040250000045,245.3046377999999,245.3083200000001,245.32040250000045,245.32040250000045,245.32040250000045,245.32040250000045,247.30441690000043,3,1.0173046999998405,0.23828180000055,None,247.32033769999998,247.32033769999998,247.32033769999998,247.32033769999998,,,,,,,,,,,,,,,,,,,2345,1,2025-05-12_13h58.25.708,sm,2024.2.4,59.98616718970231,2025-05-12 13h58.36.899473 +0200,
14,0,14,,,,,,space,4.308449899999687,None,None,3,0.9864293999999063,0.3060887999999977,None,0,0,0,0,,,,,0,0,0,0,,,,,14,0,14,0,247.32033769999998,,,,,,,,,,,,,,,,,,,,,,,,,,,,,,,,,,,,,,,,,,,,,,,,,,,,,,,Benzin,4.3756,247.30487600000015,247.30521790000057,247.3053101000005,247.32033769999998,251.7032409000003,251.68755560000045,251.69099280000046,251.7032409000003,251.7032409000003,251.7032409000003,251.7032409000003,253.68745200000012,3,0.9864293999999063,0.3060887999999977,None,253.70333840000058,253.70333840000058,253.70333840000058,253.70333840000058,,,,,,,,,,,,,,,,,,,2345,1,2025-05-12_13h58.25.708,sm,2024.2.4,59.98616718970231,2025-05-12 13h58.36.899473 +0200,
15,0,15,,,,,,space,4.308449899999687,None,None,3,1.0489325999997163,0.2634036000008564,None,0,0,0,0,,,,,0,0,0,0,,,,,15,0,15,0,253.70333840000058,,,,,,,,,,,,,,,,,,,,,,,,,,,,,,,,,,,,,,,,,,,,,,,,,,,,,,,Bürste,4.3424,253.6878840999998,253.68834770000012,253.68843890000062,253.70333840000058,258.05163280000033,258.0370928000002,258.04067250000026,258.05163280000033,258.05163280000033,258.05163280000033,258.05163280000033,260.03620649999993,3,1.0489325999997163,0.2634036000008564,None,260.0522344000001,260.0522344000001,260.0522344000001,260.0522344000001,,,,,,,,,,,,,,,,,,,2345,1,2025-05-12_13h58.25.708,sm,2024.2.4,59.98616718970231,2025-05-12 13h58.36.899473 +0200,
16,0,16,,,,,,space,4.308449899999687,None,None,3,1.2439246999992974,0.2672566999999617,None,0,0,0,0,,,,,0,0,0,0,,,,,16,0,16,0,260.0522344000001,,,,,,,,,,,,,,,,,,,,,,,,,,,,,,,,,,,,,,,,,,,,,,,,,,,,,,,Tee,2.9109,260.03664370000024,260.0369593000005,260.0370468000001,260.0522344000001,262.96887140000035,262.95316100000036,262.9566261,262.96887140000035,262.96887140000035,262.96887140000035,262.96887140000035,264.9533809000004,3,1.2439246999992974,0.2672566999999617,None,264.9692728,264.9692728,264.9692728,264.9692728,,,,,,,,,,,,,,,,,,,2345,1,2025-05-12_13h58.25.708,sm,2024.2.4,59.98616718970231,2025-05-12 13h58.36.899473 +0200,
17,0,17,,,,,,space,4.308449899999687,None,None,2,1.0343947000001208,0.331493199999386,None,0,0,0,0,,,,,0,0,0,0,,,,,17,0,17,0,264.9692728,,,,,,,,,,,,,,,,,,,,,,,,,,,,,,,,,,,,,,,,,,,,,,,,,,,,,,,Komödie,2.9443,264.95378119999987,264.95421910000005,264.9543014000001,264.9692728,267.91867619999994,267.90312260000064,267.9065694000001,267.91867619999994,267.91867619999994,267.91867619999994,267.91867619999994,269.90312300000005,2,1.0343947000001208,0.331493199999386,None,269.9190690000005,269.9190690000005,269.9190690000005,269.9190690000005,,,,,,,,,,,,,,,,,,,2345,1,2025-05-12_13h58.25.708,sm,2024.2.4,59.98616718970231,2025-05-12 13h58.36.899473 +0200,
18,0,18,,,,,,space,4.308449899999687,None,None,2,1.0214915999995355,0.24542070000006788,None,0,0,0,0,,,,,0,0,0,0,,,,,18,0,18,0,269.9190690000005,,,,,,,,,,,,,,,,,,,,,,,,,,,,,,,,,,,,,,,,,,,,,,,,,,,,,,,Blut,3.4445,269.9035924,269.9040832999999,269.9041791999998,269.9190690000005,273.3681641000003,273.3523801000001,273.3556435999999,273.3681641000003,273.3681641000003,273.3681641000003,273.3681641000003,275.35314220000055,2,1.0214915999995355,0.24542070000006788,None,275.36874220000027,275.36874220000027,275.36874220000027,275.36874220000027,,,,,,,,,,,,,,,,,,,2345,1,2025-05-12_13h58.25.708,sm,2024.2.4,59.98616718970231,2025-05-12 13h58.36.899473 +0200,
19,0,19,,,,,,space,4.308449899999687,None,None,2,1.38054319999992,0.2463863000002675,None,0,0,0,0,,,,,0,0,0,0,,,,,19,0,19,0,275.36874220000027,,,,,,,,,,,,,,,,,,,,,,,,,,,,,,,,,,,,,,,,,,,,,,,,,,,,,,,Ausbruch,2.2074,275.35363850000067,275.3541122000006,275.3542072,275.36874220000027,277.5848095000001,277.56913500000064,277.5729046000006,277.5848095000001,277.5848095000001,277.5848095000001,277.5848095000001,279.56864440000027,2,1.38054319999992,0.2463863000002675,None,279.5850852000003,279.5850852000003,279.5850852000003,279.5850852000003,,,,,,,,,,,,,,,,,,,2345,1,2025-05-12_13h58.25.708,sm,2024.2.4,59.98616718970231,2025-05-12 13h58.36.899473 +0200,
20,0,20,,,,,,space,4.308449899999687,None,None,3,1.6578392000001259,None,None,0,0,0,0,,,,,0,0,0,0,,,,,20,0,20,0,279.5850852000003,,,,,,,,,,,,,,,,,,,,,,,,,,,,,,,,,,,,,,,,,,,,,,,,,,,,,,,Sterne,2.5169,279.56904850000046,279.56953780000003,279.56962120000026,279.5850852000003,282.11860810000053,282.1020113000004,282.10555340000064,282.11860810000053,282.11860810000053,282.11860810000053,282.11860810000053,284.10197490000064,3,1.6578392000001259,None,None,284.1179766000005,284.1179766000005,284.1179766000005,284.1179766000005,,,,,,,,,,,,,,,,,,,2345,1,2025-05-12_13h58.25.708,sm,2024.2.4,59.98616718970231,2025-05-12 13h58.36.899473 +0200,
21,0,21,,,,,,space,4.308449899999687,None,None,3,1.5962175999993633,0.24334799999996903,None,0,0,0,0,,,,,0,0,0,0,,,,,21,0,21,0,284.1179766000005,,,,,,,,,,,,,,,,,,,,,,,,,,,,,,,,,,,,,,,,,,,,,,,,,,,,,,,Fiktion,2.5377,284.10243640000044,284.1028108999999,284.1029053000002,284.1179766000005,286.6674311000006,286.65106509999987,286.65356599999996,286.6674311000006,286.6674311000006,286.6674311000006,286.6674311000006,288.6514513000002,3,1.5962175999993633,0.24334799999996903,None,288.66808780000065,288.66808780000065,288.66808780000065,288.66808780000065,,,,,,,,,,,,,,,,,,,2345,1,2025-05-12_13h58.25.708,sm,2024.2.4,59.98616718970231,2025-05-12 13h58.36.899473 +0200,
22,0,22,,,,,,space,4.308449899999687,None,None,None,,,None,0,0,0,0,,,,,0,0,0,0,,,,,22,0,22,0,288.66808780000065,,,,,,,,,,,,,,,,,,,,,,,,,,,,,,,,,,,,,,,,,,,,,,,,,,,,,,,Erbe,2.3229,288.65190359999997,288.6522810000006,288.6523780000007,288.66808780000065,291.0003201999998,290.98553979999997,290.98859770000035,291.0003201999998,291.0003201999998,291.0003201999998,291.0003201999998,292.9845462000003,None,,,None,293.0003813000003,293.0003813000003,293.0003813000003,293.0003813000003,,,,,,,,,,,,,,,,,,,2345,1,2025-05-12_13h58.25.708,sm,2024.2.4,59.98616718970231,2025-05-12 13h58.36.899473 +0200,
23,0,23,,,,,,space,4.308449899999687,None,None,2,0.9553314999993745,0.24741240000003017,None,0,0,0,0,,,,,0,0,0,0,,,,,23,0,23,0,293.0003813000003,,,,,,,,,,,,,,,,,,,,,,,,,,,,,,,,,,,,,,,,,,,,,,,,,,,,,,,Theater,2.0934,292.98497620000035,292.9853801999998,292.9854817000005,293.0003813000003,295.1003099999998,295.0834749000005,295.08502190000036,295.1003099999998,295.1003099999998,295.1003099999998,295.1003099999998,297.0844715000003,2,0.9553314999993745,0.24741240000003017,None,,,,,,,,,,,,,,,,,,,,,,,2345,1,2025-05-12_13h58.25.708,sm,2024.2.4,59.98616718970231,2025-05-12 13h58.36.899473 +0200,
24,0,24,,,,,,space,4.308449899999687,None,None,3,0.8367228000006435,0.21840879999945173,None,0,0,0,0,,,,,0,0,0,0,,,,,24,0,24,0,297.10074299999997,,,,,,,,,,,,,,,,,,,,,,,,,,,,,,,,,,,,,,,,,,,,,,,,,,,,,,,Mappe,3.189,297.08492300000034,297.08552770000006,297.0856273999998,297.10074299999997,300.3004111,300.28354750000017,300.2852106,300.3004111,300.3004111,300.3004111,300.3004111,302.28394430000026,3,0.8367228000006435,0.21840879999945173,None,,,,,,,,,,,,,,,,,,,,,,,2345,1,2025-05-12_13h58.25.708,sm,2024.2.4,59.98616718970231,2025-05-12 13h58.36.899473 +0200,
25,0,25,,,,,,space,4.308449899999687,None,None,2,1.1092632999998386,0.2134237000000212,None,0,0,0,0,,,,,0,0,0,0,,,,,25,0,25,0,302.3005776,,,,,,,,,,,,,,,,,,,,,,,,,,,,,,,,,,,,,,,,,,,,,,,,,,,,,,,Lehrer,2.6446,302.2843720999999,302.2849694000006,302.2850638,302.3005776,304.9497872000002,304.9337314000004,304.93628850000005,304.9497872000002,304.9497872000002,304.9497872000002,304.9497872000002,306.93417110000064,2,1.1092632999998386,0.2134237000000212,None,306.9499648000001,306.9499648000001,306.9499648000001,306.9499648000001,,,,,,,,,,,,,,,,,,,2345,1,2025-05-12_13h58.25.708,sm,2024.2.4,59.98616718970231,2025-05-12 13h58.36.899473 +0200,
26,0,26,,,,,,space,4.308449899999687,None,None,3,1.02167560000089,0.25934419999975944,None,0,0,0,0,,,,,0,0,0,0,,,,,26,0,26,0,306.9499648000001,,,,,,,,,,,,,,,,,,,,,,,,,,,,,,,,,,,,,,,,,,,,,,,,,,,,,,,Puppe,4.0852,306.9346832000001,306.9351359000002,306.9352262000002,306.9499648000001,311.05012140000053,311.0343023000005,311.03841640000064,311.05012140000053,311.05012140000053,311.05012140000053,311.05012140000053,313.04929040000025,3,1.02167560000089,0.25934419999975944,None,,,,,,,,,,,,,,,,,,,,,,,2345,1,2025-05-12_13h58.25.708,sm,2024.2.4,59.98616718970231,2025-05-12 13h58.36.899473 +0200,
27,0,27,,,,,,space,4.308449899999687,None,None,3,0.9569132999995418,0.288174500000423,None,0,0,0,0,,,,,0,0,0,0,,,,,27,0,27,0,313.06588310000006,,,,,,,,,,,,,,,,,,,,,,,,,,,,,,,,,,,,,,,,,,,,,,,,,,,,,,,Kamera,2.8516,313.0494786999998,313.0498508999999,313.0498983000007,313.06588310000006,315.9331243000006,315.9173875000006,315.9212371000003,315.9331243000006,315.9331243000006,315.9331243000006,315.9331243000006,317.9172649000002,3,0.9569132999995418,0.288174500000423,None,317.93306440000015,317.93306440000015,317.93306440000015,317.93306440000015,,,,,,,,,,,,,,,,,,,2345,1,2025-05-12_13h58.25.708,sm,2024.2.4,59.98616718970231,2025-05-12 13h58.36.899473 +0200,
28,0,28,,,,,,space,4.308449899999687,None,None,2,1.0709810000007565,0.25034989999949175,None,0,0,0,0,,,,,0,0,0,0,,,,,28,0,28,0,317.93306440000015,,,,,,,,,,,,,,,,,,,,,,,,,,,,,,,,,,,,,,,,,,,,,,,,,,,,,,,Konzert,3.0547,317.91772579999997,317.918189,317.9182829000001,317.93306440000015,320.99929320000047,320.98371120000047,320.9876447000006,320.99929320000047,320.99929320000047,320.99929320000047,320.99929320000047,322.98255430000063,2,1.0709810000007565,0.25034989999949175,None,322.9987535,322.9987535,322.9987535,322.9987535,,,,,,,,,,,,,,,,,,,2345,1,2025-05-12_13h58.25.708,sm,2024.2.4,59.98616718970231,2025-05-12 13h58.36.899473 +0200,
29,0,29,,,,,,space,4.308449899999687,None,None,2,0.7974166000003606,0.3301177999992433,None,0,0,0,0,,,,,0,0,0,0,,,,,29,0,29,0,322.9987535,,,,,,,,,,,,,,,,,,,,,,,,,,,,,,,,,,,,,,,,,,,,,,,,,,,,,,,Party,2.7992,322.9829135,322.9832032000004,322.98328050000055,322.9987535,325.7985273000004,325.7829952000002,325.7894004,325.7985273000004,325.7985273000004,325.7985273000004,325.7985273000004,327.7833860999999,2,0.7974166000003606,0.3301177999992433,None,327.79933119999987,327.79933119999987,327.79933119999987,327.79933119999987,,,,,,,,,,,,,,,,,,,2345,1,2025-05-12_13h58.25.708,sm,2024.2.4,59.98616718970231,2025-05-12 13h58.36.899473 +0200,
30,0,30,,,,,,space,4.308449899999687,None,None,3,0.8925951000001078,0.22646719999920606,None,0,0,0,0,,,,,0,0,0,0,,,,,30,0,30,0,327.79933119999987,,,,,,,,,,,,,,,,,,,,,,,,,,,,,,,,,,,,,,,,,,,,,,,,,,,,,,,Sauber,2.4521,327.7838038,327.78430780000053,327.7843982000004,327.79933119999987,330.2652265000006,330.24965320000047,330.2530708000004,330.2652265000006,330.2652265000006,330.2652265000006,330.2652265000006,332.24929169999996,3,0.8925951000001078,0.22646719999920606,None,332.26542430000063,332.26542430000063,332.26542430000063,332.26542430000063,,,,,,,,,,,,,,,,,,,2345,1,2025-05-12_13h58.25.708,sm,2024.2.4,59.98616718970231,2025-05-12 13h58.36.899473 +0200,
31,0,31,,,,,,space,4.308449899999687,None,None,3,0.85732199999984,0.3380993999999191,None,0,0,0,0,,,,,0,0,0,0,,,,,31,0,31,0,332.26542430000063,,,,,,,,,,,,,,,,,,,,,,,,,,,,,,,,,,,,,,,,,,,,,,,,,,,,,,,Pizza,4.4429,332.2497671000001,332.25015470000017,332.2502484000006,332.26542430000063,336.71452970000064,336.6988209000001,336.7008129000005,336.71452970000064,336.71452970000064,336.71452970000064,336.71452970000064,338.69949989999986,3,0.85732199999984,0.3380993999999191,None,338.7145827000004,338.7145827000004,338.7145827000004,338.7145827000004,,,,,,,,,,,,,,,,,,,2345,1,2025-05-12_13h58.25.708,sm,2024.2.4,59.98616718970231,2025-05-12 13h58.36.899473 +0200,
32,0,32,,,,,,space,4.308449899999687,None,None,2,0.9045026999992842,0.32111860000077286,None,0,0,0,0,,,,,0,0,0,0,,,,,32,0,32,0,338.7145827000004,,,,,,,,,,,,,,,,,,,,,,,,,,,,,,,,,,,,,,,,,,,,,,,,,,,,,,,Eule,3.1264,338.69976790000055,338.7001297000006,338.7001865000002,338.7145827000004,341.8475201000001,341.83134510000036,341.8327140000001,341.8475201000001,341.8475201000001,341.8475201000001,341.8475201000001,343.83175370000026,2,0.9045026999992842,0.32111860000077286,None,,,,,,,,,,,,,,,,,,,,,,,2345,1,2025-05-12_13h58.25.708,sm,2024.2.4,59.98616718970231,2025-05-12 13h58.36.899473 +0200,
33,0,33,,,,,,space,4.308449899999687,None,None,3,0.8703756000004432,0.3191655999999057,None,0,0,0,0,,,,,0,0,0,0,,,,,33,0,33,0,343.84810410000046,,,,,,,,,,,,,,,,,,,,,,,,,,,,,,,,,,,,,,,,,,,,,,,,,,,,,,,Schuh,3.6297,343.83220810000057,343.8327940999998,343.83289520000017,343.84810410000046,347.4807738999998,347.4653493000005,347.4691407999999,347.4807738999998,347.4807738999998,347.4807738999998,347.4807738999998,349.4651564000005,3,0.8703756000004432,0.3191655999999057,None,349.48129680000056,349.48129680000056,349.48129680000056,349.48129680000056,,,,,,,,,,,,,,,,,,,2345,1,2025-05-12_13h58.25.708,sm,2024.2.4,59.98616718970231,2025-05-12 13h58.36.899473 +0200,
34,0,34,,,,,,space,4.308449899999687,None,None,3,0.8862789000004341,1.0621950999993715,None,0,0,0,0,,,,,0,0,0,0,,,,,34,0,34,0,349.48129680000056,,,,,,,,,,,,,,,,,,,,,,,,,,,,,,,,,,,,,,,,,,,,,,,,,,,,,,,Rauch,2.3916,349.4656236999999,349.46597290000045,349.46607219999987,349.48129680000056,351.8807391999999,351.8651647000006,351.86940930000037,351.8807391999999,351.8807391999999,351.8807391999999,351.8807391999999,353.8654580000002,3,0.8862789000004341,1.0621950999993715,None,353.88090770000053,353.88090770000053,353.88090770000053,353.88090770000053,,,,,,,,,,,,,,,,,,,2345,1,2025-05-12_13h58.25.708,sm,2024.2.4,59.98616718970231,2025-05-12 13h58.36.899473 +0200,
35,0,35,,,,,,space,4.308449899999687,None,None,2,1.0479397999997673,0.25431140000000596,None,0,0,0,0,,,,,0,0,0,0,,,,,35,0,35,0,353.88090770000053,,,,,,,,,,,,,,,,,,,,,,,,,,,,,,,,,,,,,,,,,,,,,,,,,,,,,,,Beugen,3.0127,353.86592070000006,353.86636499999986,353.8664591000006,353.88090770000053,356.8972197000003,356.8812630000002,356.88522960000046,356.8972197000003,356.8972197000003,356.8972197000003,356.8972197000003,358.8812705,2,1.0479397999997673,0.25431140000000596,None,358.89703929999996,358.89703929999996,358.89703929999996,358.89703929999996,,,,,,,,,,,,,,,,,,,2345,1,2025-05-12_13h58.25.708,sm,2024.2.4,59.98616718970231,2025-05-12 13h58.36.899473 +0200,
36,0,36,,,,,,space,4.308449899999687,None,None,2,0.8894275000002381,0.2623457999998209,None,0,0,0,0,,,,,0,0,0,0,,,,,36,0,36,0,358.89703929999996,,,,,,,,,,,,,,,,,,,,,,,,,,,,,,,,,,,,,,,,,,,,,,,,,,,,,,,Zwerg,2.0052,358.8817217000005,358.8821785,358.88227820000066,358.89703929999996,360.9134707000003,360.8971857000006,360.8988454,360.9134707000003,360.9134707000003,360.9134707000003,360.9134707000003,362.8977961999999,2,0.8894275000002381,0.2623457999998209,None,362.9132896000001,362.9132896000001,362.9132896000001,362.9132896000001,,,,,,,,,,,,,,,,,,,2345,1,2025-05-12_13h58.25.708,sm,2024.2.4,59.98616718970231,2025-05-12 13h58.36.899473 +0200,
37,0,37,,,,,,space,4.308449899999687,None,None,3,0.9812173000000257,0.2753159999992931,None,0,0,0,0,,,,,0,0,0,0,,,,,37,0,37,0,362.9132896000001,,,,,,,,,,,,,,,,,,,,,,,,,,,,,,,,,,,,,,,,,,,,,,,,,,,,,,,Strand,3.6564,362.8982616000003,362.89860640000006,362.8987014000004,362.9132896000001,366.5795642000003,366.5634600000003,366.5677024000006,366.5795642000003,366.5795642000003,366.5795642000003,366.5795642000003,368.56384570000046,3,0.9812173000000257,0.2753159999992931,None,368.5800571,368.5800571,368.5800571,368.5800571,,,,,,,,,,,,,,,,,,,2345,1,2025-05-12_13h58.25.708,sm,2024.2.4,59.98616718970231,2025-05-12 13h58.36.899473 +0200,
38,0,38,,,,,,space,4.308449899999687,None,None,3,1.4150774999998248,0.31521970000085275,None,0,0,0,0,,,,,0,0,0,0,,,,,38,0,38,0,368.5800571,,,,,,,,,,,,,,,,,,,,,,,,,,,,,,,,,,,,,,,,,,,,,,,,,,,,,,,Gericht,2.8901,368.5642994,368.5647509999999,368.5648448000002,368.5800571,371.4792416999999,371.4642113,371.4685784000003,371.4792416999999,371.4792416999999,371.4792416999999,371.4792416999999,373.46430860000055,3,1.4150774999998248,0.31521970000085275,None,373.47921159999987,373.47921159999987,373.47921159999987,373.47921159999987,,,,,,,,,,,,,,,,,,,2345,1,2025-05-12_13h58.25.708,sm,2024.2.4,59.98616718970231,2025-05-12 13h58.36.899473 +0200,
39,0,39,,,,,,space,4.308449899999687,None,None,2,1.4722728999995525,0.24348730000019714,None,0,0,0,0,,,,,0,0,0,0,,,,,39,0,39,0,373.47921159999987,,,,,,,,,,,,,,,,,,,,,,,,,,,,,,,,,,,,,,,,,,,,,,,,,,,,,,,Pflege,2.1743,373.4647372999998,373.4652061000006,373.46530410000014,373.47921159999987,375.6628854999999,375.6475194000004,375.65115160000005,375.6628854999999,375.6628854999999,375.6628854999999,375.6628854999999,377.6472566000002,2,1.4722728999995525,0.24348730000019714,None,377.66293870000027,377.66293870000027,377.66293870000027,377.66293870000027,,,,,,,,,,,,,,,,,,,2345,1,2025-05-12_13h58.25.708,sm,2024.2.4,59.98616718970231,2025-05-12 13h58.36.899473 +0200,
40,0,40,,,,,,space,4.308449899999687,None,None,2,1.223402000000533,0.23331059999964054,None,0,0,0,0,,,,,0,0,0,0,,,,,40,0,40,0,377.66293870000027,,,,,,,,,,,,,,,,,,,,,,,,,,,,,,,,,,,,,,,,,,,,,,,,,,,,,,,Geschichte,2.7357,377.6477018000005,377.64809830000013,377.6481934000003,377.66293870000027,380.41264690000025,380.39663030000065,380.4008597000002,380.41264690000025,380.41264690000025,380.41264690000025,380.41264690000025,382.39687630000026,2,1.223402000000533,0.23331059999964054,None,382.4128515000002,382.4128515000002,382.4128515000002,382.4128515000002,,,,,,,,,,,,,,,,,,,2345,1,2025-05-12_13h58.25.708,sm,2024.2.4,59.98616718970231,2025-05-12 13h58.36.899473 +0200,
41,0,41,,,,,,space,4.308449899999687,None,None,3,1.2847093999998833,0.2622430000001259,None,0,0,0,0,,,,,0,0,0,0,,,,,41,0,41,0,382.4128515000002,,,,,,,,,,,,,,,,,,,,,,,,,,,,,,,,,,,,,,,,,,,,,,,,,,,,,,,Sack,2.2385,382.39733200000046,382.39792790000047,382.39802640000016,382.4128515000002,384.66186050000033,384.6467646000001,384.64979649999987,384.66186050000033,384.66186050000033,384.66186050000033,384.66186050000033,386.64680529999987,3,1.2847093999998833,0.2622430000001259,None,386.66214450000007,386.66214450000007,386.66214450000007,386.66214450000007,,,,,,,,,,,,,,,,,,,2345,1,2025-05-12_13h58.25.708,sm,2024.2.4,59.98616718970231,2025-05-12 13h58.36.899473 +0200,
42,0,42,,,,,,space,4.308449899999687,None,None,3,0.9233618999996906,0.38592460000018036,None,0,0,0,0,,,,,0,0,0,0,,,,,42,0,42,0,386.66214450000007,,,,,,,,,,,,,,,,,,,,,,,,,,,,,,,,,,,,,,,,,,,,,,,,,,,,,,,Kapitel,2.3006,386.64726789999986,386.6477224999999,386.6478158,386.66214450000007,388.96262790000037,388.9462600000006,388.94937050000044,388.96262790000037,388.96262790000037,388.96262790000037,388.96262790000037,390.9465172,3,0.9233618999996906,0.38592460000018036,None,390.9622156000005,390.9622156000005,390.9622156000005,390.9622156000005,,,,,,,,,,,,,,,,,,,2345,1,2025-05-12_13h58.25.708,sm,2024.2.4,59.98616718970231,2025-05-12 13h58.36.899473 +0200,
43,0,43,,,,,,space,4.308449899999687,None,None,3,1.7608499999996639,None,None,0,0,0,0,,,,,0,0,0,0,,,,,43,0,43,0,390.9622156000005,,,,,,,,,,,,,,,,,,,,,,,,,,,,,,,,,,,,,,,,,,,,,,,,,,,,,,,Station,2.3362,390.9469753000003,390.94746040000064,390.9475596000002,390.9622156000005,393.3113707000002,393.2957012000006,393.29775659999996,393.3113707000002,393.3113707000002,393.3113707000002,393.3113707000002,395.2961167000003,3,1.7608499999996639,None,None,395.3117855999999,395.3117855999999,395.3117855999999,395.3117855999999,,,,,,,,,,,,,,,,,,,2345,1,2025-05-12_13h58.25.708,sm,2024.2.4,59.98616718970231,2025-05-12 13h58.36.899473 +0200,
44,0,44,,,,,,space,4.308449899999687,None,None,3,1.0678869999992457,0.2653103000002375,None,0,0,0,0,,,,,0,0,0,0,,,,,44,0,44,0,395.3117855999999,,,,,,,,,,,,,,,,,,,,,,,,,,,,,,,,,,,,,,,,,,,,,,,,,,,,,,,Schlamm,2.6312,395.2965830000003,395.29704110000057,395.29712259999997,395.3117855999999,397.94471000000067,397.9290864000004,397.93287469999996,397.94471000000067,397.94471000000067,397.94471000000067,397.94471000000067,399.92821020000065,3,1.0678869999992457,0.2653103000002375,None,399.9443547999999,399.9443547999999,399.9443547999999,399.9443547999999,,,,,,,,,,,,,,,,,,,2345,1,2025-05-12_13h58.25.708,sm,2024.2.4,59.98616718970231,2025-05-12 13h58.36.899473 +0200,
45,0,45,,,,,,space,4.308449899999687,None,None,2,1.230273400000442,0.2802146999993056,None,0,0,0,0,,,,,0,0,0,0,,,,,45,0,45,0,399.9443547999999,,,,,,,,,,,,,,,,,,,,,,,,,,,,,,,,,,,,,,,,,,,,,,,,,,,,,,,Rebe,2.6097,399.9284021000003,399.9286880999998,399.9287251000005,399.9443547999999,402.56147280000005,402.5456486000003,402.5492585000002,402.56147280000005,402.56147280000005,402.56147280000005,402.56147280000005,404.5449417,2,1.230273400000442,0.2802146999993056,None,404.5613553000003,404.5613553000003,404.5613553000003,404.5613553000003,,,,,,,,,,,,,,,,,,,2345,1,2025-05-12_13h58.25.708,sm,2024.2.4,59.98616718970231,2025-05-12 13h58.36.899473 +0200,
46,0,46,,,,,,space,4.308449899999687,None,None,3,0.9501264999998966,0.2272211999998035,None,0,0,0,0,,,,,0,0,0,0,,,,,46,0,46,0,404.5613553000003,,,,,,,,,,,,,,,,,,,,,,,,,,,,,,,,,,,,,,,,,,,,,,,,,,,,,,,Decke,2.021,404.5452790999998,404.5456801,404.54575449999993,404.5613553000003,406.5946310999998,406.5783959999999,406.58207670000047,406.5946310999998,406.5946310999998,406.5946310999998,406.5946310999998,408.5786926999999,3,0.9501264999998966,0.2272211999998035,None,408.5946138999998,408.5946138999998,408.5946138999998,408.5946138999998,,,,,,,,,,,,,,,,,,,2345,1,2025-05-12_13h58.25.708,sm,2024.2.4,59.98616718970231,2025-05-12 13h58.36.899473 +0200,
47,0,47,,,,,,space,4.308449899999687,None,None,3,0.7119142999999895,0.2224222999993799,None,0,0,0,0,,,,,0,0,0,0,,,,,47,0,47,0,408.5946138999998,,,,,,,,,,,,,,,,,,,,,,,,,,,,,,,,,,,,,,,,,,,,,,,,,,,,,,,Seil,3.2825,408.5791755,408.57966190000025,408.5797753000006,408.5946138999998,411.87741970000025,411.8616245000003,411.8654262,411.87741970000025,411.87741970000025,411.87741970000025,411.87741970000025,413.8617251000005,3,0.7119142999999895,0.2224222999993799,None,413.8778957000004,413.8778957000004,413.8778957000004,413.8778957000004,,,,,,,,,,,,,,,,,,,2345,1,2025-05-12_13h58.25.708,sm,2024.2.4,59.98616718970231,2025-05-12 13h58.36.899473 +0200,
48,0,48,,,,,,space,4.308449899999687,None,None,2,0.7884185000002617,0.2763095999998768,None,0,0,0,0,,,,,0,0,0,0,,,,,48,0,48,0,413.8778957000004,,,,,,,,,,,,,,,,,,,,,,,,,,,,,,,,,,,,,,,,,,,,,,,,,,,,,,,Käse,2.7584,413.8621873000002,413.86253399999987,413.8626303000001,413.8778957000004,416.6439175000005,416.6278987000005,416.63133410000046,416.6439175000005,416.6439175000005,416.6439175000005,416.6439175000005,418.6271342,2,0.7884185000002617,0.2763095999998768,None,418.6436269000005,418.6436269000005,418.6436269000005,418.6436269000005,,,,,,,,,,,,,,,,,,,2345,1,2025-05-12_13h58.25.708,sm,2024.2.4,59.98616718970231,2025-05-12 13h58.36.899473 +0200,
49,0,49,,,,,,space,4.308449899999687,None,None,3,0.7130917000004047,0.252539600000091,None,0,0,0,0,,,,,0,0,0,0,,,,,49,0,49,0,418.6436269000005,,,,,,,,,,,,,,,,,,,,,,,,,,,,,,,,,,,,,,,,,,,,,,,,,,,,,,,Gesetz,2.0946,418.6273243000005,418.62774640000043,418.6278738000001,418.6436269000005,420.74361899999985,420.72756610000033,420.7302184,420.74361899999985,420.74361899999985,420.74361899999985,420.74361899999985,422.72717920000014,3,0.7130917000004047,0.252539600000091,None,422.74397170000066,422.74397170000066,422.74397170000066,422.74397170000066,,,,,,,,,,,,,,,,,,,2345,1,2025-05-12_13h58.25.708,sm,2024.2.4,59.98616718970231,2025-05-12 13h58.36.899473 +0200,
50,0,50,,,,,,space,4.308449899999687,None,None,2,0.7153367000000799,0.2313584000003175,None,0,0,0,0,,,,,0,0,0,0,,,,,50,0,50,0,422.74397170000066,,,,,,,,,,,,,,,,,,,,,,,,,,,,,,,,,,,,,,,,,,,,,,,,,,,,,,,Autor,2.5982,422.72740479999993,422.7277334999999,422.7277777999998,422.74397170000066,425.3430739000005,425.32784189999984,425.3299164,425.3430739000005,425.3430739000005,425.3430739000005,425.3430739000005,427.32807890000004,2,0.7153367000000799,0.2313584000003175,None,427.3431971,427.3431971,427.3431971,427.3431971,,,,,,,,,,,,,,,,,,,2345,1,2025-05-12_13h58.25.708,sm,2024.2.4,59.98616718970231,2025-05-12 13h58.36.899473 +0200,
51,0,51,,,,,,space,4.308449899999687,None,None,2,0.9578888999994888,0.20147700000052282,None,0,0,0,0,,,,,0,0,0,0,,,,,51,0,51,0,427.3431971,,,,,,,,,,,,,,,,,,,,,,,,,,,,,,,,,,,,,,,,,,,,,,,,,,,,,,,Schwimmen,2.4167,427.32848120000017,427.3289033000001,427.3289854000004,427.3431971,429.75915460000033,429.74327260000064,429.7468112000006,429.75915460000033,429.75915460000033,429.75915460000033,429.75915460000033,431.74339750000036,2,0.9578888999994888,0.20147700000052282,None,431.75920159999987,431.75920159999987,431.75920159999987,431.75920159999987,,,,,,,,,,,,,,,,,,,2345,1,2025-05-12_13h58.25.708,sm,2024.2.4,59.98616718970231,2025-05-12 13h58.36.899473 +0200,
52,0,52,,,,,,space,4.308449899999687,None,None,2,0.7617036999999982,0.19243470000037632,None,0,0,0,0,,,,,0,0,0,0,,,,,52,0,52,0,431.75920159999987,,,,,,,,,,,,,,,,,,,,,,,,,,,,,,,,,,,,,,,,,,,,,,,,,,,,,,,Weinen,2.3843,431.74358680000023,431.7439052,431.74395000000004,431.75920159999987,434.1590752000002,434.14301239999986,434.1445494999998,434.1590752000002,434.1590752000002,434.1590752000002,434.1590752000002,436.14269670000067,2,0.7617036999999982,0.19243470000037632,None,436.15973380000014,436.15973380000014,436.15973380000014,436.15973380000014,,,,,,,,,,,,,,,,,,,2345,1,2025-05-12_13h58.25.708,sm,2024.2.4,59.98616718970231,2025-05-12 13h58.36.899473 +0200,
53,0,53,,,,,,space,4.308449899999687,None,None,2,0.7676851000005627,0.21636320000015985,None,0,0,0,0,,,,,0,0,0,0,,,,,53,0,53,0,436.15973380000014,,,,,,,,,,,,,,,,,,,,,,,,,,,,,,,,,,,,,,,,,,,,,,,,,,,,,,,Klee,2.1949,436.1428980999999,436.1431970000003,436.1432340000001,436.15973380000014,438.35889000000043,438.34324670000024,438.34666150000066,438.35889000000043,438.35889000000043,438.35889000000043,438.35889000000043,440.3432739,2,0.7676851000005627,0.21636320000015985,None,440.3590417000005,440.3590417000005,440.3590417000005,440.3590417000005,,,,,,,,,,,,,,,,,,,2345,1,2025-05-12_13h58.25.708,sm,2024.2.4,59.98616718970231,2025-05-12 13h58.36.899473 +0200,
54,0,54,,,,,,space,4.308449899999687,None,None,3,1.1675180000002001,0.22444650000034017,None,0,0,0,0,,,,,0,0,0,0,,,,,54,0,54,0,440.3590417000005,,,,,,,,,,,,,,,,,,,,,,,,,,,,,,,,,,,,,,,,,,,,,,,,,,,,,,,Weiß,3.6723,440.3437177000005,440.34415810000064,440.34425460000057,440.3590417000005,444.0426649000001,444.0266466000003,444.0325364,444.0426649000001,444.0426649000001,444.0426649000001,444.0426649000001,446.0262112999999,3,1.1675180000002001,0.22444650000034017,None,446.0431103000001,446.0431103000001,446.0431103000001,446.0431103000001,,,,,,,,,,,,,,,,,,,2345,1,2025-05-12_13h58.25.708,sm,2024.2.4,59.98616718970231,2025-05-12 13h58.36.899473 +0200,
55,0,55,,,,,,space,4.308449899999687,None,None,2,0.8247516999999789,0.18039300000054936,None,0,0,0,0,,,,,0,0,0,0,,,,,55,0,55,0,446.0431103000001,,,,,,,,,,,,,,,,,,,,,,,,,,,,,,,,,,,,,,,,,,,,,,,,,,,,,,,Bruder,2.9832,446.02667480000036,446.0271266999998,446.02721980000024,446.0431103000001,449.0250102,449.0099645,449.01361739999993,449.0250102,449.0250102,449.0250102,449.0250102,451.00949350000064,2,0.8247516999999789,0.18039300000054936,None,451.02525570000034,451.02525570000034,451.02525570000034,451.02525570000034,,,,,,,,,,,,,,,,,,,2345,1,2025-05-12_13h58.25.708,sm,2024.2.4,59.98616718970231,2025-05-12 13h58.36.899473 +0200,
56,0,56,,,,,,space,4.308449899999687,None,None,3,1.0060315999999148,0.23342779999984486,None,0,0,0,0,,,,,0,0,0,0,,,,,56,0,56,0,451.02525570000034,,,,,,,,,,,,,,,,,,,,,,,,,,,,,,,,,,,,,,,,,,,,,,,,,,,,,,,Klippe,2.3419,451.00995049999983,451.0105033,451.0105947000002,451.02525570000034,453.37471259999984,453.3589387000002,453.3611068,453.37471259999984,453.37471259999984,453.37471259999984,453.37471259999984,455.3590715999999,3,1.0060315999999148,0.23342779999984486,None,455.3754791000001,455.3754791000001,455.3754791000001,455.3754791000001,,,,,,,,,,,,,,,,,,,2345,1,2025-05-12_13h58.25.708,sm,2024.2.4,59.98616718970231,2025-05-12 13h58.36.899473 +0200,
57,0,57,,,,,,space,4.308449899999687,None,None,None,,,None,0,0,0,0,,,,,0,0,0,0,,,,,57,0,57,0,455.3754791000001,,,,,,,,,,,,,,,,,,,,,,,,,,,,,,,,,,,,,,,,,,,,,,,,,,,,,,,Seife,2.83,455.35939599999983,455.3598013000001,455.35986890000004,455.3754791000001,458.20740509999996,458.1918245000006,458.19402940000055,458.20740509999996,458.20740509999996,458.20740509999996,458.20740509999996,460.1915435000001,None,,,None,460.2078908000003,460.2078908000003,460.2078908000003,460.2078908000003,,,,,,,,,,,,,,,,,,,2345,1,2025-05-12_13h58.25.708,sm,2024.2.4,59.98616718970231,2025-05-12 13h58.36.899473 +0200,
58,0,58,,,,,,space,4.308449899999687,None,None,2,1.093993500000579,0.2583870999997089,None,0,0,0,0,,,,,0,0,0,0,,,,,58,0,58,0,460.2078908000003,,,,,,,,,,,,,,,,,,,,,,,,,,,,,,,,,,,,,,,,,,,,,,,,,,,,,,,Hase,4.5524,460.1917125,460.19191390000015,460.1919533,460.2078908000003,464.77498520000063,464.7574598000001,464.76065110000036,464.77498520000063,464.77498520000063,464.77498520000063,464.77498520000063,466.7749627000003,2,1.093993500000579,0.2583870999997089,None,,,,,,,,,,,,,,,,,,,,,,,2345,1,2025-05-12_13h58.25.708,sm,2024.2.4,59.98616718970231,2025-05-12 13h58.36.899473 +0200,
59,0,59,,,,,,space,4.308449899999687,None,None,3,1.2454479999996693,0.2782925999999861,None,0,0,0,0,,,,,0,0,0,0,,,,,59,0,59,0,466.79084349999994,,,,,,,,,,,,,,,,,,,,,,,,,,,,,,,,,,,,,,,,,,,,,,,,,,,,,,,Zeichnung,2.1697,466.77542919999996,466.7758665000001,466.77597160000005,466.79084349999994,468.9746853000006,468.9583594000005,468.9628874,468.9746853000006,468.9746853000006,468.9746853000006,468.9746853000006,470.95885910000015,3,1.2454479999996693,0.2782925999999861,None,470.9747699999998,470.9747699999998,470.9747699999998,470.9747699999998,,,,,,,,,,,,,,,,,,,2345,1,2025-05-12_13h58.25.708,sm,2024.2.4,59.98616718970231,2025-05-12 13h58.36.899473 +0200,
60,0,60,,,,,,space,4.308449899999687,None,None,3,1.5817347999991398,0.20927870000014082,None,0,0,0,0,,,,,0,0,0,0,,,,,60,0,60,0,470.9747699999998,,,,,,,,,,,,,,,,,,,,,,,,,,,,,,,,,,,,,,,,,,,,,,,,,,,,,,,Urlaub,5.3655,470.9593756000004,470.95984060000046,470.95993499999986,470.9747699999998,476.3410210000002,476.32383540000046,476.3262396,476.3410210000002,476.3410210000002,476.3410210000002,476.3410210000002,478.32423759999983,3,1.5817347999991398,0.20927870000014082,None,,,,,,,,,,,,,,,,,,,,,,,2345,1,2025-05-12_13h58.25.708,sm,2024.2.4,59.98616718970231,2025-05-12 13h58.36.899473 +0200,
61,0,61,,,,,,space,4.308449899999687,None,None,3,0.8189843999998629,0.24629240000012942,None,0,0,0,0,,,,,0,0,0,0,,,,,61,0,61,0,478.34070789999987,,,,,,,,,,,,,,,,,,,,,,,,,,,,,,,,,,,,,,,,,,,,,,,,,,,,,,,Krone,3.2059,478.3247575000005,478.32528510000066,478.3253835000005,478.34070789999987,481.556912,481.5413102000002,481.54490309999983,481.556912,481.556912,481.556912,481.556912,483.54119290000017,3,0.8189843999998629,0.24629240000012942,None,483.5572219000005,483.5572219000005,483.5572219000005,483.5572219000005,,,,,,,,,,,,,,,,,,,2345,1,2025-05-12_13h58.25.708,sm,2024.2.4,59.98616718970231,2025-05-12 13h58.36.899473 +0200,
62,0,62,,,,,,space,4.308449899999687,None,None,2,1.2477011999999377,0.2750770000002376,None,0,0,0,0,,,,,0,0,0,0,,,,,62,0,62,0,483.5572219000005,,,,,,,,,,,,,,,,,,,,,,,,,,,,,,,,,,,,,,,,,,,,,,,,,,,,,,,Zapfen,4.4767,483.54165190000003,483.54209850000007,483.5421967000002,483.5572219000005,488.0397707000002,488.0243595000002,488.0285418000003,488.0397707000002,488.0397707000002,488.0397707000002,488.0397707000002,490.02335889999995,2,1.2477011999999377,0.2750770000002376,None,490.0395447000001,490.0395447000001,490.0395447000001,490.0395447000001,,,,,,,,,,,,,,,,,,,2345,1,2025-05-12_13h58.25.708,sm,2024.2.4,59.98616718970231,2025-05-12 13h58.36.899473 +0200,
63,0,63,,,,,,space,4.308449899999687,None,None,3,0.8844770000005155,0.27630890000000363,None,0,0,0,0,,,,,0,0,0,0,,,,,63,0,63,0,490.0395447000001,,,,,,,,,,,,,,,,,,,,,,,,,,,,,,,,,,,,,,,,,,,,,,,,,,,,,,,Bus,3.6438,490.02355330000046,490.0239284999998,490.02396360000057,490.0395447000001,493.68968420000056,493.6743578000005,493.67836830000033,493.68968420000056,493.68968420000056,493.68968420000056,493.68968420000056,495.67330800000036,3,0.8844770000005155,0.27630890000000363,None,495.68846459999986,495.68846459999986,495.68846459999986,495.68846459999986,,,,,,,,,,,,,,,,,,,2345,1,2025-05-12_13h58.25.708,sm,2024.2.4,59.98616718970231,2025-05-12 13h58.36.899473 +0200,
64,0,64,,,,,,space,4.308449899999687,None,None,3,0.8904629999997269,0.2732413000003362,None,0,0,0,0,,,,,0,0,0,0,,,,,64,0,64,0,495.68846459999986,,,,,,,,,,,,,,,,,,,,,,,,,,,,,,,,,,,,,,,,,,,,,,,,,,,,,,,Wüste,3.6615,495.67380890000004,495.6743029999998,495.67436220000036,495.68846459999986,499.35566000000017,499.33913050000046,499.3417897999998,499.35566000000017,499.35566000000017,499.35566000000017,499.35566000000017,501.3392998999998,3,0.8904629999997269,0.2732413000003362,None,501.3568178000005,501.3568178000005,501.3568178000005,501.3568178000005,,,,,,,,,,,,,,,,,,,2345,1,2025-05-12_13h58.25.708,sm,2024.2.4,59.98616718970231,2025-05-12 13h58.36.899473 +0200,
65,0,65,,,,,,space,4.308449899999687,None,None,2,1.0373201000002155,0.21343849999993836,None,0,0,0,0,,,,,0,0,0,0,,,,,65,0,65,0,501.3568178000005,,,,,,,,,,,,,,,,,,,,,,,,,,,,,,,,,,,,,,,,,,,,,,,,,,,,,,,Sport,2.9061,501.33982150000065,501.3401907000007,501.3402909000006,501.3568178000005,504.2722266999999,504.25672850000046,504.2609462999999,504.2722266999999,504.2722266999999,504.2722266999999,504.2722266999999,506.25665910000043,2,1.0373201000002155,0.21343849999993836,None,506.27242190000015,506.27242190000015,506.27242190000015,506.27242190000015,,,,,,,,,,,,,,,,,,,2345,1,2025-05-12_13h58.25.708,sm,2024.2.4,59.98616718970231,2025-05-12 13h58.36.899473 +0200,
66,0,66,,,,,,space,4.308449899999687,None,None,3,1.7673386999995273,None,None,0,0,0,0,,,,,0,0,0,0,,,,,66,0,66,0,506.27242190000015,,,,,,,,,,,,,,,,,,,,,,,,,,,,,,,,,,,,,,,,,,,,,,,,,,,,,,,Präsident,2.3599,506.2570611000001,506.2574899000001,506.25757280000016,506.27242190000015,508.6386773000004,508.6224731000002,508.62613969999984,508.6386773000004,508.6386773000004,508.6386773000004,508.6386773000004,510.62226180000016,3,1.7673386999995273,None,None,510.63818230000015,510.63818230000015,510.63818230000015,510.63818230000015,,,,,,,,,,,,,,,,,,,2345,1,2025-05-12_13h58.25.708,sm,2024.2.4,59.98616718970231,2025-05-12 13h58.36.899473 +0200,
67,0,67,,,,,,space,4.308449899999687,None,None,None,,,None,0,0,0,0,,,,,0,0,0,0,,,,,67,0,67,0,510.63818230000015,,,,,,,,,,,,,,,,,,,,,,,,,,,,,,,,,,,,,,,,,,,,,,,,,,,,,,,Dachboden,2.9645,510.6224603999999,510.6227823999998,510.62282360000063,510.63818230000015,513.6052854999998,513.5902516000006,513.5939219000002,513.6052854999998,513.6052854999998,513.6052854999998,513.6052854999998,515.5888848000004,None,,,None,515.6056530000005,515.6056530000005,515.6056530000005,515.6056530000005,,,,,,,,,,,,,,,,,,,2345,1,2025-05-12_13h58.25.708,sm,2024.2.4,59.98616718970231,2025-05-12 13h58.36.899473 +0200,
68,0,68,,,,,,space,4.308449899999687,None,None,3,1.292299799999455,0.2662975000002916,None,0,0,0,0,,,,,0,0,0,0,,,,,68,0,68,0,515.6056530000005,,,,,,,,,,,,,,,,,,,,,,,,,,,,,,,,,,,,,,,,,,,,,,,,,,,,,,,Kartoffel,2.9036,515.5893309000003,515.5899476000004,515.5900455999999,515.6056530000005,518.5216189000002,518.5057018000007,518.5089079999998,518.5216189000002,518.5216189000002,518.5216189000002,518.5216189000002,520.5059449999999,3,1.292299799999455,0.2662975000002916,None,520.5218507,520.5218507,520.5218507,520.5218507,,,,,,,,,,,,,,,,,,,2345,1,2025-05-12_13h58.25.708,sm,2024.2.4,59.98616718970231,2025-05-12 13h58.36.899473 +0200,
69,0,69,,,,,,space,4.308449899999687,None,None,3,0.9565802999995867,0.3021531000003961,None,0,0,0,0,,,,,0,0,0,0,,,,,69,0,69,0,520.5218507,,,,,,,,,,,,,,,,,,,,,,,,,,,,,,,,,,,,,,,,,,,,,,,,,,,,,,,Fahrrad,5.1698,520.5063862000006,520.5067307999998,520.5068176000004,520.5218507,525.7049034000001,525.6885274000006,525.6922886000002,525.7049034000001,525.7049034000001,525.7049034000001,525.7049034000001,527.6889277999999,3,0.9565802999995867,0.3021531000003961,None,527.7045495000002,527.7045495000002,527.7045495000002,527.7045495000002,,,,,,,,,,,,,,,,,,,2345,1,2025-05-12_13h58.25.708,sm,2024.2.4,59.98616718970231,2025-05-12 13h58.36.899473 +0200,
70,0,70,,,,,,space,4.308449899999687,None,None,2,0.6586338000006435,0.23430680000001303,None,0,0,0,0,,,,,0,0,0,0,,,,,70,0,70,0,527.7045495000002,,,,,,,,,,,,,,,,,,,,,,,,,,,,,,,,,,,,,,,,,,,,,,,,,,,,,,,Kuh,4.5959,527.6893942000006,527.6898477000004,527.6899405000004,527.7045495000002,532.3040583000002,532.2884531,532.2928185999999,532.3040583000002,532.3040583000002,532.3040583000002,532.3040583000002,534.2874235999998,2,0.6586338000006435,0.23430680000001303,None,534.3035544000004,534.3035544000004,534.3035544000004,534.3035544000004,,,,,,,,,,,,,,,,,,,2345,1,2025-05-12_13h58.25.708,sm,2024.2.4,59.98616718970231,2025-05-12 13h58.36.899473 +0200,
71,0,71,,,,,,space,4.308449899999687,None,None,2,1.1754913000004308,0.24821799999972427,None,0,0,0,0,,,,,0,0,0,0,,,,,71,0,71,0,534.3035544000004,,,,,,,,,,,,,,,,,,,,,,,,,,,,,,,,,,,,,,,,,,,,,,,,,,,,,,,Trennung,2.2639,534.2877311000002,534.2881716000002,534.2882915,534.3035544000004,536.5714539999999,536.5551436000005,536.5588289000007,536.5714539999999,536.5714539999999,536.5714539999999,536.5714539999999,538.5552435999998,2,1.1754913000004308,0.24821799999972427,None,538.5712235999999,538.5712235999999,538.5712235999999,538.5712235999999,,,,,,,,,,,,,,,,,,,2345,1,2025-05-12_13h58.25.708,sm,2024.2.4,59.98616718970231,2025-05-12 13h58.36.899473 +0200,
72,0,72,,,,,,space,4.308449899999687,None,None,3,0.9018114000000423,0.2532381000000896,None,0,0,0,0,,,,,0,0,0,0,,,,,72,0,72,0,538.5712235999999,,,,,,,,,,,,,,,,,,,,,,,,,,,,,,,,,,,,,,,,,,,,,,,,,,,,,,,Waschbecken,2.1186,538.5554452000006,538.5558220000003,538.5558600000004,538.5712235999999,540.7037982000002,540.6882575999998,540.6925400999999,540.7037982000002,540.7037982000002,540.7037982000002,540.7037982000002,542.6883121999999,3,0.9018114000000423,0.2532381000000896,None,542.7039832999999,542.7039832999999,542.7039832999999,542.7039832999999,,,,,,,,,,,,,,,,,,,2345,1,2025-05-12_13h58.25.708,sm,2024.2.4,59.98616718970231,2025-05-12 13h58.36.899473 +0200,
73,0,73,,,,,,space,4.308449899999687,None,None,2,0.7896290999997291,0.28422039999986737,None,0,0,0,0,,,,,0,0,0,0,,,,,73,0,73,0,542.7039832999999,,,,,,,,,,,,,,,,,,,,,,,,,,,,,,,,,,,,,,,,,,,,,,,,,,,,,,,Hai,5.3463,542.6888048000001,542.6893713,542.6894943000007,542.7039832999999,548.0535544000004,548.0360231000004,548.0375859000005,548.0535544000004,548.0535544000004,548.0535544000004,548.0535544000004,550.0363082000003,2,0.7896290999997291,0.28422039999986737,None,,,,,,,,,,,,,,,,,,,,,,,2345,1,2025-05-12_13h58.25.708,sm,2024.2.4,59.98616718970231,2025-05-12 13h58.36.899473 +0200,
74,0,74,,,,,,space,4.308449899999687,None,None,3,0.8160962000001746,0.5415424000002531,None,0,0,0,0,,,,,0,0,0,0,,,,,74,0,74,0,550.0532097000005,,,,,,,,,,,,,,,,,,,,,,,,,,,,,,,,,,,,,,,,,,,,,,,,,,,,,,,Rot,2.4137,550.0365513000006,550.0370197000002,550.0370694000003,550.0532097000005,552.4692744000004,552.4538819999998,552.4573696000007,552.4692744000004,552.4692744000004,552.4692744000004,552.4692744000004,554.4536222000006,3,0.8160962000001746,0.5415424000002531,None,554.4701235000002,554.4701235000002,554.4701235000002,554.4701235000002,,,,,,,,,,,,,,,,,,,2345,1,2025-05-12_13h58.25.708,sm,2024.2.4,59.98616718970231,2025-05-12 13h58.36.899473 +0200,
75,0,75,,,,,,space,4.308449899999687,None,None,3,1.2827798999996958,0.5584741000002396,None,0,0,0,0,,,,,0,0,0,0,,,,,75,0,75,0,554.4701235000002,,,,,,,,,,,,,,,,,,,,,,,,,,,,,,,,,,,,,,,,,,,,,,,,,,,,,,,Spiel,2.1413,554.453923,554.4543124000002,554.4543712000004,554.4701235000002,556.6191769000006,556.6036779000005,556.6051656,556.6191769000006,556.6191769000006,556.6191769000006,556.6191769000006,558.6041353999999,3,1.2827798999996958,0.5584741000002396,None,558.6198214000005,558.6198214000005,558.6198214000005,558.6198214000005,,,,,,,,,,,,,,,,,,,2345,1,2025-05-12_13h58.25.708,sm,2024.2.4,59.98616718970231,2025-05-12 13h58.36.899473 +0200,
76,0,76,,,,,,space,4.308449899999687,None,None,3,1.5280346999998073,0.25837270000010903,None,0,0,0,0,,,,,0,0,0,0,,,,,76,0,76,0,558.6198214000005,,,,,,,,,,,,,,,,,,,,,,,,,,,,,,,,,,,,,,,,,,,,,,,,,,,,,,,Handy,2.3861,558.6045973999999,558.6050667,558.6051594999999,558.6198214000005,561.0186488999998,561.0025690000002,561.0044859,561.0186488999998,561.0186488999998,561.0186488999998,561.0186488999998,563.0026945999998,3,1.5280346999998073,0.25837270000010903,None,563.0187642000001,563.0187642000001,563.0187642000001,563.0187642000001,,,,,,,,,,,,,,,,,,,2345,1,2025-05-12_13h58.25.708,sm,2024.2.4,59.98616718970231,2025-05-12 13h58.36.899473 +0200,
77,0,77,,,,,,space,4.308449899999687,None,None,2,0.9273875999997472,0.20451580000008107,None,0,0,0,0,,,,,0,0,0,0,,,,,77,0,77,0,563.0187642000001,,,,,,,,,,,,,,,,,,,,,,,,,,,,,,,,,,,,,,,,,,,,,,,,,,,,,,,Besucher,2.0168,563.0029436000004,563.0032744,563.003326,563.0187642000001,565.0352425000001,565.0204512999999,565.0245791000007,565.0352425000001,565.0352425000001,565.0352425000001,565.0352425000001,567.0203085000003,2,0.9273875999997472,0.20451580000008107,None,567.0355307,567.0355307,567.0355307,567.0355307,,,,,,,,,,,,,,,,,,,2345,1,2025-05-12_13h58.25.708,sm,2024.2.4,59.98616718970231,2025-05-12 13h58.36.899473 +0200,
78,0,78,,,,,,space,4.308449899999687,None,None,3,0.8234456999998656,0.23837230000026466,None,0,0,0,0,,,,,0,0,0,0,,,,,78,0,78,0,567.0355307,,,,,,,,,,,,,,,,,,,,,,,,,,,,,,,,,,,,,,,,,,,,,,,,,,,,,,,Berg,2.2129,567.0207699000002,567.0211243000003,567.0212190000002,567.0355307,569.2519966,569.2363948000002,569.2400255000002,569.2519966,569.2519966,569.2519966,569.2519966,571.2358715,3,0.8234456999998656,0.23837230000026466,None,571.2527894000004,571.2527894000004,571.2527894000004,571.2527894000004,,,,,,,,,,,,,,,,,,,2345,1,2025-05-12_13h58.25.708,sm,2024.2.4,59.98616718970231,2025-05-12 13h58.36.899473 +0200,
79,0,79,,,,,,space,4.308449899999687,None,None,3,0.8013883000003261,0.23233609999988403,None,0,0,0,0,,,,,0,0,0,0,,,,,79,0,79,0,571.2527894000004,,,,,,,,,,,,,,,,,,,,,,,,,,,,,,,,,,,,,,,,,,,,,,,,,,,,,,,Schloss,3.6005,571.2363166000005,571.2368301000006,571.2369238000001,571.2527894000004,574.8683412999999,574.8523374000006,574.8540733,574.8683412999999,574.8683412999999,574.8683412999999,574.8683412999999,576.8521658,3,0.8013883000003261,0.23233609999988403,None,576.8681013000005,576.8681013000005,576.8681013000005,576.8681013000005,,,,,,,,,,,,,,,,,,,2345,1,2025-05-12_13h58.25.708,sm,2024.2.4,59.98616718970231,2025-05-12 13h58.36.899473 +0200,
0,0,0,,,,,2.0168,space,4.241425799999888,None,None,2,0.9244374999998399,0.34212029999980587,None,0,0,0,0,,,,,1,0,1,0,0,79,79,73,0,0,0,0,621.4156757000001,,,,,,,,,,,,,,,,,,,,,,,,,,,,,,,,,592.8120564999999,592.8123267000001,592.8183607999999,592.8222401000003,592.8222401000003,597.0676958000004,space,4.241425799999888,None,597.0677586000002,597.0838045999999,597.0838045999999,609.3998228,None,609.4065062,609.4162516000006,609.4152282666666,610.6209244000001,619.4002722666667,620.4008407000001,621.4156757000001,621.3998971999999,Anführer,2.0168,621.4012367000005,621.4017207000006,621.4018168000002,621.4156757000001,623.4327997,623.4173113000006,623.4209619000003,623.4327997,623.4327997,623.4327997,623.4327997,625.4164176000004,2,0.9244374999998399,0.34212029999980587,None,625.4326872000001,625.4326872000001,625.4326872000001,625.4326872000001,588.8519460000007,588.852011,None,588.8521435000002,588.86823,588.86823,592.7691593999998,4,3.8981199999998353,None,,,,,,,,,2345,1,2025-05-12_13h58.25.708,sm,2024.2.4,59.98616718970231,2025-05-12 13h58.36.899473 +0200,
1,0,1,,,,,,space,4.241425799999888,None,None,2,0.8976948999998058,0.2892336000004434,None,0,0,0,0,,,,,1,0,1,0,,,,,1,0,1,0,625.4326872000001,,,,,,,,,,,,,,,,,,,,,,,,,,,,,,,,,,,,,,,,,,,,,,,,,,,,,,,Ozean,4.0852,625.4168786,625.4173448000001,625.4174377999998,625.4326872000001,629.5323767,629.5159076,629.5216644000002,629.5323767,629.5323767,629.5323767,629.5323767,631.5158363,2,0.8976948999998058,0.2892336000004434,None,631.5329792000002,631.5329792000002,631.5329792000002,631.5329792000002,,,,,,,,,,,,,,,,,,,2345,1,2025-05-12_13h58.25.708,sm,2024.2.4,59.98616718970231,2025-05-12 13h58.36.899473 +0200,
2,0,2,,,,,,space,4.241425799999888,None,None,2,0.897556099999747,0.23539760000039678,None,0,0,0,0,,,,,1,0,1,0,,,,,2,0,2,0,631.5329792000002,,,,,,,,,,,,,,,,,,,,,,,,,,,,,,,,,,,,,,,,,,,,,,,,,,,,,,,Gruppe,2.83,631.5160603000004,631.5164030000005,631.5164414000001,631.5329792000002,634.3647289,634.348806,634.3521893000006,634.3647289,634.3647289,634.3647289,634.3647289,636.3493174000005,2,0.897556099999747,0.23539760000039678,None,636.3652757,636.3652757,636.3652757,636.3652757,,,,,,,,,,,,,,,,,,,2345,1,2025-05-12_13h58.25.708,sm,2024.2.4,59.98616718970231,2025-05-12 13h58.36.899473 +0200,
3,0,3,,,,,,space,4.241425799999888,None,None,3,0.9784779000001436,0.24526560000049358,None,0,0,0,0,,,,,1,0,1,0,,,,,3,0,3,0,636.3652757,,,,,,,,,,,,,,,,,,,,,,,,,,,,,,,,,,,,,,,,,,,,,,,,,,,,,,,Sitzgurt,2.0589,636.3497898000005,636.3502392999999,636.3503343000002,636.3652757,638.4316403000003,638.4161789999998,638.4199505000006,638.4316403000003,638.4316403000003,638.4316403000003,638.4316403000003,640.4153407000003,3,0.9784779000001436,0.24526560000049358,None,640.4309529000002,640.4309529000002,640.4309529000002,640.4309529000002,,,,,,,,,,,,,,,,,,,2345,1,2025-05-12_13h58.25.708,sm,2024.2.4,59.98616718970231,2025-05-12 13h58.36.899473 +0200,
4,0,4,,,,,,space,4.241425799999888,None,None,3,0.890658600000279,0.30112819999976637,None,0,0,0,0,,,,,1,0,1,0,,,,,4,0,4,0,640.4309529000002,,,,,,,,,,,,,,,,,,,,,,,,,,,,,,,,,,,,,,,,,,,,,,,,,,,,,,,Dorn,2.0946,640.4158075000005,640.4163079,640.4163773999999,640.4309529000002,642.5309211000003,642.5157890999999,642.5196867000004,642.5309211000003,642.5309211000003,642.5309211000003,642.5309211000003,644.5152605000003,3,0.890658600000279,0.30112819999976637,None,644.5316260999998,644.5316260999998,644.5316260999998,644.5316260999998,,,,,,,,,,,,,,,,,,,2345,1,2025-05-12_13h58.25.708,sm,2024.2.4,59.98616718970231,2025-05-12 13h58.36.899473 +0200,
5,0,5,,,,,,space,4.241425799999888,None,None,3,1.129249699999491,0.29515970000011293,None,0,0,0,0,,,,,1,0,1,0,,,,,5,0,5,0,644.5316260999998,,,,,,,,,,,,,,,,,,,,,,,,,,,,,,,,,,,,,,,,,,,,,,,,,,,,,,,Butter,2.4167,644.5156848000006,644.5160234000004,644.5161115000001,644.5316260999998,646.9476647000001,646.9318782999999,646.9355859000007,646.9476647000001,646.9476647000001,646.9476647000001,646.9476647000001,648.9324551999998,3,1.129249699999491,0.29515970000011293,None,648.9476916000003,648.9476916000003,648.9476916000003,648.9476916000003,,,,,,,,,,,,,,,,,,,2345,1,2025-05-12_13h58.25.708,sm,2024.2.4,59.98616718970231,2025-05-12 13h58.36.899473 +0200,
6,0,6,,,,,,space,4.241425799999888,None,None,3,1.156097499999305,0.2862230000000636,None,0,0,0,0,,,,,1,0,1,0,,,,,6,0,6,0,648.9476916000003,,,,,,,,,,,,,,,,,,,,,,,,,,,,,,,,,,,,,,,,,,,,,,,,,,,,,,,Nacht,2.1949,648.9329091,648.9334345000007,648.9335270000001,648.9476916000003,651.1476923,651.1317155000006,651.1352797999998,651.1476923,651.1476923,651.1476923,651.1476923,653.1475884000001,3,1.156097499999305,0.2862230000000636,None,,,,,,,,,,,,,,,,,,,,,,,2345,1,2025-05-12_13h58.25.708,sm,2024.2.4,59.98616718970231,2025-05-12 13h58.36.899473 +0200,
7,0,7,,,,,,space,4.241425799999888,None,None,2,0.9083705000002738,0.24831989999984216,None,0,0,0,0,,,,,1,0,1,0,,,,,7,0,7,0,653.1640037000006,,,,,,,,,,,,,,,,,,,,,,,,,,,,,,,,,,,,,,,,,,,,,,,,,,,,,,,Schulter,2.5169,653.1479454999999,653.1484258999999,653.1484909999999,653.1640037000006,655.6807454999998,655.6653053999999,655.6680409,655.6807454999998,655.6807454999998,655.6807454999998,655.6807454999998,657.6646461,2,0.9083705000002738,0.24831989999984216,None,657.6812593000004,657.6812593000004,657.6812593000004,657.6812593000004,,,,,,,,,,,,,,,,,,,2345,1,2025-05-12_13h58.25.708,sm,2024.2.4,59.98616718970231,2025-05-12 13h58.36.899473 +0200,
8,0,8,,,,,,space,4.241425799999888,None,None,2,1.2399548000003051,0.19947489999958634,None,0,0,0,0,,,,,1,0,1,0,,,,,8,0,8,0,657.6812593000004,,,,,,,,,,,,,,,,,,,,,,,,,,,,,,,,,,,,,,,,,,,,,,,,,,,,,,,Restaurant,5.3655,657.6650264,657.6653108999999,657.6653892000004,657.6812593000004,663.0465935000002,663.0306828000002,663.0323752000004,663.0465935000002,663.0465935000002,663.0465935000002,663.0465935000002,665.0310341000004,2,1.2399548000003051,0.19947489999958634,None,665.0471472999998,665.0471472999998,665.0471472999998,665.0471472999998,,,,,,,,,,,,,,,,,,,2345,1,2025-05-12_13h58.25.708,sm,2024.2.4,59.98616718970231,2025-05-12 13h58.36.899473 +0200,
9,0,9,,,,,,space,4.241425799999888,None,None,2,0.902166799999577,0.2234046000003218,None,0,0,0,0,,,,,1,0,1,0,,,,,9,0,9,0,665.0471472999998,,,,,,,,,,,,,,,,,,,,,,,,,,,,,,,,,,,,,,,,,,,,,,,,,,,,,,,Schwester,2.6097,665.0315455999998,665.0318652000005,665.0319598000005,665.0471472999998,667.6638602000003,667.6479029000002,667.6523274000001,667.6638602000003,667.6638602000003,667.6638602000003,667.6638602000003,669.6628890000002,2,0.902166799999577,0.2234046000003218,None,,,,,,,,,,,,,,,,,,,,,,,2345,1,2025-05-12_13h58.25.708,sm,2024.2.4,59.98616718970231,2025-05-12 13h58.36.899473 +0200,
10,0,10,,,,,,space,4.241425799999888,None,None,3,0.8045027999996819,0.21046410000053584,None,0,0,0,0,,,,,1,0,1,0,,,,,10,0,10,0,669.6801093000004,,,,,,,,,,,,,,,,,,,,,,,,,,,,,,,,,,,,,,,,,,,,,,,,,,,,,,,Bad,2.9036,669.6630823000005,669.6634109000006,669.6634560000002,669.6801093000004,672.5958811999999,672.5803102,672.5817090999999,672.5958811999999,672.5958811999999,672.5958811999999,672.5958811999999,674.5808149000004,3,0.8045027999996819,0.21046410000053584,None,674.5962121000002,674.5962121000002,674.5962121000002,674.5962121000002,,,,,,,,,,,,,,,,,,,2345,1,2025-05-12_13h58.25.708,sm,2024.2.4,59.98616718970231,2025-05-12 13h58.36.899473 +0200,
11,0,11,,,,,,space,4.241425799999888,None,None,3,1.3814688000002207,0.2821807999998782,None,0,0,0,0,,,,,1,0,1,0,,,,,11,0,11,0,674.5962121000002,,,,,,,,,,,,,,,,,,,,,,,,,,,,,,,,,,,,,,,,,,,,,,,,,,,,,,,Ringe,3.1264,674.5812523000004,674.5817014000004,674.5817967000003,674.5962121000002,677.7295856000001,677.7135969000001,677.7181029000003,677.7295856000001,677.7295856000001,677.7295856000001,677.7295856000001,679.7124445999998,3,1.3814688000002207,0.2821807999998782,None,679.7289390000005,679.7289390000005,679.7289390000005,679.7289390000005,,,,,,,,,,,,,,,,,,,2345,1,2025-05-12_13h58.25.708,sm,2024.2.4,59.98616718970231,2025-05-12 13h58.36.899473 +0200,
12,0,12,,,,,,space,4.241425799999888,None,None,2,1.0998536000006425,0.24331050000000687,None,0,0,0,0,,,,,1,0,1,0,,,,,12,0,12,0,679.7289390000005,,,,,,,,,,,,,,,,,,,,,,,,,,,,,,,,,,,,,,,,,,,,,,,,,,,,,,,Knöchel,4.5524,679.7126741000002,679.7128923999999,679.7129415999998,679.7289390000005,684.2954107000005,684.2794165000005,684.2813627000005,684.2954107000005,684.2954107000005,684.2954107000005,684.2954107000005,686.2798235,2,1.0998536000006425,0.24331050000000687,None,686.2953951,686.2953951,686.2953951,686.2953951,,,,,,,,,,,,,,,,,,,2345,1,2025-05-12_13h58.25.708,sm,2024.2.4,59.98616718970231,2025-05-12 13h58.36.899473 +0200,
13,0,13,,,,,,space,4.241425799999888,None,None,2,0.8182698000000528,0.2483950999994704,None,0,0,0,0,,,,,1,0,1,0,,,,,13,0,13,0,686.2953951,,,,,,,,,,,,,,,,,,,,,,,,,,,,,,,,,,,,,,,,,,,,,,,,,,,,,,,Feier,4.3756,686.2800341000002,686.2802695,686.2803106000001,686.2953951,690.6784247000005,690.6622303000004,690.6637090000004,690.6784247000005,690.6784247000005,690.6784247000005,690.6784247000005,692.6624818,2,0.8182698000000528,0.2483950999994704,None,,,,,,,,,,,,,,,,,,,,,,,2345,1,2025-05-12_13h58.25.708,sm,2024.2.4,59.98616718970231,2025-05-12 13h58.36.899473 +0200,
14,0,14,,,,,,space,4.241425799999888,None,None,3,1.1968415000001187,0.5336858000000575,None,0,0,0,0,,,,,1,0,1,0,,,,,14,0,14,0,692.6789515,,,,,,,,,,,,,,,,,,,,,,,,,,,,,,,,,,,,,,,,,,,,,,,,,,,,,,,Langsam,2.9645,692.6629375000002,692.6635313000006,692.6636330000001,692.6789515,695.645614,695.6293854000005,695.6326549000005,695.645614,695.645614,695.645614,695.645614,697.6294429,3,1.1968415000001187,0.5336858000000575,None,697.6450828000006,697.6450828000006,697.6450828000006,697.6450828000006,,,,,,,,,,,,,,,,,,,2345,1,2025-05-12_13h58.25.708,sm,2024.2.4,59.98616718970231,2025-05-12 13h58.36.899473 +0200,
15,0,15,,,,,,space,4.241425799999888,None,None,2,0.6226891999995132,0.23035880000043107,None,0,0,0,0,,,,,1,0,1,0,,,,,15,0,15,0,697.6450828000006,,,,,,,,,,,,,,,,,,,,,,,,,,,,,,,,,,,,,,,,,,,,,,,,,,,,,,,Zunge,4.7208,697.6299276999998,697.6304117999998,697.6305062000001,697.6450828000006,702.3782938000004,702.3623097,702.3653079000005,702.3782938000004,702.3782938000004,702.3782938000004,702.3782938000004,704.3618894000001,2,0.6226891999995132,0.23035880000043107,None,704.3786774999999,704.3786774999999,704.3786774999999,704.3786774999999,,,,,,,,,,,,,,,,,,,2345,1,2025-05-12_13h58.25.708,sm,2024.2.4,59.98616718970231,2025-05-12 13h58.36.899473 +0200,
16,0,16,,,,,,space,4.241425799999888,None,None,3,0.9243270000006305,0.27225349999935133,None,0,0,0,0,,,,,1,0,1,0,,,,,16,0,16,0,704.3786774999999,,,,,,,,,,,,,,,,,,,,,,,,,,,,,,,,,,,,,,,,,,,,,,,,,,,,,,,Asche,2.2385,704.3623084000001,704.3626521000006,704.3627397,704.3786774999999,706.6275812000003,706.6115330000002,706.6148225000006,706.6275812000003,706.6275812000003,706.6275812000003,706.6275812000003,708.6118018000006,3,0.9243270000006305,0.27225349999935133,None,,,,,,,,,,,,,,,,,,,,,,,2345,1,2025-05-12_13h58.25.708,sm,2024.2.4,59.98616718970231,2025-05-12 13h58.36.899473 +0200,
17,0,17,,,,,,space,4.241425799999888,None,None,2,1.777803999999378,None,None,0,0,0,0,,,,,1,0,1,0,,,,,17,0,17,0,708.6282359000006,,,,,,,,,,,,,,,,,,,,,,,,,,,,,,,,,,,,,,,,,,,,,,,,,,,,,,,Bart,2.4916,708.6122704999998,708.6128033000005,708.6129048000003,708.6282359000006,711.1276545999999,711.1118096999999,711.1146577,711.1276545999999,711.1276545999999,711.1276545999999,711.1276545999999,713.1118812000004,2,1.777803999999378,None,None,713.1279449000003,713.1279449000003,713.1279449000003,713.1279449000003,,,,,,,,,,,,,,,,,,,2345,1,2025-05-12_13h58.25.708,sm,2024.2.4,59.98616718970231,2025-05-12 13h58.36.899473 +0200,
18,0,18,,,,,,space,4.241425799999888,None,None,2,0.7680879999998069,0.3012088000004951,None,0,0,0,0,,,,,1,0,1,0,,,,,18,0,18,0,713.1279449000003,,,,,,,,,,,,,,,,,,,,,,,,,,,,,,,,,,,,,,,,,,,,,,,,,,,,,,,Riechen,2.1186,713.1123365000003,713.1128238000001,713.1129185,713.1279449000003,715.2610700000005,715.2452498000002,715.2497772000006,715.2610700000005,715.2610700000005,715.2610700000005,715.2610700000005,717.2603593000003,2,0.7680879999998069,0.3012088000004951,None,,,,,,,,,,,,,,,,,,,,,,,2345,1,2025-05-12_13h58.25.708,sm,2024.2.4,59.98616718970231,2025-05-12 13h58.36.899473 +0200,
19,0,19,,,,,,space,4.241425799999888,None,None,2,0.8580842999999732,0.26261040000008506,None,0,0,0,0,,,,,1,0,1,0,,,,,19,0,19,0,717.2769969000001,,,,,,,,,,,,,,,,,,,,,,,,,,,,,,,,,,,,,,,,,,,,,,,,,,,,,,,Wind,2.0934,717.2606230000001,717.2611542000004,717.2612122999999,717.2769969000001,719.3767821000001,719.3612475,719.3646454999998,719.3767821000001,719.3767821000001,719.3767821000001,719.3767821000001,721.3606163000004,2,0.8580842999999732,0.26261040000008506,None,721.3765358999999,721.3765358999999,721.3765358999999,721.3765358999999,,,,,,,,,,,,,,,,,,,2345,1,2025-05-12_13h58.25.708,sm,2024.2.4,59.98616718970231,2025-05-12 13h58.36.899473 +0200,
20,0,20,,,,,,space,4.241425799999888,None,None,2,1.0602745000005598,0.3009924999996656,None,0,0,0,0,,,,,1,0,1,0,,,,,20,0,20,0,721.3765358999999,,,,,,,,,,,,,,,,,,,,,,,,,,,,,,,,,,,,,,,,,,,,,,,,,,,,,,,Turnerin,3.9589,721.3608025000003,721.3611387000001,721.3611747000004,721.3765358999999,725.3431373000003,725.3267974999999,725.3283809000004,725.3431373000003,725.3431373000003,725.3431373000003,725.3431373000003,727.3269473,2,1.0602745000005598,0.3009924999996656,None,,,,,,,,,,,,,,,,,,,,,,,2345,1,2025-05-12_13h58.25.708,sm,2024.2.4,59.98616718970231,2025-05-12 13h58.36.899473 +0200,
21,0,21,,,,,,space,4.241425799999888,None,None,2,0.9652147999995577,0.3211369000000559,None,0,0,0,0,,,,,1,0,1,0,,,,,21,0,21,0,727.3432505000001,,,,,,,,,,,,,,,,,,,,,,,,,,,,,,,,,,,,,,,,,,,,,,,,,,,,,,,Zeitung,2.3362,727.3274179999999,727.3279399000003,727.3280431000003,727.3432505000001,729.6929494000005,729.6780994000001,729.6823936000001,729.6929494000005,729.6929494000005,729.6929494000005,729.6929494000005,731.6770075000004,2,0.9652147999995577,0.3211369000000559,None,731.6933489000003,731.6933489000003,731.6933489000003,731.6933489000003,,,,,,,,,,,,,,,,,,,2345,1,2025-05-12_13h58.25.708,sm,2024.2.4,59.98616718970231,2025-05-12 13h58.36.899473 +0200,
22,0,22,,,,,,space,4.241425799999888,None,None,2,1.120609499999773,0.23135739999997895,None,0,0,0,0,,,,,1,0,1,0,,,,,22,0,22,0,731.6933489000003,,,,,,,,,,,,,,,,,,,,,,,,,,,,,,,,,,,,,,,,,,,,,,,,,,,,,,,Weihnachten,2.3229,731.6774593,731.6779138000002,731.6780073,731.6933489000003,734.0264744000006,734.0105729000006,734.0145485000003,734.0264744000006,734.0264744000006,734.0264744000006,734.0264744000006,736.0110568,2,1.120609499999773,0.23135739999997895,None,736.0265694,736.0265694,736.0265694,736.0265694,,,,,,,,,,,,,,,,,,,2345,1,2025-05-12_13h58.25.708,sm,2024.2.4,59.98616718970231,2025-05-12 13h58.36.899473 +0200,
23,0,23,,,,,,space,4.241425799999888,None,None,2,0.9166224999999031,0.256319899999653,None,0,0,0,0,,,,,1,0,1,0,,,,,23,0,23,0,736.0265694,,,,,,,,,,,,,,,,,,,,,,,,,,,,,,,,,,,,,,,,,,,,,,,,,,,,,,,Baum,2.1961,736.0115126000001,736.0119614000005,736.0120569000001,736.0265694,738.2264867000004,738.2104927999999,738.2138419000003,738.2264867000004,738.2264867000004,738.2264867000004,738.2264867000004,740.2105523999999,2,0.9166224999999031,0.256319899999653,None,740.2255138,740.2255138,740.2255138,740.2255138,,,,,,,,,,,,,,,,,,,2345,1,2025-05-12_13h58.25.708,sm,2024.2.4,59.98616718970231,2025-05-12 13h58.36.899473 +0200,
24,0,24,,,,,,space,4.241425799999888,None,None,2,1.1522777000000133,0.2137818999999581,None,0,0,0,0,,,,,1,0,1,0,,,,,24,0,24,0,740.2255138,,,,,,,,,,,,,,,,,,,,,,,,,,,,,,,,,,,,,,,,,,,,,,,,,,,,,,,Lied,2.5519,740.2110499,740.2114709000007,740.2115319000004,740.2255138,742.7923162000006,742.7772089999999,742.7807876000006,742.7923162000006,742.7923162000006,742.7923162000006,742.7923162000006,744.7772252000004,2,1.1522777000000133,0.2137818999999581,None,744.7928951000004,744.7928951000004,744.7928951000004,744.7928951000004,,,,,,,,,,,,,,,,,,,2345,1,2025-05-12_13h58.25.708,sm,2024.2.4,59.98616718970231,2025-05-12 13h58.36.899473 +0200,
25,0,25,,,,,,space,4.241425799999888,None,None,3,0.764003600000251,0.24089529999946535,None,0,0,0,0,,,,,1,0,1,0,,,,,25,0,25,0,744.7928951000004,,,,,,,,,,,,,,,,,,,,,,,,,,,,,,,,,,,,,,,,,,,,,,,,,,,,,,,Zimmer,2.1697,744.7776915000004,744.7781579000002,744.7782519000002,744.7928951000004,746.9758126000006,746.9598425000004,746.9642201000006,746.9758126000006,746.9758126000006,746.9758126000006,746.9758126000006,748.9596685000006,3,0.764003600000251,0.24089529999946535,None,748.9752072000001,748.9752072000001,748.9752072000001,748.9752072000001,,,,,,,,,,,,,,,,,,,2345,1,2025-05-12_13h58.25.708,sm,2024.2.4,59.98616718970231,2025-05-12 13h58.36.899473 +0200,
26,0,26,,,,,,space,4.241425799999888,None,None,3,1.4497685999995156,0.29595880000033503,None,0,0,0,0,,,,,1,0,1,0,,,,,26,0,26,0,748.9752072000001,,,,,,,,,,,,,,,,,,,,,,,,,,,,,,,,,,,,,,,,,,,,,,,,,,,,,,,Essen,2.3419,748.9601309999998,748.9605140000003,748.9606106000001,748.9752072000001,751.3253902000006,751.3095435000005,751.3128180000003,751.3253902000006,751.3253902000006,751.3253902000006,751.3253902000006,753.3091345000003,3,1.4497685999995156,0.29595880000033503,None,753.3252953000001,753.3252953000001,753.3252953000001,753.3252953000001,,,,,,,,,,,,,,,,,,,2345,1,2025-05-12_13h58.25.708,sm,2024.2.4,59.98616718970231,2025-05-12 13h58.36.899473 +0200,
27,0,27,,,,,,space,4.241425799999888,None,None,2,1.3217528999994101,0.29318530000000464,None,0,0,0,0,,,,,1,0,1,0,,,,,27,0,27,0,753.3252953000001,,,,,,,,,,,,,,,,,,,,,,,,,,,,,,,,,,,,,,,,,,,,,,,,,,,,,,,Frieden,3.6615,753.3093978000006,753.3097422999999,753.3097944000001,753.3252953000001,756.9914236000004,756.9751303000003,756.9766608999998,756.9914236000004,756.9914236000004,756.9914236000004,756.9914236000004,758.9753906000005,2,1.3217528999994101,0.29318530000000464,None,,,,,,,,,,,,,,,,,,,,,,,2345,1,2025-05-12_13h58.25.708,sm,2024.2.4,59.98616718970231,2025-05-12 13h58.36.899473 +0200,
28,0,28,,,,,,space,4.241425799999888,None,None,2,1.9326756999998906,None,None,0,0,0,0,,,,,1,0,1,0,,,,,28,0,28,0,758.9919770000006,,,,,,,,,,,,,,,,,,,,,,,,,,,,,,,,,,,,,,,,,,,,,,,,,,,,,,,Garten,2.1743,758.9758462,758.9763571000003,758.9764579000002,758.9919770000006,761.1745531000006,761.1588529999999,761.1629504000002,761.1745531000006,761.1745531000006,761.1745531000006,761.1745531000006,763.1596407000006,2,1.9326756999998906,None,None,763.1750656000004,763.1750656000004,763.1750656000004,763.1750656000004,,,,,,,,,,,,,,,,,,,2345,1,2025-05-12_13h58.25.708,sm,2024.2.4,59.98616718970231,2025-05-12 13h58.36.899473 +0200,
29,0,29,,,,,,space,4.241425799999888,None,None,2,0.8171094999997877,0.2103830999994898,None,0,0,0,0,,,,,1,0,1,0,,,,,29,0,29,0,763.1750656000004,,,,,,,,,,,,,,,,,,,,,,,,,,,,,,,,,,,,,,,,,,,,,,,,,,,,,,,Professor,2.0031,763.1600988,763.1605032000007,763.1605960000006,763.1750656000004,765.1913313000005,765.1763393000001,765.1795209000002,765.1913313000005,765.1913313000005,765.1913313000005,765.1913313000005,767.1756782000002,2,0.8171094999997877,0.2103830999994898,None,767.1917744000002,767.1917744000002,767.1917744000002,767.1917744000002,,,,,,,,,,,,,,,,,,,2345,1,2025-05-12_13h58.25.708,sm,2024.2.4,59.98616718970231,2025-05-12 13h58.36.899473 +0200,
30,0,30,,,,,,space,4.241425799999888,None,None,2,0.7423471999991307,0.2164293000005273,None,0,0,0,0,,,,,1,0,1,0,,,,,30,0,30,0,767.1917744000002,,,,,,,,,,,,,,,,,,,,,,,,,,,,,,,,,,,,,,,,,,,,,,,,,,,,,,,Fledermaus,2.7584,767.1761377000003,767.1764645000003,767.1765572000004,767.1917744000002,769.9576407000004,769.9412493999998,769.9431504000004,769.9576407000004,769.9576407000004,769.9576407000004,769.9576407000004,771.941855,2,0.7423471999991307,0.2164293000005273,None,,,,,,,,,,,,,,,,,,,,,,,2345,1,2025-05-12_13h58.25.708,sm,2024.2.4,59.98616718970231,2025-05-12 13h58.36.899473 +0200,
31,0,31,,,,,,space,4.241425799999888,None,None,3,0.9713157000005594,0.47380929999962973,None,0,0,0,0,,,,,1,0,1,0,,,,,31,0,31,0,771.9579666999998,,,,,,,,,,,,,,,,,,,,,,,,,,,,,,,,,,,,,,,,,,,,,,,,,,,,,,,Feld,2.0842,771.9422937999998,771.9428704000002,771.9429719999998,771.9579666999998,774.0571326999998,774.0415197000002,774.0439569,774.0571326999998,774.0571326999998,774.0571326999998,774.0571326999998,776.0419412000001,3,0.9713157000005594,0.47380929999962973,None,776.0577436000003,776.0577436000003,776.0577436000003,776.0577436000003,,,,,,,,,,,,,,,,,,,2345,1,2025-05-12_13h58.25.708,sm,2024.2.4,59.98616718970231,2025-05-12 13h58.36.899473 +0200,
32,0,32,,,,,,space,4.241425799999888,None,None,2,0.7180443999995987,0.3122556000007535,None,0,0,0,0,,,,,1,0,1,0,,,,,32,0,32,0,776.0577436000003,,,,,,,,,,,,,,,,,,,,,,,,,,,,,,,,,,,,,,,,,,,,,,,,,,,,,,,Fuß,3.2825,776.0424008,776.0428521000003,776.0429450000001,776.0577436000003,779.3399657,779.3239309,779.3269753000004,779.3399657,779.3399657,779.3399657,779.3399657,781.3241549000004,2,0.7180443999995987,0.3122556000007535,None,,,,,,,,,,,,,,,,,,,,,,,2345,1,2025-05-12_13h58.25.708,sm,2024.2.4,59.98616718970231,2025-05-12 13h58.36.899473 +0200,
33,0,33,,,,,,space,4.241425799999888,None,None,3,1.09186150000005,0.26930300000003626,None,0,0,0,0,,,,,1,0,1,0,,,,,33,0,33,0,781.3411473000006,,,,,,,,,,,,,,,,,,,,,,,,,,,,,,,,,,,,,,,,,,,,,,,,,,,,,,,Shampoo,2.2074,781.3246816999999,781.3252608000003,781.3253629999999,781.3411473000006,783.5576175000006,783.5415911,783.5451555,783.5576175000006,783.5576175000006,783.5576175000006,783.5576175000006,785.5415792000003,3,1.09186150000005,0.26930300000003626,None,785.5572185000001,785.5572185000001,785.5572185000001,785.5572185000001,,,,,,,,,,,,,,,,,,,2345,1,2025-05-12_13h58.25.708,sm,2024.2.4,59.98616718970231,2025-05-12 13h58.36.899473 +0200,
34,0,34,,,,,,space,4.241425799999888,None,None,3,1.515312200000153,0.28124359999947046,None,0,0,0,0,,,,,1,0,1,0,,,,,34,0,34,0,785.5572185000001,,,,,,,,,,,,,,,,,,,,,,,,,,,,,,,,,,,,,,,,,,,,,,,,,,,,,,,Gel,2.3006,785.5420340000001,785.5425419000003,785.5426692000001,785.5572185000001,787.8735563,787.8561654000005,787.8575380000002,787.8735563,787.8735563,787.8735563,787.8735563,789.8566276000001,3,1.515312200000153,0.28124359999947046,None,789.8734087000003,789.8734087000003,789.8734087000003,789.8734087000003,,,,,,,,,,,,,,,,,,,2345,1,2025-05-12_13h58.25.708,sm,2024.2.4,59.98616718970231,2025-05-12 13h58.36.899473 +0200,
35,0,35,,,,,,space,4.241425799999888,None,None,3,1.449078899999222,None,None,0,0,0,0,,,,,1,0,1,0,,,,,35,0,35,0,789.8734087000003,,,,,,,,,,,,,,,,,,,,,,,,,,,,,,,,,,,,,,,,,,,,,,,,,,,,,,,Vergangenheit,3.6438,789.8569434999999,789.8575099999998,789.8576192,789.8734087000003,793.5228612999999,793.5067654000004,793.5106218999999,793.5228612999999,793.5228612999999,793.5228612999999,793.5228612999999,795.5071296000006,3,1.449078899999222,None,None,795.5229067,795.5229067,795.5229067,795.5229067,,,,,,,,,,,,,,,,,,,2345,1,2025-05-12_13h58.25.708,sm,2024.2.4,59.98616718970231,2025-05-12 13h58.36.899473 +0200,
36,0,36,,,,,,space,4.241425799999888,None,None,3,0.9249927999999272,0.27329980000013165,None,0,0,0,0,,,,,1,0,1,0,,,,,36,0,36,0,795.5229067,,,,,,,,,,,,,,,,,,,,,,,,,,,,,,,,,,,,,,,,,,,,,,,,,,,,,,,Tal,3.0127,795.5076475000005,795.5081448999999,795.5082449000001,795.5229067,798.539041,798.5237016000001,798.5269410000001,798.539041,798.539041,798.539041,798.539041,800.5230840000004,3,0.9249927999999272,0.27329980000013165,None,800.5402125,800.5402125,800.5402125,800.5402125,,,,,,,,,,,,,,,,,,,2345,1,2025-05-12_13h58.25.708,sm,2024.2.4,59.98616718970231,2025-05-12 13h58.36.899473 +0200,
37,0,37,,,,,,space,4.241425799999888,None,None,3,0.9790158000005249,0.3021294999998645,None,0,0,0,0,,,,,1,0,1,0,,,,,37,0,37,0,800.5402125,,,,,,,,,,,,,,,,,,,,,,,,,,,,,,,,,,,,,,,,,,,,,,,,,,,,,,,Diamant,3.0547,800.5233064000004,800.5236494000001,800.5236931999998,800.5402125,803.6054841000005,803.5900265999999,803.5932172000003,803.6054841000005,803.6054841000005,803.6054841000005,803.6054841000005,805.5899496000002,3,0.9790158000005249,0.3021294999998645,None,805.6057197,805.6057197,805.6057197,805.6057197,,,,,,,,,,,,,,,,,,,2345,1,2025-05-12_13h58.25.708,sm,2024.2.4,59.98616718970231,2025-05-12 13h58.36.899473 +0200,
38,0,38,,,,,,space,4.241425799999888,None,None,3,0.8940541000001758,0.2871758999999656,None,0,0,0,0,,,,,1,0,1,0,,,,,38,0,38,0,805.6057197,,,,,,,,,,,,,,,,,,,,,,,,,,,,,,,,,,,,,,,,,,,,,,,,,,,,,,,Zucker,2.8901,805.5904827000004,805.5908239999999,805.5909195000004,805.6057197,808.5063921999999,808.4901371000005,808.4937712000001,808.5063921999999,808.5063921999999,808.5063921999999,808.5063921999999,810.5053947000006,3,0.8940541000001758,0.2871758999999656,None,,,,,,,,,,,,,,,,,,,,,,,2345,1,2025-05-12_13h58.25.708,sm,2024.2.4,59.98616718970231,2025-05-12 13h58.36.899473 +0200,
39,0,39,,,,,,space,4.241425799999888,None,None,3,1.6241249000004245,0.29626250000001164,None,0,0,0,0,,,,,1,0,1,0,,,,,39,0,39,0,810.5221724000003,,,,,,,,,,,,,,,,,,,,,,,,,,,,,,,,,,,,,,,,,,,,,,,,,,,,,,,Postkarte,2.6446,810.505658,810.5062581000002,810.5063301,810.5221724000003,813.1717913000002,813.1567074000004,813.1632361000002,813.1717913000002,813.1717913000002,813.1717913000002,813.1717913000002,815.1565023000003,3,1.6241249000004245,0.29626250000001164,None,815.1717656999999,815.1717656999999,815.1717656999999,815.1717656999999,,,,,,,,,,,,,,,,,,,2345,1,2025-05-12_13h58.25.708,sm,2024.2.4,59.98616718970231,2025-05-12 13h58.36.899473 +0200,
40,0,40,,,,,,space,4.241425799999888,None,None,2,0.9208576000000903,0.22538949999943725,None,0,0,0,0,,,,,1,0,1,0,,,,,40,0,40,0,815.1717656999999,,,,,,,,,,,,,,,,,,,,,,,,,,,,,,,,,,,,,,,,,,,,,,,,,,,,,,,Erinnerung,2.4521,815.1569599000004,815.1574298000005,815.1575229,815.1717656999999,817.6390631000004,817.6225406000003,817.6262360000001,817.6390631000004,817.6390631000004,817.6390631000004,817.6390631000004,819.6225998999998,2,0.9208576000000903,0.22538949999943725,None,819.6386810000004,819.6386810000004,819.6386810000004,819.6386810000004,,,,,,,,,,,,,,,,,,,2345,1,2025-05-12_13h58.25.708,sm,2024.2.4,59.98616718970231,2025-05-12 13h58.36.899473 +0200,
41,0,41,,,,,,space,4.241425799999888,None,None,3,0.6722841999999218,0.22938859999976557,None,0,0,0,0,,,,,1,0,1,0,,,,,41,0,41,0,819.6386810000004,,,,,,,,,,,,,,,,,,,,,,,,,,,,,,,,,,,,,,,,,,,,,,,,,,,,,,,Sand,2.1413,819.6231137000004,819.6235831000004,819.6236763000006,819.6386810000004,821.7882209999998,821.7724601,821.7756638999999,821.7882209999998,821.7882209999998,821.7882209999998,821.7882209999998,823.7729368999999,3,0.6722841999999218,0.22938859999976557,None,823.7883945000003,823.7883945000003,823.7883945000003,823.7883945000003,,,,,,,,,,,,,,,,,,,2345,1,2025-05-12_13h58.25.708,sm,2024.2.4,59.98616718970231,2025-05-12 13h58.36.899473 +0200,
42,0,42,,,,,,space,4.241425799999888,None,None,3,1.0352621000001818,0.23131479999938165,None,0,0,0,0,,,,,1,0,1,0,,,,,42,0,42,0,823.7883945000003,,,,,,,,,,,,,,,,,,,,,,,,,,,,,,,,,,,,,,,,,,,,,,,,,,,,,,,Nummer,4.4429,823.7733957999999,823.7738988000001,823.7739944000004,823.7883945000003,828.2379864000004,828.2223000000004,828.2262017000003,828.2379864000004,828.2379864000004,828.2379864000004,828.2379864000004,830.2211606999999,3,1.0352621000001818,0.23131479999938165,None,830.2376121000007,830.2376121000007,830.2376121000007,830.2376121000007,,,,,,,,,,,,,,,,,,,2345,1,2025-05-12_13h58.25.708,sm,2024.2.4,59.98616718970231,2025-05-12 13h58.36.899473 +0200,
43,0,43,,,,,,space,4.241425799999888,None,None,2,1.1400143000000753,0.25035339999976713,None,0,0,0,0,,,,,1,0,1,0,,,,,43,0,43,0,830.2376121000007,,,,,,,,,,,,,,,,,,,,,,,,,,,,,,,,,,,,,,,,,,,,,,,,,,,,,,,Publikum,2.2129,830.2215229000003,830.2218442000003,830.2219280999998,830.2376121000007,832.4536631000001,832.4390394000002,832.4419672000004,832.4536631000001,832.4536631000001,832.4536631000001,832.4536631000001,834.4386758999999,2,1.1400143000000753,0.25035339999976713,None,834.4544488000001,834.4544488000001,834.4544488000001,834.4544488000001,,,,,,,,,,,,,,,,,,,2345,1,2025-05-12_13h58.25.708,sm,2024.2.4,59.98616718970231,2025-05-12 13h58.36.899473 +0200,
44,0,44,,,,,,space,4.241425799999888,None,None,3,1.1665324000005057,0.3480520000002798,None,0,0,0,0,,,,,1,0,1,0,,,,,44,0,44,0,834.4544488000001,,,,,,,,,,,,,,,,,,,,,,,,,,,,,,,,,,,,,,,,,,,,,,,,,,,,,,,Arbeit,3.6005,834.4391353000001,834.4394755000003,834.4395700000005,834.4544488000001,838.0700342999999,838.0548706999998,838.0591234000003,838.0700342999999,838.0700342999999,838.0700342999999,838.0700342999999,840.0551521000007,3,1.1665324000005057,0.3480520000002798,None,840.0709020000004,840.0709020000004,840.0709020000004,840.0709020000004,,,,,,,,,,,,,,,,,,,2345,1,2025-05-12_13h58.25.708,sm,2024.2.4,59.98616718970231,2025-05-12 13h58.36.899473 +0200,
45,0,45,,,,,,space,4.241425799999888,None,None,3,0.8220244000003731,0.24229879999984405,None,0,0,0,0,,,,,1,0,1,0,,,,,45,0,45,0,840.0709020000004,,,,,,,,,,,,,,,,,,,,,,,,,,,,,,,,,,,,,,,,,,,,,,,,,,,,,,,Raum,2.7357,840.0556047999999,840.0561484999998,840.0562405999999,840.0709020000004,842.8206535999998,842.8054562000007,842.8087575999998,842.8206535999998,842.8206535999998,842.8206535999998,842.8206535999998,844.8049074999999,3,0.8220244000003731,0.24229879999984405,None,844.8205484,844.8205484,844.8205484,844.8205484,,,,,,,,,,,,,,,,,,,2345,1,2025-05-12_13h58.25.708,sm,2024.2.4,59.98616718970231,2025-05-12 13h58.36.899473 +0200,
46,0,46,,,,,,space,4.241425799999888,None,None,3,0.9562329000000318,0.38510410000071715,None,0,0,0,0,,,,,1,0,1,0,,,,,46,0,46,0,844.8205484,,,,,,,,,,,,,,,,,,,,,,,,,,,,,,,,,,,,,,,,,,,,,,,,,,,,,,,Ball,2.8863,844.8053590999998,844.8058101000006,844.8059047000006,844.8205484,847.7199790000004,847.7046088000006,847.7086665000006,847.7199790000004,847.7199790000004,847.7199790000004,847.7199790000004,849.704369,3,0.9562329000000318,0.38510410000071715,None,849.7202998000002,849.7202998000002,849.7202998000002,849.7202998000002,,,,,,,,,,,,,,,,,,,2345,1,2025-05-12_13h58.25.708,sm,2024.2.4,59.98616718970231,2025-05-12 13h58.36.899473 +0200,
47,0,47,,,,,,space,4.241425799999888,None,None,2,1.0078131999998732,0.4009328000001915,None,0,0,0,0,,,,,1,0,1,0,,,,,47,0,47,0,849.7202998000002,,,,,,,,,,,,,,,,,,,,,,,,,,,,,,,,,,,,,,,,,,,,,,,,,,,,,,,Gras,2.9061,849.7047524999998,849.7051791000004,849.7052569000007,849.7202998000002,852.6363212000006,852.6203142000004,852.6236614,852.6363212000006,852.6363212000006,852.6363212000006,852.6363212000006,854.6201658999998,2,1.0078131999998732,0.4009328000001915,None,854.6362430999998,854.6362430999998,854.6362430999998,854.6362430999998,,,,,,,,,,,,,,,,,,,2345,1,2025-05-12_13h58.25.708,sm,2024.2.4,59.98616718970231,2025-05-12 13h58.36.899473 +0200,
48,0,48,,,,,,space,4.241425799999888,None,None,2,1.2394727999999304,0.3171738999999434,None,0,0,0,0,,,,,1,0,1,0,,,,,48,0,48,0,854.6362430999998,,,,,,,,,,,,,,,,,,,,,,,,,,,,,,,,,,,,,,,,,,,,,,,,,,,,,,,Scheidung,2.3916,854.6206250000005,854.6211229,854.6212205000002,854.6362430999998,857.0361209000002,857.0205995000006,857.0249152000006,857.0361209000002,857.0361209000002,857.0361209000002,857.0361209000002,859.0196277000005,2,1.2394727999999304,0.3171738999999434,None,859.0360893000006,859.0360893000006,859.0360893000006,859.0360893000006,,,,,,,,,,,,,,,,,,,2345,1,2025-05-12_13h58.25.708,sm,2024.2.4,59.98616718970231,2025-05-12 13h58.36.899473 +0200,
49,0,49,,,,,,space,4.241425799999888,None,None,2,1.5678266999993866,0.21740829999998823,None,0,0,0,0,,,,,1,0,1,0,,,,,49,0,49,0,859.0360893000006,,,,,,,,,,,,,,,,,,,,,,,,,,,,,,,,,,,,,,,,,,,,,,,,,,,,,,,Agent,3.039,859.0198165000002,859.0200779000006,859.0201145000001,859.0360893000006,862.0855709000007,862.0700281999998,862.0741518000004,862.0855709000007,862.0855709000007,862.0855709000007,862.0855709000007,864.0704661,2,1.5678266999993866,0.21740829999998823,None,864.0856631000006,864.0856631000006,864.0856631000006,864.0856631000006,,,,,,,,,,,,,,,,,,,2345,1,2025-05-12_13h58.25.708,sm,2024.2.4,59.98616718970231,2025-05-12 13h58.36.899473 +0200,
50,0,50,,,,,,space,4.241425799999888,None,None,3,0.9159313999998631,0.29819769999994605,None,0,0,0,0,,,,,1,0,1,0,,,,,50,0,50,0,864.0856631000006,,,,,,,,,,,,,,,,,,,,,,,,,,,,,,,,,,,,,,,,,,,,,,,,,,,,,,,Zigarette,2.4137,864.0709938,864.0713319000006,864.0714275,864.0856631000006,866.5023160000001,866.4869722000003,866.4911315999998,866.5023160000001,866.5023160000001,866.5023160000001,866.5023160000001,868.4866357000001,3,0.9159313999998631,0.29819769999994605,None,868.5025670000005,868.5025670000005,868.5025670000005,868.5025670000005,,,,,,,,,,,,,,,,,,,2345,1,2025-05-12_13h58.25.708,sm,2024.2.4,59.98616718970231,2025-05-12 13h58.36.899473 +0200,
51,0,51,,,,,,space,4.241425799999888,None,None,2,1.4602512000001298,0.2543275999996695,None,0,0,0,0,,,,,1,0,1,0,,,,,51,0,51,0,868.5025670000005,,,,,,,,,,,,,,,,,,,,,,,,,,,,,,,,,,,,,,,,,,,,,,,,,,,,,,,Schule,4.5959,868.4871487,868.4876030000005,868.4876973,868.5025670000005,873.1018965000003,873.0865869999998,873.0907688000007,873.1018965000003,873.1018965000003,873.1018965000003,873.1018965000003,875.0858260000005,2,1.4602512000001298,0.2543275999996695,None,875.1017505,875.1017505,875.1017505,875.1017505,,,,,,,,,,,,,,,,,,,2345,1,2025-05-12_13h58.25.708,sm,2024.2.4,59.98616718970231,2025-05-12 13h58.36.899473 +0200,
52,0,52,,,,,,space,4.241425799999888,None,None,3,1.3181696000001466,0.2344640999999683,None,0,0,0,0,,,,,1,0,1,0,,,,,52,0,52,0,875.1017505,,,,,,,,,,,,,,,,,,,,,,,,,,,,,,,,,,,,,,,,,,,,,,,,,,,,,,,Himmel,3.4445,875.0862929000004,875.0866319000006,875.0867259000006,875.1017505,878.5516846,878.5362765999998,878.5410600000005,878.5516846,878.5516846,878.5516846,878.5516846,880.5362697,3,1.3181696000001466,0.2344640999999683,None,880.5519568999998,880.5519568999998,880.5519568999998,880.5519568999998,,,,,,,,,,,,,,,,,,,2345,1,2025-05-12_13h58.25.708,sm,2024.2.4,59.98616718970231,2025-05-12 13h58.36.899473 +0200,
53,0,53,,,,,,space,4.241425799999888,None,None,2,1.1334804000007352,0.23049649999938993,None,0,0,0,0,,,,,1,0,1,0,,,,,53,0,53,0,880.5519568999998,,,,,,,,,,,,,,,,,,,,,,,,,,,,,,,,,,,,,,,,,,,,,,,,,,,,,,,Trinken,2.7992,880.5367374000007,880.5371972000003,880.5372914999998,880.5519568999998,883.3511151000002,883.3361054000006,883.3400064000007,883.3511151000002,883.3511151000002,883.3511151000002,883.3511151000002,885.3353714000004,2,1.1334804000007352,0.23049649999938993,None,885.3514509000006,885.3514509000006,885.3514509000006,885.3514509000006,,,,,,,,,,,,,,,,,,,2345,1,2025-05-12_13h58.25.708,sm,2024.2.4,59.98616718970231,2025-05-12 13h58.36.899473 +0200,
54,0,54,,,,,,space,4.241425799999888,None,None,2,1.1639774000004763,0.32618149999962043,None,0,0,0,0,,,,,1,0,1,0,,,,,54,0,54,0,885.3514509000006,,,,,,,,,,,,,,,,,,,,,,,,,,,,,,,,,,,,,,,,,,,,,,,,,,,,,,,Moor,2.3599,885.3359362000001,885.3364066000004,885.3365033999999,885.3514509000006,887.7178074000003,887.7020079000004,887.7051594000004,887.7178074000003,887.7178074000003,887.7178074000003,887.7178074000003,889.7018192000005,2,1.1639774000004763,0.32618149999962043,None,889.7175715000003,889.7175715000003,889.7175715000003,889.7175715000003,,,,,,,,,,,,,,,,,,,2345,1,2025-05-12_13h58.25.708,sm,2024.2.4,59.98616718970231,2025-05-12 13h58.36.899473 +0200,
55,0,55,,,,,,space,4.241425799999888,None,None,None,,,None,0,0,0,0,,,,,1,0,1,0,,,,,55,0,55,0,889.7175715000003,,,,,,,,,,,,,,,,,,,,,,,,,,,,,,,,,,,,,,,,,,,,,,,,,,,,,,,Bleistift,4.3424,889.7022803,889.7027311000002,889.702824,889.7175715000003,894.0677343000007,894.0518788999998,894.055859,894.0677343000007,894.0677343000007,894.0677343000007,894.0677343000007,896.0519831000001,None,,,None,896.0676426999999,896.0676426999999,896.0676426999999,896.0676426999999,,,,,,,,,,,,,,,,,,,2345,1,2025-05-12_13h58.25.708,sm,2024.2.4,59.98616718970231,2025-05-12 13h58.36.899473 +0200,
56,0,56,,,,,,space,4.241425799999888,None,None,3,1.2627504000001863,0.25224919999982376,None,0,0,0,0,,,,,1,0,1,0,,,,,56,0,56,0,896.0676426999999,,,,,,,,,,,,,,,,,,,,,,,,,,,,,,,,,,,,,,,,,,,,,,,,,,,,,,,Ecke,2.9832,896.0524122000006,896.0528561000001,896.0529498000005,896.0676426999999,899.0506046,899.0347906000006,899.0374154000001,899.0506046,899.0506046,899.0506046,899.0506046,901.0351930000006,3,1.2627504000001863,0.25224919999982376,None,901.0505208000004,901.0505208000004,901.0505208000004,901.0505208000004,,,,,,,,,,,,,,,,,,,2345,1,2025-05-12_13h58.25.708,sm,2024.2.4,59.98616718970231,2025-05-12 13h58.36.899473 +0200,
57,0,57,,,,,,space,4.241425799999888,None,None,3,1.2861327999999048,0.24536090000037802,None,0,0,0,0,,,,,1,0,1,0,,,,,57,0,57,0,901.0505208000004,,,,,,,,,,,,,,,,,,,,,,,,,,,,,,,,,,,,,,,,,,,,,,,,,,,,,,,Sonntag,2.021,901.0356182000005,901.0360654000006,901.0361541000002,901.0505208000004,903.0831778000002,903.0674229000006,903.0708187999999,903.0831778000002,903.0831778000002,903.0831778000002,903.0831778000002,905.0675133000004,3,1.2861327999999048,0.24536090000037802,None,905.0836094000006,905.0836094000006,905.0836094000006,905.0836094000006,,,,,,,,,,,,,,,,,,,2345,1,2025-05-12_13h58.25.708,sm,2024.2.4,59.98616718970231,2025-05-12 13h58.36.899473 +0200,
58,0,58,,,,,,space,4.241425799999888,None,None,2,0.8977384999998321,0.1994580999999016,None,0,0,0,0,,,,,1,0,1,0,,,,,58,0,58,0,905.0836094000006,,,,,,,,,,,,,,,,,,,,,,,,,,,,,,,,,,,,,,,,,,,,,,,,,,,,,,,Känguru,2.3861,905.0679659000007,905.0683542000006,905.0684511,905.0836094000006,907.4829661000003,907.4679382000004,907.4721734000004,907.4829661000003,907.4829661000003,907.4829661000003,907.4829661000003,909.4676887000005,2,0.8977384999998321,0.1994580999999016,None,909.4835174999998,909.4835174999998,909.4835174999998,909.4835174999998,,,,,,,,,,,,,,,,,,,2345,1,2025-05-12_13h58.25.708,sm,2024.2.4,59.98616718970231,2025-05-12 13h58.36.899473 +0200,
59,0,59,,,,,,space,4.241425799999888,None,None,3,1.0044981999999436,0.21839180000006309,None,0,0,0,0,,,,,1,0,1,0,,,,,59,0,59,0,909.4835174999998,,,,,,,,,,,,,,,,,,,,,,,,,,,,,,,,,,,,,,,,,,,,,,,,,,,,,,,Chips,4.3942,909.4681500000006,909.4685970999999,909.4686902000003,909.4835174999998,913.8829262999998,913.8672670000005,913.8737015000006,913.8829262999998,913.8829262999998,913.8829262999998,913.8829262999998,915.8676513999999,3,1.0044981999999436,0.21839180000006309,None,915.8827736000003,915.8827736000003,915.8827736000003,915.8827736000003,,,,,,,,,,,,,,,,,,,2345,1,2025-05-12_13h58.25.708,sm,2024.2.4,59.98616718970231,2025-05-12 13h58.36.899473 +0200,
60,0,60,,,,,,space,4.241425799999888,None,None,2,0.9009796999998798,0.22930489999998827,None,0,0,0,0,,,,,1,0,1,0,,,,,60,0,60,0,915.8827736000003,,,,,,,,,,,,,,,,,,,,,,,,,,,,,,,,,,,,,,,,,,,,,,,,,,,,,,,Fisch,3.6723,915.8681127999998,915.8684852000006,915.8685826000001,915.8827736000003,919.5663818000003,919.5503614999998,919.5540060000003,919.5663818000003,919.5663818000003,919.5663818000003,919.5663818000003,921.5499753000004,2,0.9009796999998798,0.22930489999998827,None,921.5664968000001,921.5664968000001,921.5664968000001,921.5664968000001,,,,,,,,,,,,,,,,,,,2345,1,2025-05-12_13h58.25.708,sm,2024.2.4,59.98616718970231,2025-05-12 13h58.36.899473 +0200,
61,0,61,,,,,,space,4.241425799999888,None,None,3,1.1972804999995788,0.30226279999988037,None,0,0,0,0,,,,,1,0,1,0,,,,,61,0,61,0,921.5664968000001,,,,,,,,,,,,,,,,,,,,,,,,,,,,,,,,,,,,,,,,,,,,,,,,,,,,,,,Winter,3.6297,921.5503134999999,921.5506931,921.5507668999999,921.5664968000001,925.1991093000006,925.1839252999998,925.1876871000004,925.1991093000006,925.1991093000006,925.1991093000006,925.1991093000006,927.1826279000006,3,1.1972804999995788,0.30226279999988037,None,927.1990003999999,927.1990003999999,927.1990003999999,927.1990003999999,,,,,,,,,,,,,,,,,,,2345,1,2025-05-12_13h58.25.708,sm,2024.2.4,59.98616718970231,2025-05-12 13h58.36.899473 +0200,
62,0,62,,,,,,space,4.241425799999888,None,None,3,0.8487186000002112,0.27224349999960396,None,0,0,0,0,,,,,1,0,1,0,,,,,62,0,62,0,927.1990003999999,,,,,,,,,,,,,,,,,,,,,,,,,,,,,,,,,,,,,,,,,,,,,,,,,,,,,,,Kappe,2.6312,927.1832154000003,927.1836670000002,927.1837810000006,927.1990003999999,929.8322858000001,929.8165966000006,929.8198010000006,929.8322858000001,929.8322858000001,929.8322858000001,929.8322858000001,931.8162706000003,3,0.8487186000002112,0.27224349999960396,None,931.8321126999999,931.8321126999999,931.8321126999999,931.8321126999999,,,,,,,,,,,,,,,,,,,2345,1,2025-05-12_13h58.25.708,sm,2024.2.4,59.98616718970231,2025-05-12 13h58.36.899473 +0200,
63,0,63,,,,,,space,4.241425799999888,None,None,3,0.9853682000002664,0.27214469999944413,None,0,0,0,0,,,,,1,0,1,0,,,,,63,0,63,0,931.8321126999999,,,,,,,,,,,,,,,,,,,,,,,,,,,,,,,,,,,,,,,,,,,,,,,,,,,,,,,Zug,2.9443,931.8167360000007,931.8171956000006,931.8172912,931.8321126999999,934.7813125000002,934.7653313000001,934.7666993000003,934.7813125000002,934.7813125000002,934.7813125000002,934.7813125000002,936.7658829000002,3,0.9853682000002664,0.27214469999944413,None,936.7816184000003,936.7816184000003,936.7816184000003,936.7816184000003,,,,,,,,,,,,,,,,,,,2345,1,2025-05-12_13h58.25.708,sm,2024.2.4,59.98616718970231,2025-05-12 13h58.36.899473 +0200,
64,0,64,,,,,,space,4.241425799999888,None,None,3,0.8432876000006218,0.44200739999996586,None,0,0,0,0,,,,,1,0,1,0,,,,,64,0,64,0,936.7816184000003,,,,,,,,,,,,,,,,,,,,,,,,,,,,,,,,,,,,,,,,,,,,,,,,,,,,,,,Tür,2.8516,936.7663805000002,936.7669470999999,936.7670440000002,936.7816184000003,939.6475561000007,939.6318295000001,939.6331673000004,939.6475561000007,939.6475561000007,939.6475561000007,939.6475561000007,941.6323929,3,0.8432876000006218,0.44200739999996586,None,941.6479436999998,941.6479436999998,941.6479436999998,941.6479436999998,,,,,,,,,,,,,,,,,,,2345,1,2025-05-12_13h58.25.708,sm,2024.2.4,59.98616718970231,2025-05-12 13h58.36.899473 +0200,
65,0,65,,,,,,space,4.241425799999888,None,None,3,1.5639368000001923,0.27328789999955916,None,0,0,0,0,,,,,1,0,1,0,,,,,65,0,65,0,941.6479436999998,,,,,,,,,,,,,,,,,,,,,,,,,,,,,,,,,,,,,,,,,,,,,,,,,,,,,,,Wahrheit,2.9109,941.6328543,941.6333450000002,941.6334412000006,941.6479436999998,944.5648219000004,944.5494249000003,944.5528929000002,944.5648219000004,944.5648219000004,944.5648219000004,944.5648219000004,946.5483051000001,3,1.5639368000001923,0.27328789999955916,None,946.5645217000001,946.5645217000001,946.5645217000001,946.5645217000001,,,,,,,,,,,,,,,,,,,2345,1,2025-05-12_13h58.25.708,sm,2024.2.4,59.98616718970231,2025-05-12 13h58.36.899473 +0200,
66,0,66,,,,,,space,4.241425799999888,None,None,3,1.2482150999994701,0.26929569999992964,None,0,0,0,0,,,,,1,0,1,0,,,,,66,0,66,0,946.5645217000001,,,,,,,,,,,,,,,,,,,,,,,,,,,,,,,,,,,,,,,,,,,,,,,,,,,,,,,Kissen,2.3843,946.5488172000005,946.5491535000001,946.5492510000004,946.5645217000001,948.9478012999998,948.9322329000006,948.9362962000005,948.9478012999998,948.9478012999998,948.9478012999998,948.9478012999998,950.9314420000001,3,1.2482150999994701,0.26929569999992964,None,950.9476499000002,950.9476499000002,950.9476499000002,950.9476499000002,,,,,,,,,,,,,,,,,,,2345,1,2025-05-12_13h58.25.708,sm,2024.2.4,59.98616718970231,2025-05-12 13h58.36.899473 +0200,
67,0,67,,,,,,space,4.241425799999888,None,None,2,1.2832385000001523,0.23826199999984965,None,0,0,0,0,,,,,1,0,1,0,,,,,67,0,67,0,950.9476499000002,,,,,,,,,,,,,,,,,,,,,,,,,,,,,,,,,,,,,,,,,,,,,,,,,,,,,,,Safari,3.6564,950.9318661000007,950.9321860999999,950.9322737000002,950.9476499000002,954.6143479000002,954.5987451999999,954.6026640999999,954.6143479000002,954.6143479000002,954.6143479000002,954.6143479000002,956.5987161000003,2,1.2832385000001523,0.23826199999984965,None,956.6145027000002,956.6145027000002,956.6145027000002,956.6145027000002,,,,,,,,,,,,,,,,,,,2345,1,2025-05-12_13h58.25.708,sm,2024.2.4,59.98616718970231,2025-05-12 13h58.36.899473 +0200,
