thisN,thisTrialN,thisRepN,Cue,Target,Mediator1,Mediator2,iti,scanner_ready_press.keys,scanner_ready_press.rt,scanner_ready_press.duration,skip_trigger.keys,living_nonliving.keys,living_nonliving.rt,living_nonliving.duration,end_mapping.keys,blocks.thisRepN,blocks.thisTrialN,blocks.thisN,blocks.thisIndex,load_and_shuffle.thisRepN,load_and_shuffle.thisTrialN,load_and_shuffle.thisN,load_and_shuffle.thisIndex,runs.thisRepN,runs.thisTrialN,runs.thisN,runs.thisIndex,iti_loading_loop.thisRepN,iti_loading_loop.thisTrialN,iti_loading_loop.thisN,iti_loading_loop.thisIndex,semantic_mapping_run.thisRepN,semantic_mapping_run.thisTrialN,semantic_mapping_run.thisN,semantic_mapping_run.thisIndex,thisRow.t,notes,welcome.started,welcome_text.started,key_resp__welcome.started,welcome.stopped,key_resp__welcome.keys,key_resp__welcome.rt,key_resp__welcome.duration,scout.started,scout_text.started,key_resp.started,scout.stopped,key_resp.keys,key_resp.rt,key_resp.duration,instructions_semantic_mapping1.started,sm_instructions1_text.started,sm_instructions1_key.started,instructions_semantic_mapping1.stopped,sm_instructions1_key.keys,sm_instructions1_key.rt,sm_instructions1_key.duration,instructions_semantic_mapping2.started,sm_instructions2_text.started,sm_instructions2_key.started,instructions_semantic_mapping2.stopped,sm_instructions2_key.keys,sm_instructions2_key.rt,sm_instructions2_key.duration,reset_run.started,reset_run.stopped,shuffle_items.started,shuffle_items.stopped,set_up_runs.started,set_up_runs.stopped,load_iti.started,load_iti.stopped,prep_scanner.started,scanner_ready_press.started,ready_set_text.started,prep_scanner.stopped,runs.scanner_ready_press.keys,runs.scanner_ready_press.rt,runs.scanner_ready_press.duration,wait_for_trigger.started,starting_soon.started,skip_trigger.started,wait_for_trigger.stopped,runs.skip_trigger.keys,blank.started,begin_end_run_cross.started,sound_1.started,sound_1.stopped,sound_2.started,sound_2.stopped,begin_end_run_cross.stopped,blank.stopped,CurrentItem,CurrentITI,set_up_trial.started,set_up_trial.stopped,sm_iti.started,iti_cross.started,iti_cross.stopped,sm_iti.stopped,item.started,living_nonliving.started,end_mapping.started,living_nonliving_text.started,semantic_map_item.started,item.stopped,semantic_mapping_run.living_nonliving.keys,semantic_mapping_run.living_nonliving.rt,semantic_mapping_run.living_nonliving.duration,semantic_mapping_run.end_mapping.keys,living_nonliving.stopped,end_mapping.stopped,living_nonliving_text.stopped,semantic_map_item.stopped,fieldmap.started,fieldmap.stopped,runs.fm_key.keys,task_break.started,feeback_text.started,task_break_text.started,task_break_resp.started,feeback_text.stopped,task_break.stopped,runs.task_break_resp.keys,runs.task_break_resp.rt,runs.task_break_resp.duration,fm_text.started,fm_key.started,runs.fm_key.rt,runs.fm_key.duration,thanks.started,thanks_text.started,thanks_text.stopped,thanks.stopped,PID,MRI,date,expName,psychopyVersion,frameRate,expStart,
,,,,,,,,,,,,,,,,,,,,,,,,,,,,,,,,,,,,,,0.0036704000012832694,0.013706500001717359,0.013706500001717359,106.38163200000054,space,106.35963009999978,None,,,,,,,,,,,,,,,,,,,,,,,,,,,,,,,,,,,,,,,,,,,,,,,,,,,,,,,,,,,,,,,,,,,,,,,,,,,,,,,,,,,,,,,,,,,,7465,1,2025-07-21_18h55.53.232,sm,2024.2.4,59.91629693318451,2025-07-21 18h56.05.154897 +0200,
,,,,,,,,,,,,,,,,,,,,,,,,,,,,,,,,,,,,,,,,,,,,,106.38175000000047,106.3899315000017,106.3899315000017,205.86924920000092,space,99.47246300000188,None,,,,,,,,,,,,,,,,,,,,,,,,,,,,,,,,,,,,,,,,,,,,,,,,,,,,,,,,,,,,,,,,,,,,,,,,,,,,,,,,,,,,,7465,1,2025-07-21_18h55.53.232,sm,2024.2.4,59.91629693318451,2025-07-21 18h56.05.154897 +0200,
,,,,,,,,,,,,,,,,,,,,,,,,,,,,,,,,,,,,,,,,,,,,,,,,,,,,205.86936530000094,205.88603920000241,205.88603920000241,213.83755799999926,2,7.948866999999154,None,,,,,,,,,,,,,,,,,,,,,,,,,,,,,,,,,,,,,,,,,,,,,,,,,,,,,,,,,,,,,,,,,,,,,,,,,,,,,,7465,1,2025-07-21_18h55.53.232,sm,2024.2.4,59.91629693318451,2025-07-21 18h56.05.154897 +0200,
,,,,,,,,,,,,,,,,,,,,,,,,,,,,,,,,,,,,,,,,,,,,,,,,,,,,,,,,,,,213.8376687000018,213.8519793000014,213.8519793000014,223.66760480000084,2,9.800501199999417,None,,,,,,,,,,,,,,,,,,,,,,,,,,,,,,,,,,,,,,,,,,,,,,,,,,,,,,,,,,,,,,,,,,,,,,,7465,1,2025-07-21_18h55.53.232,sm,2024.2.4,59.91629693318451,2025-07-21 18h56.05.154897 +0200,
0,0,0,Journalistin,Brille,Zeitung,Autorin,2.7521,space,24.639959899999667,None,None,2,1.7778445000003558,0.19909170000028098,None,0,0,0,0,0,79,79,72,0,0,0,0,0,79,79,29,0,0,0,0,307.46288090000235,,,,,,,,,,,,,,,,,,,,,,,,,,,,,,223.66838220000136,223.6691494000006,223.7612063000015,223.7615012999995,223.7669827000027,223.76743899999929,223.80177829999957,223.80198540000129,223.8088048000027,223.8127088000001,223.8127088000001,248.4682739000018,space,24.639959899999667,None,248.46843889999946,248.48322929999995,248.48322929999995,295.44692209999994,None,295.4546917000007,295.4638092000023,295.4621461666686,296.6719071000007,305.44661506666694,306.4515339000027,307.46288090000235,307.44775030000164,Harmonie,2.7521,307.4492323000013,307.45002530000056,307.4534504000003,307.46288090000235,310.23188500000106,310.2141369000019,310.2215477000027,310.23188500000106,310.23188500000106,310.23188500000106,310.23188500000106,312.2302918000023,2,1.7778445000003558,0.19909170000028098,None,,,,,,,,,,,,,,,,,,,,,,,,,7465,1,2025-07-21_18h55.53.232,sm,2024.2.4,59.91629693318451,2025-07-21 18h56.05.154897 +0200,
1,0,1,,,,,,space,24.639959899999667,None,None,3,1.3323515000010957,0.29420350000145845,None,0,0,0,0,,,,,0,0,0,0,,,,,1,0,1,0,312.24623900000006,,,,,,,,,,,,,,,,,,,,,,,,,,,,,,,,,,,,,,,,,,,,,,,,,,,,,,,,,,Erbe,2.663,312.2309454999995,312.2316997000016,312.23181470000054,312.24623900000006,314.91284930000256,314.89692090000244,314.9008266000019,314.91284930000256,314.91284930000256,314.91284930000256,314.91284930000256,316.89722750000146,3,1.3323515000010957,0.29420350000145845,None,316.9127346999994,316.9127346999994,316.9127346999994,316.9127346999994,,,,,,,,,,,,,,,,,,,,,7465,1,2025-07-21_18h55.53.232,sm,2024.2.4,59.91629693318451,2025-07-21 18h56.05.154897 +0200,
2,0,2,,,,,,space,24.639959899999667,None,None,3,1.1746812999990652,0.2304148000002897,None,0,0,0,0,,,,,0,0,0,0,,,,,2,0,2,0,316.9127346999994,,,,,,,,,,,,,,,,,,,,,,,,,,,,,,,,,,,,,,,,,,,,,,,,,,,,,,,,,,Bus,2.6527,316.8977349000015,316.898247000001,316.89835270000185,316.9127346999994,319.5792466999992,319.56357370000114,319.5671628000018,319.5792466999992,319.5792466999992,319.5792466999992,319.5792466999992,321.5639291000007,3,1.1746812999990652,0.2304148000002897,None,321.5792336000013,321.5792336000013,321.5792336000013,321.5792336000013,,,,,,,,,,,,,,,,,,,,,7465,1,2025-07-21_18h55.53.232,sm,2024.2.4,59.91629693318451,2025-07-21 18h56.05.154897 +0200,
3,0,3,,,,,,space,24.639959899999667,None,None,3,1.5330904999973427,0.20982260000164388,None,0,0,0,0,,,,,0,0,0,0,,,,,3,0,3,0,321.5792336000013,,,,,,,,,,,,,,,,,,,,,,,,,,,,,,,,,,,,,,,,,,,,,,,,,,,,,,,,,,Hemd,3.0567,321.5644400000019,321.5649630000007,321.5650690000002,321.5792336000013,324.64582620000147,324.6298005000026,324.6326848000026,324.64582620000147,324.64582620000147,324.64582620000147,324.64582620000147,326.62979180000184,3,1.5330904999973427,0.20982260000164388,None,326.6456063000005,326.6456063000005,326.6456063000005,326.6456063000005,,,,,,,,,,,,,,,,,,,,,7465,1,2025-07-21_18h55.53.232,sm,2024.2.4,59.91629693318451,2025-07-21 18h56.05.154897 +0200,
4,0,4,,,,,,space,24.639959899999667,None,None,3,1.5511487000003399,0.21350819999861415,None,0,0,0,0,,,,,0,0,0,0,,,,,4,0,4,0,326.6456063000005,,,,,,,,,,,,,,,,,,,,,,,,,,,,,,,,,,,,,,,,,,,,,,,,,,,,,,,,,,Gewürz,3.0539,326.63020010000037,326.6306622000011,326.6307454000016,326.6456063000005,329.71199759999945,329.69636209999953,329.7006086000001,329.71199759999945,329.71199759999945,329.71199759999945,329.71199759999945,331.69676529999924,3,1.5511487000003399,0.21350819999861415,None,331.7118596,331.7118596,331.7118596,331.7118596,,,,,,,,,,,,,,,,,,,,,7465,1,2025-07-21_18h55.53.232,sm,2024.2.4,59.91629693318451,2025-07-21 18h56.05.154897 +0200,
5,0,5,,,,,,space,24.639959899999667,None,None,2,1.781974599998648,None,None,0,0,0,0,,,,,0,0,0,0,,,,,5,0,5,0,331.7118596,,,,,,,,,,,,,,,,,,,,,,,,,,,,,,,,,,,,,,,,,,,,,,,,,,,,,,,,,,Nebel,2.0367,331.6972706000015,331.6977923000013,331.6978987000002,331.7118596,333.7616111000025,333.7458785000017,333.749251600002,333.7616111000025,333.7616111000025,333.7616111000025,333.7616111000025,335.74619280000115,2,1.781974599998648,None,None,335.76164150000113,335.76164150000113,335.76164150000113,335.76164150000113,,,,,,,,,,,,,,,,,,,,,7465,1,2025-07-21_18h55.53.232,sm,2024.2.4,59.91629693318451,2025-07-21 18h56.05.154897 +0200,
6,0,6,,,,,,space,24.639959899999667,None,None,2,1.2435542999992322,0.14466059999904246,None,0,0,0,0,,,,,0,0,0,0,,,,,6,0,6,0,335.76164150000113,,,,,,,,,,,,,,,,,,,,,,,,,,,,,,,,,,,,,,,,,,,,,,,,,,,,,,,,,,Zunge,2.3032,335.7467039000003,335.74727390000044,335.74738330000037,335.76164150000113,338.0777377000013,338.06307620000007,338.0685228000002,338.0777377000013,338.0777377000013,338.0777377000013,338.0777377000013,340.0624253999995,2,1.2435542999992322,0.14466059999904246,None,340.0780393000023,340.0780393000023,340.0780393000023,340.0780393000023,,,,,,,,,,,,,,,,,,,,,7465,1,2025-07-21_18h55.53.232,sm,2024.2.4,59.91629693318451,2025-07-21 18h56.05.154897 +0200,
7,0,7,,,,,,space,24.639959899999667,None,None,3,1.1244975999979943,0.2188590000005206,None,0,0,0,0,,,,,0,0,0,0,,,,,7,0,7,0,340.0780393000023,,,,,,,,,,,,,,,,,,,,,,,,,,,,,,,,,,,,,,,,,,,,,,,,,,,,,,,,,,Afrika,2.7088,340.06293730000107,340.06346810000105,340.0635739999998,340.0780393000023,342.7943957000025,342.7788486999998,342.7833154,342.7943957000025,342.7943957000025,342.7943957000025,342.7943957000025,344.7788451000015,3,1.1244975999979943,0.2188590000005206,None,344.7943990999993,344.7943990999993,344.7943990999993,344.7943990999993,,,,,,,,,,,,,,,,,,,,,7465,1,2025-07-21_18h55.53.232,sm,2024.2.4,59.91629693318451,2025-07-21 18h56.05.154897 +0200,
8,0,8,,,,,,space,24.639959899999667,None,None,3,1.5680113000016718,0.20199030000003404,None,0,0,0,0,,,,,0,0,0,0,,,,,8,0,8,0,344.7943990999993,,,,,,,,,,,,,,,,,,,,,,,,,,,,,,,,,,,,,,,,,,,,,,,,,,,,,,,,,,Ball,2.7384,344.7793543000007,344.77987399999984,344.7799797000007,344.7943990999993,347.5438987000016,347.52852930000154,347.53163810000115,347.5438987000016,347.5438987000016,347.5438987000016,347.5438987000016,349.5288056999998,3,1.5680113000016718,0.20199030000003404,None,349.5441396000024,349.5441396000024,349.5441396000024,349.5441396000024,,,,,,,,,,,,,,,,,,,,,7465,1,2025-07-21_18h55.53.232,sm,2024.2.4,59.91629693318451,2025-07-21 18h56.05.154897 +0200,
9,0,9,,,,,,space,24.639959899999667,None,None,3,1.4452505000008387,0.199041899999429,None,0,0,0,0,,,,,0,0,0,0,,,,,9,0,9,0,349.5441396000024,,,,,,,,,,,,,,,,,,,,,,,,,,,,,,,,,,,,,,,,,,,,,,,,,,,,,,,,,,Wüste,2.34,349.52931250000256,349.5299946000014,349.5301032999996,349.5441396000024,351.8939685000005,351.8788578999993,351.8827861000027,351.8939685000005,351.8939685000005,351.8939685000005,351.8939685000005,353.87813160000223,3,1.4452505000008387,0.199041899999429,None,353.89398710000023,353.89398710000023,353.89398710000023,353.89398710000023,,,,,,,,,,,,,,,,,,,,,7465,1,2025-07-21_18h55.53.232,sm,2024.2.4,59.91629693318451,2025-07-21 18h56.05.154897 +0200,
10,0,10,,,,,,space,24.639959899999667,None,None,3,1.2895769000024302,0.2357332999999926,None,0,0,0,0,,,,,0,0,0,0,,,,,10,0,10,0,353.89398710000023,,,,,,,,,,,,,,,,,,,,,,,,,,,,,,,,,,,,,,,,,,,,,,,,,,,,,,,,,,Kamera,2.4579,353.878517000001,353.8790556999993,353.8791358000017,353.89398710000023,356.36061680000057,356.34482260000004,356.3510844000011,356.36061680000057,356.36061680000057,356.36061680000057,356.36061680000057,358.34494880000057,3,1.2895769000024302,0.2357332999999926,None,358.3603729999995,358.3603729999995,358.3603729999995,358.3603729999995,,,,,,,,,,,,,,,,,,,,,7465,1,2025-07-21_18h55.53.232,sm,2024.2.4,59.91629693318451,2025-07-21 18h56.05.154897 +0200,
11,0,11,,,,,,space,24.639959899999667,None,None,2,1.7950812999988557,None,None,0,0,0,0,,,,,0,0,0,0,,,,,11,0,11,0,358.3603729999995,,,,,,,,,,,,,,,,,,,,,,,,,,,,,,,,,,,,,,,,,,,,,,,,,,,,,,,,,,Zähne,2.6868,358.3454487000017,358.34611340000265,358.34623080000165,358.3603729999995,361.0598877000011,361.04458050000176,361.0482296000009,361.0598877000011,361.0598877000011,361.0598877000011,361.0598877000011,363.04533359999914,2,1.7950812999988557,None,None,363.0599965000001,363.0599965000001,363.0599965000001,363.0599965000001,,,,,,,,,,,,,,,,,,,,,7465,1,2025-07-21_18h55.53.232,sm,2024.2.4,59.91629693318451,2025-07-21 18h56.05.154897 +0200,
12,0,12,,,,,,space,24.639959899999667,None,None,2,1.1346984000010707,0.19089869999879738,None,0,0,0,0,,,,,0,0,0,0,,,,,12,0,12,0,363.0599965000001,,,,,,,,,,,,,,,,,,,,,,,,,,,,,,,,,,,,,,,,,,,,,,,,,,,,,,,,,,Blatt,2.4731,363.0458409999992,363.0467024999998,363.04689300000246,363.0599965000001,365.54331730000195,365.5277634000013,365.5318879000006,365.54331730000195,365.54331730000195,365.54331730000195,365.54331730000195,367.52763250000135,2,1.1346984000010707,0.19089869999879738,None,367.5432701000027,367.5432701000027,367.5432701000027,367.5432701000027,,,,,,,,,,,,,,,,,,,,,7465,1,2025-07-21_18h55.53.232,sm,2024.2.4,59.91629693318451,2025-07-21 18h56.05.154897 +0200,
13,0,13,,,,,,space,24.639959899999667,None,None,None,,,None,0,0,0,0,,,,,0,0,0,0,,,,,13,0,13,0,367.5432701000027,,,,,,,,,,,,,,,,,,,,,,,,,,,,,,,,,,,,,,,,,,,,,,,,,,,,,,,,,,Farbe,2.0681,367.5281274000008,367.5286918999991,367.5287969000019,367.5432701000027,369.62591560000146,369.6102826999995,369.61585879999984,369.62591560000146,369.62591560000146,369.62591560000146,369.62591560000146,371.61065560000134,None,,,None,371.6267914000018,371.6267914000018,371.6267914000018,371.6267914000018,,,,,,,,,,,,,,,,,,,,,7465,1,2025-07-21_18h55.53.232,sm,2024.2.4,59.91629693318451,2025-07-21 18h56.05.154897 +0200,
14,0,14,,,,,,space,24.639959899999667,None,None,3,1.399034699999902,0.19148280000081286,None,0,0,0,0,,,,,0,0,0,0,,,,,14,0,14,0,371.6267914000018,,,,,,,,,,,,,,,,,,,,,,,,,,,,,,,,,,,,,,,,,,,,,,,,,,,,,,,,,,Winter,2.1458,371.61112630000207,371.6116637000014,371.6117728999998,371.6267914000018,373.7760964000008,373.7609755000012,373.7648681999999,373.7760964000008,373.7760964000008,373.7760964000008,373.7760964000008,375.7606947000022,3,1.399034699999902,0.19148280000081286,None,375.7759604999992,375.7759604999992,375.7759604999992,375.7759604999992,,,,,,,,,,,,,,,,,,,,,7465,1,2025-07-21_18h55.53.232,sm,2024.2.4,59.91629693318451,2025-07-21 18h56.05.154897 +0200,
15,0,15,,,,,,space,24.639959899999667,None,None,3,1.344851199999539,0.18637049999961164,None,0,0,0,0,,,,,0,0,0,0,,,,,15,0,15,0,375.7759604999992,,,,,,,,,,,,,,,,,,,,,,,,,,,,,,,,,,,,,,,,,,,,,,,,,,,,,,,,,,Keller,3.7827,375.76117030000023,375.7616751000023,375.76177720000123,375.7759604999992,379.5599600000023,379.5434958000005,379.5476947999996,379.5599600000023,379.5599600000023,379.5599600000023,379.5599600000023,381.5435373,3,1.344851199999539,0.18637049999961164,None,381.5590501000006,381.5590501000006,381.5590501000006,381.5590501000006,,,,,,,,,,,,,,,,,,,,,7465,1,2025-07-21_18h55.53.232,sm,2024.2.4,59.91629693318451,2025-07-21 18h56.05.154897 +0200,
16,0,16,,,,,,space,24.639959899999667,None,None,3,1.4484732999990229,0.23333759999877657,None,0,0,0,0,,,,,0,0,0,0,,,,,16,0,16,0,381.5590501000006,,,,,,,,,,,,,,,,,,,,,,,,,,,,,,,,,,,,,,,,,,,,,,,,,,,,,,,,,,Berg,4.3145,381.5440357000007,381.544695200002,381.5448073000007,381.5590501000006,385.8751814000025,385.8598019000019,385.86304129999917,385.8751814000025,385.8751814000025,385.8751814000025,385.8751814000025,387.86000980000244,3,1.4484732999990229,0.23333759999877657,None,387.8752093000003,387.8752093000003,387.8752093000003,387.8752093000003,,,,,,,,,,,,,,,,,,,,,7465,1,2025-07-21_18h55.53.232,sm,2024.2.4,59.91629693318451,2025-07-21 18h56.05.154897 +0200,
17,0,17,,,,,,space,24.639959899999667,None,None,2,1.4949271000004956,0.17290769999817712,None,0,0,0,0,,,,,0,0,0,0,,,,,17,0,17,0,387.8752093000003,,,,,,,,,,,,,,,,,,,,,,,,,,,,,,,,,,,,,,,,,,,,,,,,,,,,,,,,,,Hilfe,2.3398,387.86051750000115,387.86105999999927,387.86116440000114,387.8752093000003,390.22507140000016,390.209509100001,390.21342930000174,390.22507140000016,390.22507140000016,390.22507140000016,390.22507140000016,392.2093406000022,2,1.4949271000004956,0.17290769999817712,None,392.22516560000076,392.22516560000076,392.22516560000076,392.22516560000076,,,,,,,,,,,,,,,,,,,,,7465,1,2025-07-21_18h55.53.232,sm,2024.2.4,59.91629693318451,2025-07-21 18h56.05.154897 +0200,
18,0,18,,,,,,space,24.639959899999667,None,None,3,1.815842399999383,None,None,0,0,0,0,,,,,0,0,0,0,,,,,18,0,18,0,392.22516560000076,,,,,,,,,,,,,,,,,,,,,,,,,,,,,,,,,,,,,,,,,,,,,,,,,,,,,,,,,,Zimmer,2.4984,392.20984370000224,392.2103473999996,392.21045570000206,392.22516560000076,394.72472610000113,394.7091145000013,394.7124958000022,394.72472610000113,394.72472610000113,394.72472610000113,394.72472610000113,396.7091623000015,3,1.815842399999383,None,None,396.72495569999955,396.72495569999955,396.72495569999955,396.72495569999955,,,,,,,,,,,,,,,,,,,,,7465,1,2025-07-21_18h55.53.232,sm,2024.2.4,59.91629693318451,2025-07-21 18h56.05.154897 +0200,
19,0,19,,,,,,space,24.639959899999667,None,None,2,1.1762558999980683,0.18746480000118027,None,0,0,0,0,,,,,0,0,0,0,,,,,19,0,19,0,396.72495569999955,,,,,,,,,,,,,,,,,,,,,,,,,,,,,,,,,,,,,,,,,,,,,,,,,,,,,,,,,,Feier,2.6919,396.7096367000013,396.71016410000084,396.7102670000022,396.72495569999955,399.4247249,399.40937269999995,399.41347809999934,399.4247249,399.4247249,399.4247249,399.4247249,401.409180300001,2,1.1762558999980683,0.18746480000118027,None,401.4244949000022,401.4244949000022,401.4244949000022,401.4244949000022,,,,,,,,,,,,,,,,,,,,,7465,1,2025-07-21_18h55.53.232,sm,2024.2.4,59.91629693318451,2025-07-21 18h56.05.154897 +0200,
20,0,20,,,,,,space,24.639959899999667,None,None,2,1.2890364000013506,0.20336300000053598,None,0,0,0,0,,,,,0,0,0,0,,,,,20,0,20,0,401.4244949000022,,,,,,,,,,,,,,,,,,,,,,,,,,,,,,,,,,,,,,,,,,,,,,,,,,,,,,,,,,Applaus,3.5224,401.40968950000024,401.4102043000021,401.4103157999998,401.4244949000022,404.9577229000024,404.9420432000006,404.94711630000165,404.9577229000024,404.9577229000024,404.9577229000024,404.9577229000024,406.9420515999991,2,1.2890364000013506,0.20336300000053598,None,406.9575827000008,406.9575827000008,406.9575827000008,406.9575827000008,,,,,,,,,,,,,,,,,,,,,7465,1,2025-07-21_18h55.53.232,sm,2024.2.4,59.91629693318451,2025-07-21 18h56.05.154897 +0200,
21,0,21,,,,,,space,24.639959899999667,None,None,2,1.2392962999983865,0.19780220000029658,None,0,0,0,0,,,,,0,0,0,0,,,,,21,0,21,0,406.9575827000008,,,,,,,,,,,,,,,,,,,,,,,,,,,,,,,,,,,,,,,,,,,,,,,,,,,,,,,,,,Lehrer,4.5026,406.94255650000196,406.9430869000025,406.94319280000127,406.9575827000008,411.4738849999994,411.4582870000013,411.46242880000136,411.4738849999994,411.4738849999994,411.4738849999994,411.4738849999994,413.45847160000267,2,1.2392962999983865,0.19780220000029658,None,413.47408800000267,413.47408800000267,413.47408800000267,413.47408800000267,,,,,,,,,,,,,,,,,,,,,7465,1,2025-07-21_18h55.53.232,sm,2024.2.4,59.91629693318451,2025-07-21 18h56.05.154897 +0200,
22,0,22,,,,,,space,24.639959899999667,None,None,3,1.934681200000341,None,None,0,0,0,0,,,,,0,0,0,0,,,,,22,0,22,0,413.47408800000267,,,,,,,,,,,,,,,,,,,,,,,,,,,,,,,,,,,,,,,,,,,,,,,,,,,,,,,,,,Strand,2.0627,413.4589765000019,413.45950430000084,413.4596120000024,413.47408800000267,415.5400561999995,415.5244735000015,415.5279976999991,415.5400561999995,415.5400561999995,415.5400561999995,415.5400561999995,417.5249834000024,3,1.934681200000341,None,None,417.5402577999994,417.5402577999994,417.5402577999994,417.5402577999994,,,,,,,,,,,,,,,,,,,,,7465,1,2025-07-21_18h55.53.232,sm,2024.2.4,59.91629693318451,2025-07-21 18h56.05.154897 +0200,
23,0,23,,,,,,space,24.639959899999667,None,None,3,1.733766100001958,None,None,0,0,0,0,,,,,0,0,0,0,,,,,23,0,23,0,417.5402577999994,,,,,,,,,,,,,,,,,,,,,,,,,,,,,,,,,,,,,,,,,,,,,,,,,,,,,,,,,,Radio,2.419,417.5254835000014,417.52617250000185,417.52627890000076,417.5402577999994,419.9731090000023,419.95773380000173,419.9612005000017,419.9731090000023,419.9731090000023,419.9731090000023,419.9731090000023,421.9579338000003,3,1.733766100001958,None,None,421.97331960000156,421.97331960000156,421.97331960000156,421.97331960000156,,,,,,,,,,,,,,,,,,,,,7465,1,2025-07-21_18h55.53.232,sm,2024.2.4,59.91629693318451,2025-07-21 18h56.05.154897 +0200,
24,0,24,,,,,,space,24.639959899999667,None,None,2,1.420221100001072,0.21345559999826946,None,0,0,0,0,,,,,0,0,0,0,,,,,24,0,24,0,421.97331960000156,,,,,,,,,,,,,,,,,,,,,,,,,,,,,,,,,,,,,,,,,,,,,,,,,,,,,,,,,,Knie,2.518,421.9584343000024,421.9589679000019,421.9590724000009,421.97331960000156,424.50644060000195,424.4909222999995,424.49403750000056,424.50644060000195,424.50644060000195,424.50644060000195,424.50644060000195,426.4909536000014,2,1.420221100001072,0.21345559999826946,None,426.50634340000033,426.50634340000033,426.50634340000033,426.50634340000033,,,,,,,,,,,,,,,,,,,,,7465,1,2025-07-21_18h55.53.232,sm,2024.2.4,59.91629693318451,2025-07-21 18h56.05.154897 +0200,
25,0,25,,,,,,space,24.639959899999667,None,None,2,1.6568292999982077,0.20830320000095526,None,0,0,0,0,,,,,0,0,0,0,,,,,25,0,25,0,426.50634340000033,,,,,,,,,,,,,,,,,,,,,,,,,,,,,,,,,,,,,,,,,,,,,,,,,,,,,,,,,,Rose,3.4237,426.49145280000084,426.4920450999998,426.49215639999966,426.50634340000033,429.9394847000003,429.92392870000185,429.927620800001,429.9394847000003,429.9394847000003,429.9394847000003,429.9394847000003,431.9239149999994,2,1.6568292999982077,0.20830320000095526,None,431.9394919000006,431.9394919000006,431.9394919000006,431.9394919000006,,,,,,,,,,,,,,,,,,,,,7465,1,2025-07-21_18h55.53.232,sm,2024.2.4,59.91629693318451,2025-07-21 18h56.05.154897 +0200,
26,0,26,,,,,,space,24.639959899999667,None,None,2,1.5947207999997772,0.20734989999982645,None,0,0,0,0,,,,,0,0,0,0,,,,,26,0,26,0,431.9394919000006,,,,,,,,,,,,,,,,,,,,,,,,,,,,,,,,,,,,,,,,,,,,,,,,,,,,,,,,,,Trauben,2.0684,431.9244179000016,431.9249239000019,431.9250280000015,431.9394919000006,434.0226261000025,434.0069347999997,434.01026190000266,434.0226261000025,434.0226261000025,434.0226261000025,434.0226261000025,436.0069478000005,2,1.5947207999997772,0.20734989999982645,None,436.0225242000015,436.0225242000015,436.0225242000015,436.0225242000015,,,,,,,,,,,,,,,,,,,,,7465,1,2025-07-21_18h55.53.232,sm,2024.2.4,59.91629693318451,2025-07-21 18h56.05.154897 +0200,
27,0,27,,,,,,space,24.639959899999667,None,None,2,1.5981051999988267,0.20036510000136332,None,0,0,0,0,,,,,0,0,0,0,,,,,27,0,27,0,436.0225242000015,,,,,,,,,,,,,,,,,,,,,,,,,,,,,,,,,,,,,,,,,,,,,,,,,,,,,,,,,,Moor,5.2515,436.0074510000013,436.00810120000097,436.0082098999992,436.0225242000015,441.28872870000123,441.27329480000117,441.27706559999933,441.28872870000123,441.28872870000123,441.28872870000123,441.28872870000123,443.2734094000007,2,1.5981051999988267,0.20036510000136332,None,443.28865000000224,443.28865000000224,443.28865000000224,443.28865000000224,,,,,,,,,,,,,,,,,,,,,7465,1,2025-07-21_18h55.53.232,sm,2024.2.4,59.91629693318451,2025-07-21 18h56.05.154897 +0200,
28,0,28,,,,,,space,24.639959899999667,None,None,3,1.2597574000028544,0.23904249999759486,None,0,0,0,0,,,,,0,0,0,0,,,,,28,0,28,0,443.28865000000224,,,,,,,,,,,,,,,,,,,,,,,,,,,,,,,,,,,,,,,,,,,,,,,,,,,,,,,,,,Zeitung,2.3362,443.27392189999955,443.27444359999936,443.27455140000166,443.28865000000224,445.63848599999983,445.6230221000005,445.6273779000003,445.63848599999983,445.63848599999983,445.63848599999983,445.63848599999983,447.6230484000007,3,1.2597574000028544,0.23904249999759486,None,447.63861420000103,447.63861420000103,447.63861420000103,447.63861420000103,,,,,,,,,,,,,,,,,,,,,7465,1,2025-07-21_18h55.53.232,sm,2024.2.4,59.91629693318451,2025-07-21 18h56.05.154897 +0200,
29,0,29,,,,,,space,24.639959899999667,None,None,2,1.7544775999995181,0.16918210000221734,None,0,0,0,0,,,,,0,0,0,0,,,,,29,0,29,0,447.63861420000103,,,,,,,,,,,,,,,,,,,,,,,,,,,,,,,,,,,,,,,,,,,,,,,,,,,,,,,,,,Ausbruch,3.1635,447.6235522999996,447.62417920000007,447.6242912000016,447.63861420000103,450.80552530000205,450.7894804999996,450.79376390000107,450.80552530000205,450.80552530000205,450.80552530000205,450.80552530000205,452.7895247000015,2,1.7544775999995181,0.16918210000221734,None,452.8051145999998,452.8051145999998,452.8051145999998,452.8051145999998,,,,,,,,,,,,,,,,,,,,,7465,1,2025-07-21_18h55.53.232,sm,2024.2.4,59.91629693318451,2025-07-21 18h56.05.154897 +0200,
30,0,30,,,,,,space,24.639959899999667,None,None,2,1.843026300000929,None,None,0,0,0,0,,,,,0,0,0,0,,,,,30,0,30,0,452.8051145999998,,,,,,,,,,,,,,,,,,,,,,,,,,,,,,,,,,,,,,,,,,,,,,,,,,,,,,,,,,Reise,2.7581,452.7900277000008,452.79068760000155,452.79079280000224,452.8051145999998,455.57096450000245,455.5560798000006,455.55897860000186,455.57096450000245,455.57096450000245,455.57096450000245,455.57096450000245,457.55579040000157,2,1.843026300000929,None,None,457.5713016000009,457.5713016000009,457.5713016000009,457.5713016000009,,,,,,,,,,,,,,,,,,,,,7465,1,2025-07-21_18h55.53.232,sm,2024.2.4,59.91629693318451,2025-07-21 18h56.05.154897 +0200,
31,0,31,,,,,,space,24.639959899999667,None,None,3,1.2899672999992617,0.20735979999881238,None,0,0,0,0,,,,,0,0,0,0,,,,,31,0,31,0,457.5713016000009,,,,,,,,,,,,,,,,,,,,,,,,,,,,,,,,,,,,,,,,,,,,,,,,,,,,,,,,,,Schloss,4.5684,457.5562931000022,457.5568493999999,457.5569538000018,457.5713016000009,462.15419210000255,462.1386119000017,462.1420751000005,462.15419210000255,462.15419210000255,462.15419210000255,462.15419210000255,464.13908810000066,3,1.2899672999992617,0.20735979999881238,None,464.1550401000022,464.1550401000022,464.1550401000022,464.1550401000022,,,,,,,,,,,,,,,,,,,,,7465,1,2025-07-21_18h55.53.232,sm,2024.2.4,59.91629693318451,2025-07-21 18h56.05.154897 +0200,
32,0,32,,,,,,space,24.639959899999667,None,None,2,1.8430729000028805,None,None,0,0,0,0,,,,,0,0,0,0,,,,,32,0,32,0,464.1550401000022,,,,,,,,,,,,,,,,,,,,,,,,,,,,,,,,,,,,,,,,,,,,,,,,,,,,,,,,,,Zeigen,4.0328,464.1396010999997,464.1401229000003,464.1402292999992,464.1550401000022,468.187219200001,468.1716196000016,468.17491599999994,468.187219200001,468.187219200001,468.187219200001,468.187219200001,470.1716567000003,2,1.8430729000028805,None,None,470.1873565999995,470.1873565999995,470.1873565999995,470.1873565999995,,,,,,,,,,,,,,,,,,,,,7465,1,2025-07-21_18h55.53.232,sm,2024.2.4,59.91629693318451,2025-07-21 18h56.05.154897 +0200,
33,0,33,,,,,,space,24.639959899999667,None,None,3,1.2084317000008014,0.3058887000006507,None,0,0,0,0,,,,,0,0,0,0,,,,,33,0,33,0,470.1873565999995,,,,,,,,,,,,,,,,,,,,,,,,,,,,,,,,,,,,,,,,,,,,,,,,,,,,,,,,,,Shampoo,3.7431,470.17216010000266,470.17270760000247,470.17281600000206,470.1873565999995,473.9366381,473.9214228000019,473.92511770000056,473.9366381,473.9366381,473.9366381,473.9366381,475.9211749999995,3,1.2084317000008014,0.3058887000006507,None,475.9370525000013,475.9370525000013,475.9370525000013,475.9370525000013,,,,,,,,,,,,,,,,,,,,,7465,1,2025-07-21_18h55.53.232,sm,2024.2.4,59.91629693318451,2025-07-21 18h56.05.154897 +0200,
34,0,34,,,,,,space,24.639959899999667,None,None,2,1.6247283999982756,0.2038559000029636,None,0,0,0,0,,,,,0,0,0,0,,,,,34,0,34,0,475.9370525000013,,,,,,,,,,,,,,,,,,,,,,,,,,,,,,,,,,,,,,,,,,,,,,,,,,,,,,,,,,Ferien,3.5957,475.9215961000009,475.9222262000003,475.9223302999999,475.9370525000013,479.53660460000174,479.52117480000015,479.52552320000177,479.53660460000174,479.53660460000174,479.53660460000174,479.53660460000174,481.520665,2,1.6247283999982756,0.2038559000029636,None,481.53677940000125,481.53677940000125,481.53677940000125,481.53677940000125,,,,,,,,,,,,,,,,,,,,,7465,1,2025-07-21_18h55.53.232,sm,2024.2.4,59.91629693318451,2025-07-21 18h56.05.154897 +0200,
35,0,35,,,,,,space,24.639959899999667,None,None,3,1.5179628000005323,0.21416060000046855,None,0,0,0,0,,,,,0,0,0,0,,,,,35,0,35,0,481.53677940000125,,,,,,,,,,,,,,,,,,,,,,,,,,,,,,,,,,,,,,,,,,,,,,,,,,,,,,,,,,Geschichte,3.6003,481.5210525000002,481.52149830000053,481.52158020000206,481.53677940000125,485.15282990000196,485.1373429000014,485.14204040000186,485.15282990000196,485.15282990000196,485.15282990000196,485.15282990000196,487.137490000001,3,1.5179628000005323,0.21416060000046855,None,487.15279369999917,487.15279369999917,487.15279369999917,487.15279369999917,,,,,,,,,,,,,,,,,,,,,7465,1,2025-07-21_18h55.53.232,sm,2024.2.4,59.91629693318451,2025-07-21 18h56.05.154897 +0200,
36,0,36,,,,,,space,24.639959899999667,None,None,3,1.3382577000011224,0.29639939999833587,None,0,0,0,0,,,,,0,0,0,0,,,,,36,0,36,0,487.15279369999917,,,,,,,,,,,,,,,,,,,,,,,,,,,,,,,,,,,,,,,,,,,,,,,,,,,,,,,,,,Auto,3.1513,487.1380086999998,487.1385418000027,487.13865290000103,487.15279369999917,490.3027155000018,490.28772799999933,490.29071470000054,490.3027155000018,490.3027155000018,490.3027155000018,490.3027155000018,492.28721679999944,3,1.3382577000011224,0.29639939999833587,None,492.3027078000014,492.3027078000014,492.3027078000014,492.3027078000014,,,,,,,,,,,,,,,,,,,,,7465,1,2025-07-21_18h55.53.232,sm,2024.2.4,59.91629693318451,2025-07-21 18h56.05.154897 +0200,
37,0,37,,,,,,space,24.639959899999667,None,None,2,1.3829717000007804,0.22872239999924204,None,0,0,0,0,,,,,0,0,0,0,,,,,37,0,37,0,492.3027078000014,,,,,,,,,,,,,,,,,,,,,,,,,,,,,,,,,,,,,,,,,,,,,,,,,,,,,,,,,,Arm,2.3136,492.2877322000022,492.2882436,492.2883495999995,492.3027078000014,494.61909150000065,494.6032231999998,494.60613960000046,494.61909150000065,494.61909150000065,494.61909150000065,494.61909150000065,496.6036649000016,2,1.3829717000007804,0.22872239999924204,None,496.61904960000174,496.61904960000174,496.61904960000174,496.61904960000174,,,,,,,,,,,,,,,,,,,,,7465,1,2025-07-21_18h55.53.232,sm,2024.2.4,59.91629693318451,2025-07-21 18h56.05.154897 +0200,
38,0,38,,,,,,space,24.639959899999667,None,None,3,1.0767876999998407,0.26663900000130525,None,0,0,0,0,,,,,0,0,0,0,,,,,38,0,38,0,496.61904960000174,,,,,,,,,,,,,,,,,,,,,,,,,,,,,,,,,,,,,,,,,,,,,,,,,,,,,,,,,,Hammer,2.1329,496.6041750000004,496.60470780000105,496.60481210000216,496.61904960000174,498.75193130000116,498.7370210000008,498.7403813000019,498.75193130000116,498.75193130000116,498.75193130000116,498.75193130000116,500.73667170000044,3,1.0767876999998407,0.26663900000130525,None,500.7520963999996,500.7520963999996,500.7520963999996,500.7520963999996,,,,,,,,,,,,,,,,,,,,,7465,1,2025-07-21_18h55.53.232,sm,2024.2.4,59.91629693318451,2025-07-21 18h56.05.154897 +0200,
39,0,39,,,,,,space,24.639959899999667,None,None,2,1.1488680000002205,0.19581560000005993,None,0,0,0,0,,,,,0,0,0,0,,,,,39,0,39,0,500.7520963999996,,,,,,,,,,,,,,,,,,,,,,,,,,,,,,,,,,,,,,,,,,,,,,,,,,,,,,,,,,Sterne,3.0164,500.7371772000006,500.7376937000008,500.73779959999956,500.7520963999996,503.7682377000019,503.75291560000187,503.75616570000057,503.7682377000019,503.7682377000019,503.7682377000019,503.7682377000019,505.75290329999916,2,1.1488680000002205,0.19581560000005993,None,505.7685605000006,505.7685605000006,505.7685605000006,505.7685605000006,,,,,,,,,,,,,,,,,,,,,7465,1,2025-07-21_18h55.53.232,sm,2024.2.4,59.91629693318451,2025-07-21 18h56.05.154897 +0200,
40,0,40,,,,,,space,24.639959899999667,None,None,2,1.147535299998708,0.19145530000241706,None,0,0,0,0,,,,,0,0,0,0,,,,,40,0,40,0,505.7685605000006,,,,,,,,,,,,,,,,,,,,,,,,,,,,,,,,,,,,,,,,,,,,,,,,,,,,,,,,,,Orange,2.3546,505.75337280000167,505.75386880000224,505.7539695000014,505.7685605000006,508.13467370000217,508.1193123000012,508.1261025999993,508.13467370000217,508.13467370000217,508.13467370000217,508.13467370000217,510.1192341999995,2,1.147535299998708,0.19145530000241706,None,510.1352255999991,510.1352255999991,510.1352255999991,510.1352255999991,,,,,,,,,,,,,,,,,,,,,7465,1,2025-07-21_18h55.53.232,sm,2024.2.4,59.91629693318451,2025-07-21 18h56.05.154897 +0200,
41,0,41,,,,,,space,24.639959899999667,None,None,3,1.7401490000011108,None,None,0,0,0,0,,,,,0,0,0,0,,,,,41,0,41,0,510.1352255999991,,,,,,,,,,,,,,,,,,,,,,,,,,,,,,,,,,,,,,,,,,,,,,,,,,,,,,,,,,Bart,4.6618,510.1197064000007,510.1202056000002,510.12030530000266,510.1352255999991,514.8010601000024,514.7858326000023,514.789306300001,514.8010601000024,514.8010601000024,514.8010601000024,514.8010601000024,516.7856974000024,3,1.7401490000011108,None,None,516.8011375999995,516.8011375999995,516.8011375999995,516.8011375999995,,,,,,,,,,,,,,,,,,,,,7465,1,2025-07-21_18h55.53.232,sm,2024.2.4,59.91629693318451,2025-07-21 18h56.05.154897 +0200,
42,0,42,,,,,,space,24.639959899999667,None,None,2,0.9069896000000881,0.21097670000017388,None,0,0,0,0,,,,,0,0,0,0,,,,,42,0,42,0,516.8011375999995,,,,,,,,,,,,,,,,,,,,,,,,,,,,,,,,,,,,,,,,,,,,,,,,,,,,,,,,,,Film,2.8836,516.786203300002,516.7867890000016,516.7868974000012,516.8011375999995,519.6842821999999,519.6689798000007,519.6725556000019,519.6842821999999,519.6842821999999,519.6842821999999,519.6842821999999,521.6689452999999,2,0.9069896000000881,0.21097670000017388,None,521.6842915000016,521.6842915000016,521.6842915000016,521.6842915000016,,,,,,,,,,,,,,,,,,,,,7465,1,2025-07-21_18h55.53.232,sm,2024.2.4,59.91629693318451,2025-07-21 18h56.05.154897 +0200,
43,0,43,,,,,,space,24.639959899999667,None,None,2,1.711746699998912,0.17017249999844353,None,0,0,0,0,,,,,0,0,0,0,,,,,43,0,43,0,521.6842915000016,,,,,,,,,,,,,,,,,,,,,,,,,,,,,,,,,,,,,,,,,,,,,,,,,,,,,,,,,,Koch,2.0107,521.6694500000012,521.6699644,521.6700683000017,521.6842915000016,523.7008456000003,523.6851376000013,523.6885408000016,523.7008456000003,523.7008456000003,523.7008456000003,523.7008456000003,525.6853124000008,2,1.711746699998912,0.17017249999844353,None,525.7010446000022,525.7010446000022,525.7010446000022,525.7010446000022,,,,,,,,,,,,,,,,,,,,,7465,1,2025-07-21_18h55.53.232,sm,2024.2.4,59.91629693318451,2025-07-21 18h56.05.154897 +0200,
44,0,44,,,,,,space,24.639959899999667,None,None,3,1.1730750999995507,0.25201190000007045,None,0,0,0,0,,,,,0,0,0,0,,,,,44,0,44,0,525.7010446000022,,,,,,,,,,,,,,,,,,,,,,,,,,,,,,,,,,,,,,,,,,,,,,,,,,,,,,,,,,Sauber,2.5071,525.6858123999991,525.6864117000005,525.6865209999996,525.7010446000022,528.2169022000016,528.2016836000003,528.2053677000004,528.2169022000016,528.2169022000016,528.2169022000016,528.2169022000016,530.2015171000021,3,1.1730750999995507,0.25201190000007045,None,530.2170707000005,530.2170707000005,530.2170707000005,530.2170707000005,,,,,,,,,,,,,,,,,,,,,7465,1,2025-07-21_18h55.53.232,sm,2024.2.4,59.91629693318451,2025-07-21 18h56.05.154897 +0200,
45,0,45,,,,,,space,24.639959899999667,None,None,None,,,None,0,0,0,0,,,,,0,0,0,0,,,,,45,0,45,0,530.2170707000005,,,,,,,,,,,,,,,,,,,,,,,,,,,,,,,,,,,,,,,,,,,,,,,,,,,,,,,,,,Klippe,2.9626,530.2020233000003,530.2026757999993,530.2027830000006,530.2170707000005,533.1837446000027,533.1678476000016,533.1717991000005,533.1837446000027,533.1837446000027,533.1837446000027,533.1837446000027,535.1678571000011,None,,,None,535.1834982,535.1834982,535.1834982,535.1834982,,,,,,,,,,,,,,,,,,,,,7465,1,2025-07-21_18h55.53.232,sm,2024.2.4,59.91629693318451,2025-07-21 18h56.05.154897 +0200,
46,0,46,,,,,,space,24.639959899999667,None,None,2,1.300804700000299,0.20642470000166213,None,0,0,0,0,,,,,0,0,0,0,,,,,46,0,46,0,535.1834982,,,,,,,,,,,,,,,,,,,,,,,,,,,,,,,,,,,,,,,,,,,,,,,,,,,,,,,,,,Gras,2.7167,535.1683309,535.1688596999993,535.1689661000019,535.1834982,537.8998955999996,537.8845686000022,537.8881529999999,537.8998955999996,537.8998955999996,537.8998955999996,537.8998955999996,539.8840020999996,2,1.300804700000299,0.20642470000166213,None,539.9000025999994,539.9000025999994,539.9000025999994,539.9000025999994,,,,,,,,,,,,,,,,,,,,,7465,1,2025-07-21_18h55.53.232,sm,2024.2.4,59.91629693318451,2025-07-21 18h56.05.154897 +0200,
47,0,47,,,,,,space,24.639959899999667,None,None,3,1.068244500002038,0.2712022999985493,None,0,0,0,0,,,,,0,0,0,0,,,,,47,0,47,0,539.9000025999994,,,,,,,,,,,,,,,,,,,,,,,,,,,,,,,,,,,,,,,,,,,,,,,,,,,,,,,,,,Scheidung,3.329,539.8844280000012,539.8848906000021,539.8849776999996,539.9000025999994,543.2332322000002,543.2172948000007,543.2221123000018,543.2332322000002,543.2332322000002,543.2332322000002,543.2332322000002,545.217567300002,3,1.068244500002038,0.2712022999985493,None,545.2327847000015,545.2327847000015,545.2327847000015,545.2327847000015,,,,,,,,,,,,,,,,,,,,,7465,1,2025-07-21_18h55.53.232,sm,2024.2.4,59.91629693318451,2025-07-21 18h56.05.154897 +0200,
48,0,48,,,,,,space,24.639959899999667,None,None,3,1.1747136999983923,0.24872809999942547,None,0,0,0,0,,,,,0,0,0,0,,,,,48,0,48,0,545.2327847000015,,,,,,,,,,,,,,,,,,,,,,,,,,,,,,,,,,,,,,,,,,,,,,,,,,,,,,,,,,Diamant,2.47,545.2180399999997,545.2185420999995,545.2186500000025,545.2327847000015,547.7160377,547.7003920999996,547.7046283000018,547.7160377,547.7160377,547.7160377,547.7160377,549.7002809000005,3,1.1747136999983923,0.24872809999942547,None,549.7161111999994,549.7161111999994,549.7161111999994,549.7161111999994,,,,,,,,,,,,,,,,,,,,,7465,1,2025-07-21_18h55.53.232,sm,2024.2.4,59.91629693318451,2025-07-21 18h56.05.154897 +0200,
49,0,49,,,,,,space,24.639959899999667,None,None,3,1.8045364999998128,None,None,0,0,0,0,,,,,0,0,0,0,,,,,49,0,49,0,549.7161111999994,,,,,,,,,,,,,,,,,,,,,,,,,,,,,,,,,,,,,,,,,,,,,,,,,,,,,,,,,,Arbeit,2.1461,549.7007080000003,549.7013256999999,549.7014249999993,549.7161111999994,551.8655276000027,551.8502074999997,551.8537732000004,551.8655276000027,551.8655276000027,551.8655276000027,551.8655276000027,553.850445,3,1.8045364999998128,None,None,553.8658238000025,553.8658238000025,553.8658238000025,553.8658238000025,,,,,,,,,,,,,,,,,,,,,7465,1,2025-07-21_18h55.53.232,sm,2024.2.4,59.91629693318451,2025-07-21 18h56.05.154897 +0200,
50,0,50,,,,,,space,24.639959899999667,None,None,2,1.2970993999988423,0.1775612999990699,None,0,0,0,0,,,,,0,0,0,0,,,,,50,0,50,0,553.8658238000025,,,,,,,,,,,,,,,,,,,,,,,,,,,,,,,,,,,,,,,,,,,,,,,,,,,,,,,,,,Essen,2.0671,553.8509455000021,553.8514988999996,553.8516041000003,553.8658238000025,555.9321958,555.916876700001,555.9209245999991,555.9321958,555.9321958,555.9321958,555.9321958,557.9166802,2,1.2970993999988423,0.1775612999990699,None,557.9321325000019,557.9321325000019,557.9321325000019,557.9321325000019,,,,,,,,,,,,,,,,,,,,,7465,1,2025-07-21_18h55.53.232,sm,2024.2.4,59.91629693318451,2025-07-21 18h56.05.154897 +0200,
51,0,51,,,,,,space,24.639959899999667,None,None,2,1.7599364000016067,0.18813919999956852,None,0,0,0,0,,,,,0,0,0,0,,,,,51,0,51,0,557.9321325000019,,,,,,,,,,,,,,,,,,,,,,,,,,,,,,,,,,,,,,,,,,,,,,,,,,,,,,,,,,Bücher,4.0048,557.9171884000025,557.9176929999994,557.9178066999993,557.9321325000019,561.9487805999997,561.9327082000018,561.9362943000015,561.9487805999997,561.9487805999997,561.9487805999997,561.9487805999997,563.9331039999997,2,1.7599364000016067,0.18813919999956852,None,563.9484537999997,563.9484537999997,563.9484537999997,563.9484537999997,,,,,,,,,,,,,,,,,,,,,7465,1,2025-07-21_18h55.53.232,sm,2024.2.4,59.91629693318451,2025-07-21 18h56.05.154897 +0200,
52,0,52,,,,,,space,24.639959899999667,None,None,3,1.4385628999989422,0.2628648999998404,None,0,0,0,0,,,,,0,0,0,0,,,,,52,0,52,0,563.9484537999997,,,,,,,,,,,,,,,,,,,,,,,,,,,,,,,,,,,,,,,,,,,,,,,,,,,,,,,,,,Kartoffel,2.5978,563.9336117999992,563.9341176000016,563.9342354,563.9484537999997,566.5481798000001,566.5330109999995,566.5371154000022,566.5481798000001,566.5481798000001,566.5481798000001,566.5481798000001,568.5328437000026,3,1.4385628999989422,0.2628648999998404,None,568.5482097999993,568.5482097999993,568.5482097999993,568.5482097999993,,,,,,,,,,,,,,,,,,,,,7465,1,2025-07-21_18h55.53.232,sm,2024.2.4,59.91629693318451,2025-07-21 18h56.05.154897 +0200,
53,0,53,,,,,,space,24.639959899999667,None,None,2,1.5999464000014996,0.17669820000082836,None,0,0,0,0,,,,,0,0,0,0,,,,,53,0,53,0,568.5482097999993,,,,,,,,,,,,,,,,,,,,,,,,,,,,,,,,,,,,,,,,,,,,,,,,,,,,,,,,,,Wissen,2.0669,568.5333557000013,568.533882300002,568.5339877000006,568.5482097999993,570.6145350000006,570.599073100002,570.6024101000003,570.6145350000006,570.6145350000006,570.6145350000006,570.6145350000006,572.5992363000005,2,1.5999464000014996,0.17669820000082836,None,572.6146460000018,572.6146460000018,572.6146460000018,572.6146460000018,,,,,,,,,,,,,,,,,,,,,7465,1,2025-07-21_18h55.53.232,sm,2024.2.4,59.91629693318451,2025-07-21 18h56.05.154897 +0200,
54,0,54,,,,,,space,24.639959899999667,None,None,2,1.056850900000427,0.18151209999996354,None,0,0,0,0,,,,,0,0,0,0,,,,,54,0,54,0,572.6146460000018,,,,,,,,,,,,,,,,,,,,,,,,,,,,,,,,,,,,,,,,,,,,,,,,,,,,,,,,,,Fisch,4.7939,572.5997337000008,572.6002499000024,572.6003536999997,572.6146460000018,577.4143304000027,577.3989871000012,577.4038376999997,577.4143304000027,577.4143304000027,577.4143304000027,577.4143304000027,579.3993076000006,2,1.056850900000427,0.18151209999996354,None,579.414294000002,579.414294000002,579.414294000002,579.414294000002,,,,,,,,,,,,,,,,,,,,,7465,1,2025-07-21_18h55.53.232,sm,2024.2.4,59.91629693318451,2025-07-21 18h56.05.154897 +0200,
55,0,55,,,,,,space,24.639959899999667,None,None,3,1.0624214999988908,0.24992520000159857,None,0,0,0,0,,,,,0,0,0,0,,,,,55,0,55,0,579.414294000002,,,,,,,,,,,,,,,,,,,,,,,,,,,,,,,,,,,,,,,,,,,,,,,,,,,,,,,,,,Marmor,2.2526,579.3998062999999,579.4004781000003,579.4005897000025,579.414294000002,581.6807700000027,581.6651667000006,581.669208700001,581.6807700000027,581.6807700000027,581.6807700000027,581.6807700000027,583.6652367999995,3,1.0624214999988908,0.24992520000159857,None,583.6808676,583.6808676,583.6808676,583.6808676,,,,,,,,,,,,,,,,,,,,,7465,1,2025-07-21_18h55.53.232,sm,2024.2.4,59.91629693318451,2025-07-21 18h56.05.154897 +0200,
56,0,56,,,,,,space,24.639959899999667,None,None,2,1.1319912999970256,0.2522969000019657,None,0,0,0,0,,,,,0,0,0,0,,,,,56,0,56,0,583.6808676,,,,,,,,,,,,,,,,,,,,,,,,,,,,,,,,,,,,,,,,,,,,,,,,,,,,,,,,,,Erde,2.778,583.6657422000026,583.6662708000003,583.6663751000015,583.6808676,586.4637072000005,586.4480401000001,586.4513590999995,586.4637072000005,586.4637072000005,586.4637072000005,586.4637072000005,588.4483650000002,2,1.1319912999970256,0.2522969000019657,None,588.4639563000019,588.4639563000019,588.4639563000019,588.4639563000019,,,,,,,,,,,,,,,,,,,,,7465,1,2025-07-21_18h55.53.232,sm,2024.2.4,59.91629693318451,2025-07-21 18h56.05.154897 +0200,
57,0,57,,,,,,space,24.639959899999667,None,None,2,1.280838799997582,0.22067770000285236,None,0,0,0,0,,,,,0,0,0,0,,,,,57,0,57,0,588.4639563000019,,,,,,,,,,,,,,,,,,,,,,,,,,,,,,,,,,,,,,,,,,,,,,,,,,,,,,,,,,Club,4.504,588.4488683000018,588.4493875000007,588.4494919999997,588.4639563000019,592.9798850000006,592.9642875999998,592.9707820000003,592.9798850000006,592.9798850000006,592.9798850000006,592.9798850000006,594.964686700001,2,1.280838799997582,0.22067770000285236,None,594.9803882000015,594.9803882000015,594.9803882000015,594.9803882000015,,,,,,,,,,,,,,,,,,,,,7465,1,2025-07-21_18h55.53.232,sm,2024.2.4,59.91629693318451,2025-07-21 18h56.05.154897 +0200,
58,0,58,,,,,,space,24.639959899999667,None,None,3,1.5563808999977482,0.2752857000014046,None,0,0,0,0,,,,,0,0,0,0,,,,,58,0,58,0,594.9803882000015,,,,,,,,,,,,,,,,,,,,,,,,,,,,,,,,,,,,,,,,,,,,,,,,,,,,,,,,,,Nachricht,2.1514,594.9651994000014,594.9659245000003,594.9660375000021,594.9803882000015,597.1464197999994,597.1306542999992,597.1342449000003,597.1464197999994,597.1464197999994,597.1464197999994,597.1464197999994,599.1311037000014,3,1.5563808999977482,0.2752857000014046,None,599.1464596000005,599.1464596000005,599.1464596000005,599.1464596000005,,,,,,,,,,,,,,,,,,,,,7465,1,2025-07-21_18h55.53.232,sm,2024.2.4,59.91629693318451,2025-07-21 18h56.05.154897 +0200,
59,0,59,,,,,,space,24.639959899999667,None,None,3,1.9141811999979836,None,None,0,0,0,0,,,,,0,0,0,0,,,,,59,0,59,0,599.1464596000005,,,,,,,,,,,,,,,,,,,,,,,,,,,,,,,,,,,,,,,,,,,,,,,,,,,,,,,,,,Kapitel,2.7004,599.1316101000011,599.1321390000012,599.1322473,599.1464596000005,601.8461658000015,601.8307391000017,601.8344434999999,601.8461658000015,601.8461658000015,601.8461658000015,601.8461658000015,603.8307468000021,3,1.9141811999979836,None,None,603.8462403000012,603.8462403000012,603.8462403000012,603.8462403000012,,,,,,,,,,,,,,,,,,,,,7465,1,2025-07-21_18h55.53.232,sm,2024.2.4,59.91629693318451,2025-07-21 18h56.05.154897 +0200,
60,0,60,,,,,,space,24.639959899999667,None,None,2,1.031876499997452,0.20242510000025504,None,0,0,0,0,,,,,0,0,0,0,,,,,60,0,60,0,603.8462403000012,,,,,,,,,,,,,,,,,,,,,,,,,,,,,,,,,,,,,,,,,,,,,,,,,,,,,,,,,,Fliegen,5.2763,603.8312527000016,603.8319474000018,603.8320530000019,603.8462403000012,609.1292223000019,609.1133303999995,609.1171931999997,609.1292223000019,609.1292223000019,609.1292223000019,609.1292223000019,611.1137756999997,2,1.031876499997452,0.20242510000025504,None,611.1291273000024,611.1291273000024,611.1291273000024,611.1291273000024,,,,,,,,,,,,,,,,,,,,,7465,1,2025-07-21_18h55.53.232,sm,2024.2.4,59.91629693318451,2025-07-21 18h56.05.154897 +0200,
61,0,61,,,,,,space,24.639959899999667,None,None,3,1.494898999997531,0.2437327000006917,None,0,0,0,0,,,,,0,0,0,0,,,,,61,0,61,0,611.1291273000024,,,,,,,,,,,,,,,,,,,,,,,,,,,,,,,,,,,,,,,,,,,,,,,,,,,,,,,,,,Zahnpasta,3.7952,611.1142731,611.1149236000019,611.1150318,611.1291273000024,614.9288386000007,614.9132892000016,614.9175877000016,614.9288386000007,614.9288386000007,614.9288386000007,614.9288386000007,616.9133311000005,3,1.494898999997531,0.2437327000006917,None,616.9290373000003,616.9290373000003,616.9290373000003,616.9290373000003,,,,,,,,,,,,,,,,,,,,,7465,1,2025-07-21_18h55.53.232,sm,2024.2.4,59.91629693318451,2025-07-21 18h56.05.154897 +0200,
62,0,62,,,,,,space,24.639959899999667,None,None,2,1.132908800002042,0.23826550000012503,None,0,0,0,0,,,,,0,0,0,0,,,,,62,0,62,0,616.9290373000003,,,,,,,,,,,,,,,,,,,,,,,,,,,,,,,,,,,,,,,,,,,,,,,,,,,,,,,,,,Känguru,2.4864,616.9138457000008,616.9145443000016,616.914655200002,616.9290373000003,619.428734000001,619.4129322000008,619.4172996000016,619.428734000001,619.428734000001,619.428734000001,619.428734000001,621.4131658000006,2,1.132908800002042,0.23826550000012503,None,621.428560700002,621.428560700002,621.428560700002,621.428560700002,,,,,,,,,,,,,,,,,,,,,7465,1,2025-07-21_18h55.53.232,sm,2024.2.4,59.91629693318451,2025-07-21 18h56.05.154897 +0200,
63,0,63,,,,,,space,24.639959899999667,None,None,3,1.503671900001791,0.2812567000000854,None,0,0,0,0,,,,,0,0,0,0,,,,,63,0,63,0,621.428560700002,,,,,,,,,,,,,,,,,,,,,,,,,,,,,,,,,,,,,,,,,,,,,,,,,,,,,,,,,,Datei,2.1403,621.4136710000021,621.414269500001,621.4143776000019,621.428560700002,623.5785348999998,623.5629711000001,623.5669249999992,623.5785348999998,623.5785348999998,623.5785348999998,623.5785348999998,625.562675600002,3,1.503671900001791,0.2812567000000854,None,625.5780833000026,625.5780833000026,625.5780833000026,625.5780833000026,,,,,,,,,,,,,,,,,,,,,7465,1,2025-07-21_18h55.53.232,sm,2024.2.4,59.91629693318451,2025-07-21 18h56.05.154897 +0200,
64,0,64,,,,,,space,24.639959899999667,None,None,2,1.9361127999982273,None,None,0,0,0,0,,,,,0,0,0,0,,,,,64,0,64,0,625.5780833000026,,,,,,,,,,,,,,,,,,,,,,,,,,,,,,,,,,,,,,,,,,,,,,,,,,,,,,,,,,Garten,2.6695,625.5631601999994,625.5636513000027,625.5637506999992,625.5780833000026,628.2615984000004,628.2459139999992,628.2499394000006,628.2615984000004,628.2615984000004,628.2615984000004,628.2615984000004,630.2459646999996,2,1.9361127999982273,None,None,630.2614262000025,630.2614262000025,630.2614262000025,630.2614262000025,,,,,,,,,,,,,,,,,,,,,7465,1,2025-07-21_18h55.53.232,sm,2024.2.4,59.91629693318451,2025-07-21 18h56.05.154897 +0200,
65,0,65,,,,,,space,24.639959899999667,None,None,3,1.8595689999965543,None,None,0,0,0,0,,,,,0,0,0,0,,,,,65,0,65,0,630.2614262000025,,,,,,,,,,,,,,,,,,,,,,,,,,,,,,,,,,,,,,,,,,,,,,,,,,,,,,,,,,Raum,2.0468,630.2464617000005,630.2471669000006,630.2472715000004,630.2614262000025,632.3111465000002,632.295661600001,632.2986889000022,632.3111465000002,632.3111465000002,632.3111465000002,632.3111465000002,634.2953887000003,3,1.8595689999965543,None,None,634.3111740999993,634.3111740999993,634.3111740999993,634.3111740999993,,,,,,,,,,,,,,,,,,,,,7465,1,2025-07-21_18h55.53.232,sm,2024.2.4,59.91629693318451,2025-07-21 18h56.05.154897 +0200,
66,0,66,,,,,,space,24.639959899999667,None,None,3,1.6817087999988871,0.23330170000190265,None,0,0,0,0,,,,,0,0,0,0,,,,,66,0,66,0,634.3111740999993,,,,,,,,,,,,,,,,,,,,,,,,,,,,,,,,,,,,,,,,,,,,,,,,,,,,,,,,,,Schwarz,2.2195,634.2959105000009,634.2964601999993,634.2965724000023,634.3111740999993,636.5444052000021,636.5284441000003,636.5315434000004,636.5444052000021,636.5444052000021,636.5444052000021,636.5444052000021,638.5286782000003,3,1.6817087999988871,0.23330170000190265,None,638.5443541000022,638.5443541000022,638.5443541000022,638.5443541000022,,,,,,,,,,,,,,,,,,,,,7465,1,2025-07-21_18h55.53.232,sm,2024.2.4,59.91629693318451,2025-07-21 18h56.05.154897 +0200,
67,0,67,,,,,,space,24.639959899999667,None,None,2,1.6774736999977904,0.18391510000219569,None,0,0,0,0,,,,,0,0,0,0,,,,,67,0,67,0,638.5443541000022,,,,,,,,,,,,,,,,,,,,,,,,,,,,,,,,,,,,,,,,,,,,,,,,,,,,,,,,,,Präsident,5.965,638.5291857000011,638.5296890999998,638.5297964000019,638.5443541000022,644.5114635000027,644.4948175000027,644.5040236999994,644.5114635000027,644.5114635000027,644.5114635000027,644.5114635000027,646.4949777000002,2,1.6774736999977904,0.18391510000219569,None,646.5107017000009,646.5107017000009,646.5107017000009,646.5107017000009,,,,,,,,,,,,,,,,,,,,,7465,1,2025-07-21_18h55.53.232,sm,2024.2.4,59.91629693318451,2025-07-21 18h56.05.154897 +0200,
68,0,68,,,,,,space,24.639959899999667,None,None,2,1.029484800001228,0.17820489999940037,None,0,0,0,0,,,,,0,0,0,0,,,,,68,0,68,0,646.5107017000009,,,,,,,,,,,,,,,,,,,,,,,,,,,,,,,,,,,,,,,,,,,,,,,,,,,,,,,,,,Bruder,4.0718,646.4954878999997,646.4963277000024,646.4964335000004,646.5107017000009,650.5938351000004,650.5779020000009,650.5820681000005,650.5938351000004,650.5938351000004,650.5938351000004,650.5938351000004,652.5777850000013,2,1.029484800001228,0.17820489999940037,None,652.5934694000025,652.5934694000025,652.5934694000025,652.5934694000025,,,,,,,,,,,,,,,,,,,,,7465,1,2025-07-21_18h55.53.232,sm,2024.2.4,59.91629693318451,2025-07-21 18h56.05.154897 +0200,
69,0,69,,,,,,space,24.639959899999667,None,None,2,1.3637495000002673,0.2054098000007798,None,0,0,0,0,,,,,0,0,0,0,,,,,69,0,69,0,652.5934694000025,,,,,,,,,,,,,,,,,,,,,,,,,,,,,,,,,,,,,,,,,,,,,,,,,,,,,,,,,,Pizza,2.0537,652.5782939000019,652.578812300002,652.578921700002,652.5934694000025,654.6601382000008,654.6443537000014,654.648785100002,654.6601382000008,654.6601382000008,654.6601382000008,654.6601382000008,656.6445889999995,2,1.3637495000002673,0.2054098000007798,None,656.6599248999992,656.6599248999992,656.6599248999992,656.6599248999992,,,,,,,,,,,,,,,,,,,,,7465,1,2025-07-21_18h55.53.232,sm,2024.2.4,59.91629693318451,2025-07-21 18h56.05.154897 +0200,
70,0,70,,,,,,space,24.639959899999667,None,None,2,0.9666208999988157,0.18367080000098213,None,0,0,0,0,,,,,0,0,0,0,,,,,70,0,70,0,656.6599248999992,,,,,,,,,,,,,,,,,,,,,,,,,,,,,,,,,,,,,,,,,,,,,,,,,,,,,,,,,,Gespräch,2.0184,656.6451008000004,656.6456319000026,656.6457489999993,656.6599248999992,658.6931392000006,658.6776040000004,658.6818033000018,658.6931392000006,658.6931392000006,658.6931392000006,658.6931392000006,660.6776710000013,2,0.9666208999988157,0.18367080000098213,None,660.6935168000018,660.6935168000018,660.6935168000018,660.6935168000018,,,,,,,,,,,,,,,,,,,,,7465,1,2025-07-21_18h55.53.232,sm,2024.2.4,59.91629693318451,2025-07-21 18h56.05.154897 +0200,
71,0,71,,,,,,space,24.639959899999667,None,None,3,1.1974559000009322,0.25130149999677087,None,0,0,0,0,,,,,0,0,0,0,,,,,71,0,71,0,660.6935168000018,,,,,,,,,,,,,,,,,,,,,,,,,,,,,,,,,,,,,,,,,,,,,,,,,,,,,,,,,,Schuh,2.9657,660.6782139999996,660.6788956000019,660.6790036999992,660.6935168000018,663.6594220000006,663.6439377999995,663.6478960999993,663.6594220000006,663.6594220000006,663.6594220000006,663.6594220000006,665.6440774000002,3,1.1974559000009322,0.25130149999677087,None,665.6597814000015,665.6597814000015,665.6597814000015,665.6597814000015,,,,,,,,,,,,,,,,,,,,,7465,1,2025-07-21_18h55.53.232,sm,2024.2.4,59.91629693318451,2025-07-21 18h56.05.154897 +0200,
72,0,72,,,,,,space,24.639959899999667,None,None,2,0.8933073000007425,0.20367090000218013,None,0,0,0,0,,,,,0,0,0,0,,,,,72,0,72,0,665.6597814000015,,,,,,,,,,,,,,,,,,,,,,,,,,,,,,,,,,,,,,,,,,,,,,,,,,,,,,,,,,Komödie,2.1789,665.6446254000002,665.6454420000009,665.6455795000002,665.6597814000015,667.8422554999997,667.8267374999996,667.8301911000017,667.8422554999997,667.8422554999997,667.8422554999997,667.8422554999997,669.8268659999994,2,0.8933073000007425,0.20367090000218013,None,669.8423435000004,669.8423435000004,669.8423435000004,669.8423435000004,,,,,,,,,,,,,,,,,,,,,7465,1,2025-07-21_18h55.53.232,sm,2024.2.4,59.91629693318451,2025-07-21 18h56.05.154897 +0200,
73,0,73,,,,,,space,24.639959899999667,None,None,2,1.3628158999999869,0.19177959999797167,None,0,0,0,0,,,,,0,0,0,0,,,,,73,0,73,0,669.8423435000004,,,,,,,,,,,,,,,,,,,,,,,,,,,,,,,,,,,,,,,,,,,,,,,,,,,,,,,,,,Tee,2.7165,669.8273771999993,669.8278949000014,669.8280087000021,669.8423435000004,672.5586987999995,672.5429836000003,672.5468589000011,672.5586987999995,672.5586987999995,672.5586987999995,672.5586987999995,674.5432985000007,2,1.3628158999999869,0.19177959999797167,None,674.5593002000023,674.5593002000023,674.5593002000023,674.5593002000023,,,,,,,,,,,,,,,,,,,,,7465,1,2025-07-21_18h55.53.232,sm,2024.2.4,59.91629693318451,2025-07-21 18h56.05.154897 +0200,
74,0,74,,,,,,space,24.639959899999667,None,None,None,,,None,0,0,0,0,,,,,0,0,0,0,,,,,74,0,74,0,674.5593002000023,,,,,,,,,,,,,,,,,,,,,,,,,,,,,,,,,,,,,,,,,,,,,,,,,,,,,,,,,,Ringe,2.8537,674.5438123000022,674.5443386000006,674.5444482999992,674.5593002000023,677.4251235000011,677.4097610000026,677.4132530000024,677.4251235000011,677.4251235000011,677.4251235000011,677.4251235000011,679.4094980000009,None,,,None,679.4250997000017,679.4250997000017,679.4250997000017,679.4250997000017,,,,,,,,,,,,,,,,,,,,,7465,1,2025-07-21_18h55.53.232,sm,2024.2.4,59.91629693318451,2025-07-21 18h56.05.154897 +0200,
75,0,75,,,,,,space,24.639959899999667,None,None,2,1.0100424000011117,0.18110009999873,None,0,0,0,0,,,,,0,0,0,0,,,,,75,0,75,0,679.4250997000017,,,,,,,,,,,,,,,,,,,,,,,,,,,,,,,,,,,,,,,,,,,,,,,,,,,,,,,,,,Kopf,3.816,679.4099547000005,679.4104675000017,679.4105777000004,679.4250997000017,683.2416962999996,683.2262308999998,683.2299796000007,683.2416962999996,683.2416962999996,683.2416962999996,683.2416962999996,685.225854700002,2,1.0100424000011117,0.18110009999873,None,685.2414778999992,685.2414778999992,685.2414778999992,685.2414778999992,,,,,,,,,,,,,,,,,,,,,7465,1,2025-07-21_18h55.53.232,sm,2024.2.4,59.91629693318451,2025-07-21 18h56.05.154897 +0200,
76,0,76,,,,,,space,24.639959899999667,None,None,2,1.1986835999996401,0.18956289999914588,None,0,0,0,0,,,,,0,0,0,0,,,,,76,0,76,0,685.2414778999992,,,,,,,,,,,,,,,,,,,,,,,,,,,,,,,,,,,,,,,,,,,,,,,,,,,,,,,,,,Augen,3.2393,685.2262808000014,685.2267499000009,685.2268399999994,685.2414778999992,688.491324300001,688.4757688000027,688.4797307000008,688.491324300001,688.491324300001,688.491324300001,688.491324300001,690.4758404000022,2,1.1986835999996401,0.18956289999914588,None,690.4911837,690.4911837,690.4911837,690.4911837,,,,,,,,,,,,,,,,,,,,,7465,1,2025-07-21_18h55.53.232,sm,2024.2.4,59.91629693318451,2025-07-21 18h56.05.154897 +0200,
77,0,77,,,,,,space,24.639959899999667,None,None,3,1.5362667000008514,0.23180150000189315,None,0,0,0,0,,,,,0,0,0,0,,,,,77,0,77,0,690.4911837,,,,,,,,,,,,,,,,,,,,,,,,,,,,,,,,,,,,,,,,,,,,,,,,,,,,,,,,,,Vampir,2.5149,690.476363400001,690.4770133999991,690.4771234,690.4911837,693.0076961000013,692.9918930000022,692.9953618,693.0076961000013,693.0076961000013,693.0076961000013,693.0076961000013,694.9920277000019,3,1.5362667000008514,0.23180150000189315,None,695.0077526000023,695.0077526000023,695.0077526000023,695.0077526000023,,,,,,,,,,,,,,,,,,,,,7465,1,2025-07-21_18h55.53.232,sm,2024.2.4,59.91629693318451,2025-07-21 18h56.05.154897 +0200,
78,0,78,,,,,,space,24.639959899999667,None,None,2,1.2785394999991695,0.17757560000245576,None,0,0,0,0,,,,,0,0,0,0,,,,,78,0,78,0,695.0077526000023,,,,,,,,,,,,,,,,,,,,,,,,,,,,,,,,,,,,,,,,,,,,,,,,,,,,,,,,,,Hütte,2.1844,694.9925431000011,694.9930449000021,694.9931571000016,695.0077526000023,697.2074923,697.1916911000008,697.1950051000022,697.2074923,697.2074923,697.2074923,697.2074923,699.1920716999994,2,1.2785394999991695,0.17757560000245576,None,699.2073504,699.2073504,699.2073504,699.2073504,,,,,,,,,,,,,,,,,,,,,7465,1,2025-07-21_18h55.53.232,sm,2024.2.4,59.91629693318451,2025-07-21 18h56.05.154897 +0200,
79,0,79,,,,,,space,24.639959899999667,None,None,2,0.9826485999983561,0.19277970000257483,None,0,0,0,0,,,,,0,0,0,0,,,,,79,0,79,0,699.2073504,,,,,,,,,,,,,,,,,,,,,,,,,,,,,,,,,,,,,,,,,,,,,,,,,,,,,,,,,,Riechen,5.6907,699.1925783000006,699.1931397000008,699.1932478000017,699.2073504,704.9068213999999,704.8913444999998,704.8950886999992,704.9068213999999,704.9068213999999,704.9068213999999,704.9068213999999,706.8915153000016,2,0.9826485999983561,0.19277970000257483,None,706.9187526999995,706.9187526999995,706.9187526999995,706.9187526999995,,,,,,,,,,,,,,,,,,,,,7465,1,2025-07-21_18h55.53.232,sm,2024.2.4,59.91629693318451,2025-07-21 18h56.05.154897 +0200,
0,0,0,,,,,2.0184,space,2.3355102999994415,None,None,2,1.393206900000223,0.2244643999983964,None,0,0,0,0,,,,,1,0,1,0,0,79,79,6,0,0,0,0,751.8045583000021,,,,,,,,,,,,,,,,,,,,,,,,,,,,,,,,,,,,724.4574372999996,724.457695000001,724.4639943000002,724.4686422000013,724.4686422000013,726.8078726999993,space,2.3355102999994415,None,726.8080391000003,726.8225153999992,726.8225153999992,739.7878868000007,None,739.7954874000025,739.805285800001,739.8032532666659,741.0114203000012,749.7879145666668,750.7910341000024,751.8045583000021,751.7888043999992,Wohnung,2.0184,751.7903344000006,751.7909347999994,751.7910494000025,751.8045583000021,753.837625600001,753.8217261000027,753.8258528000006,753.837625600001,753.837625600001,753.837625600001,753.837625600001,755.8218231999999,2,1.393206900000223,0.2244643999983964,None,755.8375545000017,755.8375545000017,755.8375545000017,755.8375545000017,718.9065799000018,718.9066604,None,718.9151407999998,718.9236969000012,722.9226906000004,722.9226906000004,722.9226906000004,724.4080140000005,2,1.4668774000019766,None,,,,,,,,,7465,1,2025-07-21_18h55.53.232,sm,2024.2.4,59.91629693318451,2025-07-21 18h56.05.154897 +0200,
1,0,1,,,,,,space,2.3355102999994415,None,None,2,1.0807346000001417,0.19963799999823095,None,0,0,0,0,,,,,1,0,1,0,,,,,1,0,1,0,755.8375545000017,,,,,,,,,,,,,,,,,,,,,,,,,,,,,,,,,,,,,,,,,,,,,,,,,,,,,,,,,,Schwimmen,2.0671,755.8223333999995,755.8229868000017,755.8230973999998,755.8375545000017,757.9039788000009,757.8882449000012,757.892207500001,757.9039788000009,757.9039788000009,757.9039788000009,757.9039788000009,759.8885289000027,2,1.0807346000001417,0.19963799999823095,None,759.9038056999998,759.9038056999998,759.9038056999998,759.9038056999998,,,,,,,,,,,,,,,,,,,,,7465,1,2025-07-21_18h55.53.232,sm,2024.2.4,59.91629693318451,2025-07-21 18h56.05.154897 +0200,
2,0,2,,,,,,space,2.3355102999994415,None,None,2,1.1195212999991782,0.19088879999981145,None,0,0,0,0,,,,,1,0,1,0,,,,,2,0,2,0,759.9038056999998,,,,,,,,,,,,,,,,,,,,,,,,,,,,,,,,,,,,,,,,,,,,,,,,,,,,,,,,,,Zeit,2.663,759.8890382000027,759.8895588000014,759.8896659999991,759.9038056999998,762.5702856999997,762.5546090999997,762.5576671000017,762.5702856999997,762.5702856999997,762.5702856999997,762.5702856999997,764.5548235000024,2,1.1195212999991782,0.19088879999981145,None,764.5701896999999,764.5701896999999,764.5701896999999,764.5701896999999,,,,,,,,,,,,,,,,,,,,,7465,1,2025-07-21_18h55.53.232,sm,2024.2.4,59.91629693318451,2025-07-21 18h56.05.154897 +0200,
3,0,3,,,,,,space,2.3355102999994415,None,None,2,1.0096066999976756,0.20754030000171042,None,0,0,0,0,,,,,1,0,1,0,,,,,3,0,3,0,764.5701896999999,,,,,,,,,,,,,,,,,,,,,,,,,,,,,,,,,,,,,,,,,,,,,,,,,,,,,,,,,,Geburtstag,4.0718,764.5553768000027,764.5559002000009,764.5560068000013,764.5701896999999,768.6534057000026,768.637631900001,768.6413275000014,768.6534057000026,768.6534057000026,768.6534057000026,768.6534057000026,770.6375422000019,2,1.0096066999976756,0.20754030000171042,None,770.6532398000018,770.6532398000018,770.6532398000018,770.6532398000018,,,,,,,,,,,,,,,,,,,,,7465,1,2025-07-21_18h55.53.232,sm,2024.2.4,59.91629693318451,2025-07-21 18h56.05.154897 +0200,
4,0,4,,,,,,space,2.3355102999994415,None,None,3,1.4392641999984335,0.3065530999992916,None,0,0,0,0,,,,,1,0,1,0,,,,,4,0,4,0,770.6532398000018,,,,,,,,,,,,,,,,,,,,,,,,,,,,,,,,,,,,,,,,,,,,,,,,,,,,,,,,,,Tasche,4.0048,770.6380678000023,770.6385861000017,770.6386908999993,770.6532398000018,774.669905900002,774.6539890000022,774.6581332000023,774.669905900002,774.669905900002,774.669905900002,774.669905900002,776.6542616000006,3,1.4392641999984335,0.3065530999992916,None,776.6699012999998,776.6699012999998,776.6699012999998,776.6699012999998,,,,,,,,,,,,,,,,,,,,,7465,1,2025-07-21_18h55.53.232,sm,2024.2.4,59.91629693318451,2025-07-21 18h56.05.154897 +0200,
5,0,5,,,,,,space,2.3355102999994415,None,None,3,1.1058475000027101,0.4445373999988078,None,0,0,0,0,,,,,1,0,1,0,,,,,5,0,5,0,776.6699012999998,,,,,,,,,,,,,,,,,,,,,,,,,,,,,,,,,,,,,,,,,,,,,,,,,,,,,,,,,,Rolle,2.1844,776.6547711999992,776.655355400002,776.6554625999997,776.6699012999998,778.8694603000004,778.8537404000017,778.8572612999997,778.8694603000004,778.8694603000004,778.8694603000004,778.8694603000004,780.8536320999992,3,1.1058475000027101,0.4445373999988078,None,780.8692914000021,780.8692914000021,780.8692914000021,780.8692914000021,,,,,,,,,,,,,,,,,,,,,7465,1,2025-07-21_18h55.53.232,sm,2024.2.4,59.91629693318451,2025-07-21 18h56.05.154897 +0200,
6,0,6,,,,,,space,2.3355102999994415,None,None,2,1.559104899999511,0.20242589999907068,None,0,0,0,0,,,,,1,0,1,0,,,,,6,0,6,0,780.8692914000021,,,,,,,,,,,,,,,,,,,,,,,,,,,,,,,,,,,,,,,,,,,,,,,,,,,,,,,,,,Blätter,2.47,780.8541370999992,780.8546628000004,780.8547703000004,780.8692914000021,783.3524326000006,783.3369387000021,783.3406782999991,783.3524326000006,783.3524326000006,783.3524326000006,783.3524326000006,785.3368537999995,2,1.559104899999511,0.20242589999907068,None,785.3526195000013,785.3526195000013,785.3526195000013,785.3526195000013,,,,,,,,,,,,,,,,,,,,,7465,1,2025-07-21_18h55.53.232,sm,2024.2.4,59.91629693318451,2025-07-21 18h56.05.154897 +0200,
7,0,7,,,,,,space,2.3355102999994415,None,None,2,1.4262533000000985,0.20655379999880097,None,0,0,0,0,,,,,1,0,1,0,,,,,7,0,7,0,785.3526195000013,,,,,,,,,,,,,,,,,,,,,,,,,,,,,,,,,,,,,,,,,,,,,,,,,,,,,,,,,,Klempner,3.1513,785.337353400002,785.3380042000026,785.3381124000007,785.3526195000013,788.5186047000025,788.5035332000007,788.5083459000016,788.5186047000025,788.5186047000025,788.5186047000025,788.5186047000025,790.5034799999994,2,1.4262533000000985,0.20655379999880097,None,790.5188493000023,790.5188493000023,790.5188493000023,790.5188493000023,,,,,,,,,,,,,,,,,,,,,7465,1,2025-07-21_18h55.53.232,sm,2024.2.4,59.91629693318451,2025-07-21 18h56.05.154897 +0200,
8,0,8,,,,,,space,2.3355102999994415,None,None,2,1.8060283000013442,None,None,0,0,0,0,,,,,1,0,1,0,,,,,8,0,8,0,790.5188493000023,,,,,,,,,,,,,,,,,,,,,,,,,,,,,,,,,,,,,,,,,,,,,,,,,,,,,,,,,,Beugen,3.7952,790.5039930000021,790.5045255000005,790.5046307000011,790.5188493000023,794.3184246000019,794.3031220000012,794.307136200001,794.3184246000019,794.3184246000019,794.3184246000019,794.3184246000019,796.3028603000021,2,1.8060283000013442,None,None,796.3185434000006,796.3185434000006,796.3185434000006,796.3185434000006,,,,,,,,,,,,,,,,,,,,,7465,1,2025-07-21_18h55.53.232,sm,2024.2.4,59.91629693318451,2025-07-21 18h56.05.154897 +0200,
9,0,9,,,,,,space,2.3355102999994415,None,None,2,1.0053994999980205,0.16081730000223615,None,0,0,0,0,,,,,1,0,1,0,,,,,9,0,9,0,796.3185434000006,,,,,,,,,,,,,,,,,,,,,,,,,,,,,,,,,,,,,,,,,,,,,,,,,,,,,,,,,,Wurm,2.0669,796.3033151000018,796.3039585000006,796.3041309,796.3185434000006,798.3849904000017,798.3692257000002,798.3720071000025,798.3849904000017,798.3849904000017,798.3849904000017,798.3849904000017,800.3693668000014,2,1.0053994999980205,0.16081730000223615,None,800.3849014000007,800.3849014000007,800.3849014000007,800.3849014000007,,,,,,,,,,,,,,,,,,,,,7465,1,2025-07-21_18h55.53.232,sm,2024.2.4,59.91629693318451,2025-07-21 18h56.05.154897 +0200,
10,0,10,,,,,,space,2.3355102999994415,None,None,2,0.8839843000023393,0.20817999999781023,None,0,0,0,0,,,,,1,0,1,0,,,,,10,0,10,0,800.3849014000007,,,,,,,,,,,,,,,,,,,,,,,,,,,,,,,,,,,,,,,,,,,,,,,,,,,,,,,,,,Urlaub,2.7581,800.3698407000011,800.3704957000009,800.3705972999996,800.3849014000007,803.1514801000012,803.1356759000009,803.141464700002,803.1514801000012,803.1514801000012,803.1514801000012,803.1514801000012,805.1366171000009,2,0.8839843000023393,0.20817999999781023,None,805.1515260000015,805.1515260000015,805.1515260000015,805.1515260000015,,,,,,,,,,,,,,,,,,,,,7465,1,2025-07-21_18h55.53.232,sm,2024.2.4,59.91629693318451,2025-07-21 18h56.05.154897 +0200,
11,0,11,,,,,,space,2.3355102999994415,None,None,3,1.0763958999996248,0.23435980000067502,None,0,0,0,0,,,,,1,0,1,0,,,,,11,0,11,0,805.1515260000015,,,,,,,,,,,,,,,,,,,,,,,,,,,,,,,,,,,,,,,,,,,,,,,,,,,,,,,,,,Zigarette,2.1789,805.1371385999992,805.137931600002,805.1380484000001,805.1515260000015,807.3346401000017,807.3191179000023,807.3235573999991,807.3346401000017,807.3346401000017,807.3346401000017,807.3346401000017,809.3188026999997,3,1.0763958999996248,0.23435980000067502,None,809.3344882000019,809.3344882000019,809.3344882000019,809.3344882000019,,,,,,,,,,,,,,,,,,,,,7465,1,2025-07-21_18h55.53.232,sm,2024.2.4,59.91629693318451,2025-07-21 18h56.05.154897 +0200,
12,0,12,,,,,,space,2.3355102999994415,None,None,3,1.450278200001776,0.4799991999971098,None,0,0,0,0,,,,,1,0,1,0,,,,,12,0,12,0,809.3344882000019,,,,,,,,,,,,,,,,,,,,,,,,,,,,,,,,,,,,,,,,,,,,,,,,,,,,,,,,,,Saft,2.4864,809.3192992000004,809.3199644000015,809.3200709000012,809.3344882000019,811.8342851000016,811.8186486000013,811.8218321999993,811.8342851000016,811.8342851000016,811.8342851000016,811.8342851000016,813.8186137000012,3,1.450278200001776,0.4799991999971098,None,813.8341541000009,813.8341541000009,813.8341541000009,813.8341541000009,,,,,,,,,,,,,,,,,,,,,7465,1,2025-07-21_18h55.53.232,sm,2024.2.4,59.91629693318451,2025-07-21 18h56.05.154897 +0200,
13,0,13,,,,,,space,2.3355102999994415,None,None,3,1.2731634000010672,0.23576870000033523,None,0,0,0,0,,,,,1,0,1,0,,,,,13,0,13,0,813.8341541000009,,,,,,,,,,,,,,,,,,,,,,,,,,,,,,,,,,,,,,,,,,,,,,,,,,,,,,,,,,Sitzgurt,2.0627,813.8191201000009,813.8197785000011,813.819885500001,813.8341541000009,815.9008763999991,815.8849469000015,815.8899149000026,815.9008763999991,815.9008763999991,815.9008763999991,815.9008763999991,817.8850574999997,3,1.2731634000010672,0.23576870000033523,None,817.9006546000019,817.9006546000019,817.9006546000019,817.9006546000019,,,,,,,,,,,,,,,,,,,,,7465,1,2025-07-21_18h55.53.232,sm,2024.2.4,59.91629693318451,2025-07-21 18h56.05.154897 +0200,
14,0,14,,,,,,space,2.3355102999994415,None,None,3,1.9573481999977957,None,None,0,0,0,0,,,,,1,0,1,0,,,,,14,0,14,0,817.9006546000019,,,,,,,,,,,,,,,,,,,,,,,,,,,,,,,,,,,,,,,,,,,,,,,,,,,,,,,,,,Wahrheit,3.0164,817.8855619000024,817.8861261999991,817.8862322000023,817.9006546000019,820.9173824000027,820.9016310000006,820.9057749999993,820.9173824000027,820.9173824000027,820.9173824000027,820.9173824000027,822.9013250999997,3,1.9573481999977957,None,None,822.9170231000026,822.9170231000026,822.9170231000026,822.9170231000026,,,,,,,,,,,,,,,,,,,,,7465,1,2025-07-21_18h55.53.232,sm,2024.2.4,59.91629693318451,2025-07-21 18h56.05.154897 +0200,
15,0,15,,,,,,space,2.3355102999994415,None,None,3,1.9515820000015083,None,None,0,0,0,0,,,,,1,0,1,0,,,,,15,0,15,0,822.9170231000026,,,,,,,,,,,,,,,,,,,,,,,,,,,,,,,,,,,,,,,,,,,,,,,,,,,,,,,,,,Hügel,2.9657,822.9017903999993,822.902479700002,822.9025804000012,822.9170231000026,825.8835185000025,825.867806000002,825.871726100002,825.8835185000025,825.8835185000025,825.8835185000025,825.8835185000025,827.8680261000009,3,1.9515820000015083,None,None,827.8836166000001,827.8836166000001,827.8836166000001,827.8836166000001,,,,,,,,,,,,,,,,,,,,,7465,1,2025-07-21_18h55.53.232,sm,2024.2.4,59.91629693318451,2025-07-21 18h56.05.154897 +0200,
16,0,16,,,,,,space,2.3355102999994415,None,None,2,1.4919896999999764,0.18393149999974412,None,0,0,0,0,,,,,1,0,1,0,,,,,16,0,16,0,827.8836166000001,,,,,,,,,,,,,,,,,,,,,,,,,,,,,,,,,,,,,,,,,,,,,,,,,,,,,,,,,,Blumen,2.8537,827.8685268000008,827.8690783999991,827.8691854999997,827.8836166000001,830.7495966999995,830.7341726000013,830.7375630000024,830.7495966999995,830.7495966999995,830.7495966999995,830.7495966999995,832.7347693000011,2,1.4919896999999764,0.18393149999974412,None,832.750280100001,832.750280100001,832.750280100001,832.750280100001,,,,,,,,,,,,,,,,,,,,,7465,1,2025-07-21_18h55.53.232,sm,2024.2.4,59.91629693318451,2025-07-21 18h56.05.154897 +0200,
17,0,17,,,,,,space,2.3355102999994415,None,None,2,1.01018219999969,0.20646119999946677,None,0,0,0,0,,,,,1,0,1,0,,,,,17,0,17,0,832.750280100001,,,,,,,,,,,,,,,,,,,,,,,,,,,,,,,,,,,,,,,,,,,,,,,,,,,,,,,,,,Poesie,2.0684,832.7352817999999,832.7357867999999,832.7358934000004,832.750280100001,834.8329632999994,834.8171700999992,834.8213842000005,834.8329632999994,834.8329632999994,834.8329632999994,834.8329632999994,836.8171493000009,2,1.01018219999969,0.20646119999946677,None,836.8330683999993,836.8330683999993,836.8330683999993,836.8330683999993,,,,,,,,,,,,,,,,,,,,,7465,1,2025-07-21_18h55.53.232,sm,2024.2.4,59.91629693318451,2025-07-21 18h56.05.154897 +0200,
18,0,18,,,,,,space,2.3355102999994415,None,None,2,1.7445021999992605,0.18813819999922998,None,0,0,0,0,,,,,1,0,1,0,,,,,18,0,18,0,836.8330683999993,,,,,,,,,,,,,,,,,,,,,,,,,,,,,,,,,,,,,,,,,,,,,,,,,,,,,,,,,,Geschäft,3.6003,836.8176665999999,836.8183167000025,836.818428300001,836.8330683999993,840.4325986000003,840.4167931000011,840.4205576999993,840.4325986000003,840.4325986000003,840.4325986000003,840.4325986000003,842.4167802000011,2,1.7445021999992605,0.18813819999922998,None,842.4323253000002,842.4323253000002,842.4323253000002,842.4323253000002,,,,,,,,,,,,,,,,,,,,,7465,1,2025-07-21_18h55.53.232,sm,2024.2.4,59.91629693318451,2025-07-21 18h56.05.154897 +0200,
19,0,19,,,,,,space,2.3355102999994415,None,None,2,1.0655491999968945,0.18991170000299462,None,0,0,0,0,,,,,1,0,1,0,,,,,19,0,19,0,842.4323253000002,,,,,,,,,,,,,,,,,,,,,,,,,,,,,,,,,,,,,,,,,,,,,,,,,,,,,,,,,,Schaf,4.5684,842.4171712000025,842.4177111999998,842.4177918999994,842.4323253000002,847.0153840999992,846.9998559000014,847.0043678000002,847.0153840999992,847.0153840999992,847.0153840999992,847.0153840999992,848.999631300001,2,1.0655491999968945,0.18991170000299462,None,849.015447400001,849.015447400001,849.015447400001,849.015447400001,,,,,,,,,,,,,,,,,,,,,7465,1,2025-07-21_18h55.53.232,sm,2024.2.4,59.91629693318451,2025-07-21 18h56.05.154897 +0200,
20,0,20,,,,,,space,2.3355102999994415,None,None,3,1.1906113999975787,0.4448950000005425,None,0,0,0,0,,,,,1,0,1,0,,,,,20,0,20,0,849.015447400001,,,,,,,,,,,,,,,,,,,,,,,,,,,,,,,,,,,,,,,,,,,,,,,,,,,,,,,,,,Bürste,2.7004,849.0001107000026,849.0006125,849.0007155000021,849.015447400001,851.7152612999998,851.6994414000001,851.7031862000003,851.7152612999998,851.7152612999998,851.7152612999998,851.7152612999998,853.6992565,3,1.1906113999975787,0.4448950000005425,None,853.7152858000009,853.7152858000009,853.7152858000009,853.7152858000009,,,,,,,,,,,,,,,,,,,,,7465,1,2025-07-21_18h55.53.232,sm,2024.2.4,59.91629693318451,2025-07-21 18h56.05.154897 +0200,
21,0,21,,,,,,space,2.3355102999994415,None,None,2,1.2712222000009206,0.19848499999716296,None,0,0,0,0,,,,,1,0,1,0,,,,,21,0,21,0,853.7152858000009,,,,,,,,,,,,,,,,,,,,,,,,,,,,,,,,,,,,,,,,,,,,,,,,,,,,,,,,,,Besucher,2.4579,853.6996741000003,853.7001431000026,853.7002365000008,853.7152858000009,856.1814727000019,856.1663219000002,856.1698563000027,856.1814727000019,856.1814727000019,856.1814727000019,856.1814727000019,858.1661744000012,2,1.2712222000009206,0.19848499999716296,None,858.1818520000015,858.1818520000015,858.1818520000015,858.1818520000015,,,,,,,,,,,,,,,,,,,,,7465,1,2025-07-21_18h55.53.232,sm,2024.2.4,59.91629693318451,2025-07-21 18h56.05.154897 +0200,
22,0,22,,,,,,space,2.3355102999994415,None,None,3,1.1004368000030809,0.2835005999986606,None,0,0,0,0,,,,,1,0,1,0,,,,,22,0,22,0,858.1818520000015,,,,,,,,,,,,,,,,,,,,,,,,,,,,,,,,,,,,,,,,,,,,,,,,,,,,,,,,,,Mappe,2.7167,858.1665630999996,858.1670083999998,858.1670919000026,858.1818520000015,860.8980257000003,860.8825118000022,860.8865829999995,860.8980257000003,860.8980257000003,860.8980257000003,860.8980257000003,862.8828025000003,3,1.1004368000030809,0.2835005999986606,None,862.8980425000009,862.8980425000009,862.8980425000009,862.8980425000009,,,,,,,,,,,,,,,,,,,,,7465,1,2025-07-21_18h55.53.232,sm,2024.2.4,59.91629693318451,2025-07-21 18h56.05.154897 +0200,
23,0,23,,,,,,space,2.3355102999994415,None,None,2,1.2384485000002314,0.17719450000004144,None,0,0,0,0,,,,,1,0,1,0,,,,,23,0,23,0,862.8980425000009,,,,,,,,,,,,,,,,,,,,,,,,,,,,,,,,,,,,,,,,,,,,,,,,,,,,,,,,,,Konzert,3.4237,862.883303300001,862.883898600001,862.8840129000018,862.8980425000009,866.3312834999997,866.3156593000022,866.3192643000002,866.3312834999997,866.3312834999997,866.3312834999997,866.3312834999997,868.3155064999992,2,1.2384485000002314,0.17719450000004144,None,868.3312931,868.3312931,868.3312931,868.3312931,,,,,,,,,,,,,,,,,,,,,7465,1,2025-07-21_18h55.53.232,sm,2024.2.4,59.91629693318451,2025-07-21 18h56.05.154897 +0200,
24,0,24,,,,,,space,2.3355102999994415,None,None,3,1.2321095000006608,0.2661919999991369,None,0,0,0,0,,,,,1,0,1,0,,,,,24,0,24,0,868.3312931,,,,,,,,,,,,,,,,,,,,,,,,,,,,,,,,,,,,,,,,,,,,,,,,,,,,,,,,,,Gleis,2.778,868.3160186999994,868.3165339000006,868.3166457000007,868.3312931,871.1142236000014,871.0987184000005,871.1028408999991,871.1142236000014,871.1142236000014,871.1142236000014,871.1142236000014,873.0987467000014,3,1.2321095000006608,0.2661919999991369,None,873.1142256000021,873.1142256000021,873.1142256000021,873.1142256000021,,,,,,,,,,,,,,,,,,,,,7465,1,2025-07-21_18h55.53.232,sm,2024.2.4,59.91629693318451,2025-07-21 18h56.05.154897 +0200,
25,0,25,,,,,,space,2.3355102999994415,None,None,2,1.092625000001135,0.2168173999998544,None,0,0,0,0,,,,,1,0,1,0,,,,,25,0,25,0,873.1142256000021,,,,,,,,,,,,,,,,,,,,,,,,,,,,,,,,,,,,,,,,,,,,,,,,,,,,,,,,,,Herbst,2.3398,873.0992485000024,873.0999057000008,873.1000141000004,873.1142256000021,875.4639717999999,875.4481725000005,875.4519793,875.4639717999999,875.4639717999999,875.4639717999999,875.4639717999999,877.4482420000022,2,1.092625000001135,0.2168173999998544,None,877.4639762000006,877.4639762000006,877.4639762000006,877.4639762000006,,,,,,,,,,,,,,,,,,,,,7465,1,2025-07-21_18h55.53.232,sm,2024.2.4,59.91629693318451,2025-07-21 18h56.05.154897 +0200,
26,0,26,,,,,,space,2.3355102999994415,None,None,3,0.9404824000012013,0.31095709999863175,None,0,0,0,0,,,,,1,0,1,0,,,,,26,0,26,0,877.4639762000006,,,,,,,,,,,,,,,,,,,,,,,,,,,,,,,,,,,,,,,,,,,,,,,,,,,,,,,,,,Brille,2.419,877.4487141000027,877.4492963000012,877.4493977999991,877.4639762000006,879.8970289000026,879.8813372000004,879.8863100000017,879.8970289000026,879.8970289000026,879.8970289000026,879.8970289000026,881.8815270000014,3,0.9404824000012013,0.31095709999863175,None,881.8969340000003,881.8969340000003,881.8969340000003,881.8969340000003,,,,,,,,,,,,,,,,,,,,,7465,1,2025-07-21_18h55.53.232,sm,2024.2.4,59.91629693318451,2025-07-21 18h56.05.154897 +0200,
27,0,27,,,,,,space,2.3355102999994415,None,None,2,1.5469109999976354,0.1751299999996263,None,0,0,0,0,,,,,1,0,1,0,,,,,27,0,27,0,881.8969340000003,,,,,,,,,,,,,,,,,,,,,,,,,,,,,,,,,,,,,,,,,,,,,,,,,,,,,,,,,,Kunde,2.1461,881.8820403999998,881.8825649999999,881.8826737000018,881.8969340000003,884.0468237000023,884.0309534000007,884.0343095000026,884.0468237000023,884.0468237000023,884.0468237000023,884.0468237000023,886.0310805000008,2,1.5469109999976354,0.1751299999996263,None,886.046680200001,886.046680200001,886.046680200001,886.046680200001,,,,,,,,,,,,,,,,,,,,,7465,1,2025-07-21_18h55.53.232,sm,2024.2.4,59.91629693318451,2025-07-21 18h56.05.154897 +0200,
28,0,28,,,,,,space,2.3355102999994415,None,None,2,1.7290769999999611,0.19581409999955213,None,0,0,0,0,,,,,1,0,1,0,,,,,28,0,28,0,886.046680200001,,,,,,,,,,,,,,,,,,,,,,,,,,,,,,,,,,,,,,,,,,,,,,,,,,,,,,,,,,Zeichnung,3.2393,886.0315656000021,886.0322130000022,886.0323229999995,886.046680200001,889.2964647000008,889.2808334000001,889.285125800001,889.2964647000008,889.2964647000008,889.2964647000008,889.2964647000008,891.2808010000008,2,1.7290769999999611,0.19581409999955213,None,891.2965421000008,891.2965421000008,891.2965421000008,891.2965421000008,,,,,,,,,,,,,,,,,,,,,7465,1,2025-07-21_18h55.53.232,sm,2024.2.4,59.91629693318451,2025-07-21 18h56.05.154897 +0200,
29,0,29,,,,,,space,2.3355102999994415,None,None,2,0.8303212999999232,0.17951929999981076,None,0,0,0,0,,,,,1,0,1,0,,,,,29,0,29,0,891.2965421000008,,,,,,,,,,,,,,,,,,,,,,,,,,,,,,,,,,,,,,,,,,,,,,,,,,,,,,,,,,Geschwister,3.816,891.2813147000015,891.2819105000017,891.2820174000008,891.2965421000008,895.1126402000009,895.0971504000008,895.1017635000026,895.1126402000009,895.1126402000009,895.1126402000009,895.1126402000009,897.0970187000021,2,0.8303212999999232,0.17951929999981076,None,897.1125926000022,897.1125926000022,897.1125926000022,897.1125926000022,,,,,,,,,,,,,,,,,,,,,7465,1,2025-07-21_18h55.53.232,sm,2024.2.4,59.91629693318451,2025-07-21 18h56.05.154897 +0200,
30,0,30,,,,,,space,2.3355102999994415,None,None,2,0.9181876000002376,0.1954675999986648,None,0,0,0,0,,,,,1,0,1,0,,,,,30,0,30,0,897.1125926000022,,,,,,,,,,,,,,,,,,,,,,,,,,,,,,,,,,,,,,,,,,,,,,,,,,,,,,,,,,Professor,2.6868,897.0974487000021,897.0979170999999,897.0980073999999,897.1125926000022,899.812696500001,899.7968470000014,899.8012775999996,899.812696500001,899.812696500001,899.812696500001,899.812696500001,901.7972827000012,2,0.9181876000002376,0.1954675999986648,None,901.8129604000023,901.8129604000023,901.8129604000023,901.8129604000023,,,,,,,,,,,,,,,,,,,,,7465,1,2025-07-21_18h55.53.232,sm,2024.2.4,59.91629693318451,2025-07-21 18h56.05.154897 +0200,
31,0,31,,,,,,space,2.3355102999994415,None,None,3,1.189762800000608,0.28021909999733907,None,0,0,0,0,,,,,1,0,1,0,,,,,31,0,31,0,901.8129604000023,,,,,,,,,,,,,,,,,,,,,,,,,,,,,,,,,,,,,,,,,,,,,,,,,,,,,,,,,,Angriff,2.7088,901.7978242999998,901.7984808000001,901.7986816000011,901.8129604000023,904.5287007000006,904.5131094999997,904.5167269000012,904.5287007000006,904.5287007000006,904.5287007000006,904.5287007000006,906.5132885999992,3,1.189762800000608,0.28021909999733907,None,906.5288564000002,906.5288564000002,906.5288564000002,906.5288564000002,,,,,,,,,,,,,,,,,,,,,7465,1,2025-07-21_18h55.53.232,sm,2024.2.4,59.91629693318451,2025-07-21 18h56.05.154897 +0200,
32,0,32,,,,,,space,2.3355102999994415,None,None,3,1.6059580000001006,0.27405429999998887,None,0,0,0,0,,,,,1,0,1,0,,,,,32,0,32,0,906.5288564000002,,,,,,,,,,,,,,,,,,,,,,,,,,,,,,,,,,,,,,,,,,,,,,,,,,,,,,,,,,Flut,3.5957,906.5137974000027,906.5143210999995,906.5144273000005,906.5288564000002,910.1286225000003,910.1130804000022,910.1193816000014,910.1286225000003,910.1286225000003,910.1286225000003,910.1286225000003,912.1130464000016,3,1.6059580000001006,0.27405429999998887,None,912.1286914000011,912.1286914000011,912.1286914000011,912.1286914000011,,,,,,,,,,,,,,,,,,,,,7465,1,2025-07-21_18h55.53.232,sm,2024.2.4,59.91629693318451,2025-07-21 18h56.05.154897 +0200,
33,0,33,,,,,,space,2.3355102999994415,None,None,2,1.242088099999819,0.19255020000127843,None,0,0,0,0,,,,,1,0,1,0,,,,,33,0,33,0,912.1286914000011,,,,,,,,,,,,,,,,,,,,,,,,,,,,,,,,,,,,,,,,,,,,,,,,,,,,,,,,,,Himmel,3.1635,912.1135485000013,912.1141989999996,912.1143049999991,912.1286914000011,915.2947841000023,915.2794620000022,915.2826986,915.2947841000023,915.2947841000023,915.2947841000023,915.2947841000023,917.2792231999993,2,1.242088099999819,0.19255020000127843,None,917.2949420000004,917.2949420000004,917.2949420000004,917.2949420000004,,,,,,,,,,,,,,,,,,,,,7465,1,2025-07-21_18h55.53.232,sm,2024.2.4,59.91629693318451,2025-07-21 18h56.05.154897 +0200,
34,0,34,,,,,,space,2.3355102999994415,None,None,3,1.370817500002886,0.2698752999967837,None,0,0,0,0,,,,,1,0,1,0,,,,,34,0,34,0,917.2949420000004,,,,,,,,,,,,,,,,,,,,,,,,,,,,,,,,,,,,,,,,,,,,,,,,,,,,,,,,,,Monster,4.0328,917.2797295000018,917.2802472000003,917.2803540000023,917.2949420000004,921.3277301000016,921.3122441000014,921.3158624999996,921.3277301000016,921.3277301000016,921.3277301000016,921.3277301000016,923.3123684999991,3,1.370817500002886,0.2698752999967837,None,923.3278750000027,923.3278750000027,923.3278750000027,923.3278750000027,,,,,,,,,,,,,,,,,,,,,7465,1,2025-07-21_18h55.53.232,sm,2024.2.4,59.91629693318451,2025-07-21 18h56.05.154897 +0200,
35,0,35,,,,,,space,2.3355102999994415,None,None,2,1.8092022000018915,None,None,0,0,0,0,,,,,1,0,1,0,,,,,35,0,35,0,923.3278750000027,,,,,,,,,,,,,,,,,,,,,,,,,,,,,,,,,,,,,,,,,,,,,,,,,,,,,,,,,,Weinen,2.1329,923.3128748000017,923.3135146000022,923.3136365999999,923.3278750000027,925.4609959000009,925.4455051000004,925.4491841000017,925.4609959000009,925.4609959000009,925.4609959000009,925.4609959000009,927.4454076000002,2,1.8092022000018915,None,None,927.4610938000005,927.4610938000005,927.4610938000005,927.4610938000005,,,,,,,,,,,,,,,,,,,,,7465,1,2025-07-21_18h55.53.232,sm,2024.2.4,59.91629693318451,2025-07-21 18h56.05.154897 +0200,
36,0,36,,,,,,space,2.3355102999994415,None,None,3,1.7513188999982958,None,None,0,0,0,0,,,,,1,0,1,0,,,,,36,0,36,0,927.4610938000005,,,,,,,,,,,,,,,,,,,,,,,,,,,,,,,,,,,,,,,,,,,,,,,,,,,,,,,,,,Ei,4.6618,927.4459257000017,927.4464838000022,927.4465913999993,927.4610938000005,932.1272900000004,932.1116012999992,932.1146298999993,932.1272900000004,932.1272900000004,932.1272900000004,932.1272900000004,934.1120736000012,3,1.7513188999982958,None,None,934.1272133999992,934.1272133999992,934.1272133999992,934.1272133999992,,,,,,,,,,,,,,,,,,,,,7465,1,2025-07-21_18h55.53.232,sm,2024.2.4,59.91629693318451,2025-07-21 18h56.05.154897 +0200,
37,0,37,,,,,,space,2.3355102999994415,None,None,3,1.6480289999999513,0.28482290000101784,None,0,0,0,0,,,,,1,0,1,0,,,,,37,0,37,0,934.1272133999992,,,,,,,,,,,,,,,,,,,,,,,,,,,,,,,,,,,,,,,,,,,,,,,,,,,,,,,,,,Rock,2.2526,934.1125595000012,934.1130742999994,934.1131803000026,934.1272133999992,936.3937913000009,936.3781196000018,936.3816923000013,936.3937913000009,936.3937913000009,936.3937913000009,936.3937913000009,938.3779477000026,3,1.6480289999999513,0.28482290000101784,None,938.3936338999993,938.3936338999993,938.3936338999993,938.3936338999993,,,,,,,,,,,,,,,,,,,,,7465,1,2025-07-21_18h55.53.232,sm,2024.2.4,59.91629693318451,2025-07-21 18h56.05.154897 +0200,
38,0,38,,,,,,space,2.3355102999994415,None,None,3,1.3778557000005094,0.26534620000165887,None,0,0,0,0,,,,,1,0,1,0,,,,,38,0,38,0,938.3936338999993,,,,,,,,,,,,,,,,,,,,,,,,,,,,,,,,,,,,,,,,,,,,,,,,,,,,,,,,,,Juwel,2.5149,938.3784536999992,938.378957500001,938.3790700999998,938.3936338999993,940.910069900001,940.8946106000003,940.9022638999995,940.910069900001,940.910069900001,940.910069900001,940.910069900001,942.8945674000024,3,1.3778557000005094,0.26534620000165887,None,942.910042800002,942.910042800002,942.910042800002,942.910042800002,,,,,,,,,,,,,,,,,,,,,7465,1,2025-07-21_18h55.53.232,sm,2024.2.4,59.91629693318451,2025-07-21 18h56.05.154897 +0200,
39,0,39,,,,,,space,2.3355102999994415,None,None,3,1.0978226000006543,0.2766321999988577,None,0,0,0,0,,,,,1,0,1,0,,,,,39,0,39,0,942.910042800002,,,,,,,,,,,,,,,,,,,,,,,,,,,,,,,,,,,,,,,,,,,,,,,,,,,,,,,,,,Ecke,2.8836,942.8950764000001,942.8955915000006,942.8956999000002,942.910042800002,945.793067300001,945.7779845000005,945.7812411000014,945.793067300001,945.793067300001,945.793067300001,945.793067300001,947.7777999000027,3,1.0978226000006543,0.2766321999988577,None,947.7932142999998,947.7932142999998,947.7932142999998,947.7932142999998,,,,,,,,,,,,,,,,,,,,,7465,1,2025-07-21_18h55.53.232,sm,2024.2.4,59.91629693318451,2025-07-21 18h56.05.154897 +0200,
40,0,40,,,,,,space,2.3355102999994415,None,None,3,1.4655586000008043,0.27830709999761893,None,0,0,0,0,,,,,1,0,1,0,,,,,40,0,40,0,947.7932142999998,,,,,,,,,,,,,,,,,,,,,,,,,,,,,,,,,,,,,,,,,,,,,,,,,,,,,,,,,,Trocken,5.2763,947.7783098,947.7788225000004,947.7789303000027,947.7932142999998,953.0758932000026,953.0606884000008,953.064581300001,953.0758932000026,953.0758932000026,953.0758932000026,953.0758932000026,955.0604910000002,3,1.4655586000008043,0.27830709999761893,None,955.0762961,955.0762961,955.0762961,955.0762961,,,,,,,,,,,,,,,,,,,,,7465,1,2025-07-21_18h55.53.232,sm,2024.2.4,59.91629693318451,2025-07-21 18h56.05.154897 +0200,
41,0,41,,,,,,space,2.3355102999994415,None,None,2,0.974922699999297,0.19493350000266219,None,0,0,0,0,,,,,1,0,1,0,,,,,41,0,41,0,955.0762961,,,,,,,,,,,,,,,,,,,,,,,,,,,,,,,,,,,,,,,,,,,,,,,,,,,,,,,,,,Alligator,2.1458,955.0610001000023,955.0616560000017,955.0617644000013,955.0762961,957.2257629000014,957.2103504000006,957.2139411000026,957.2257629000014,957.2257629000014,957.2257629000014,957.2257629000014,959.2101398000013,2,0.974922699999297,0.19493350000266219,None,959.2258346000017,959.2258346000017,959.2258346000017,959.2258346000017,,,,,,,,,,,,,,,,,,,,,7465,1,2025-07-21_18h55.53.232,sm,2024.2.4,59.91629693318451,2025-07-21 18h56.05.154897 +0200,
42,0,42,,,,,,space,2.3355102999994415,None,None,3,1.806792499999574,None,None,0,0,0,0,,,,,1,0,1,0,,,,,42,0,42,0,959.2258346000017,,,,,,,,,,,,,,,,,,,,,,,,,,,,,,,,,,,,,,,,,,,,,,,,,,,,,,,,,,Dip,3.329,959.2106490000006,959.2111573000002,959.2112654000011,959.2258346000017,962.5589407000007,962.5434050000003,962.5468751000008,962.5589407000007,962.5589407000007,962.5589407000007,962.5589407000007,964.5435212000011,3,1.806792499999574,None,None,964.5588186999994,964.5588186999994,964.5588186999994,964.5588186999994,,,,,,,,,,,,,,,,,,,,,7465,1,2025-07-21_18h55.53.232,sm,2024.2.4,59.91629693318451,2025-07-21 18h56.05.154897 +0200,
43,0,43,,,,,,space,2.3355102999994415,None,None,2,1.1363631999993231,0.18312130000049365,None,0,0,0,0,,,,,1,0,1,0,,,,,43,0,43,0,964.5588186999994,,,,,,,,,,,,,,,,,,,,,,,,,,,,,,,,,,,,,,,,,,,,,,,,,,,,,,,,,,Spinne,4.5026,964.5440204000006,964.5445722000004,964.5446776000026,964.5588186999994,969.0750783000003,969.0597081000014,969.0635008999998,969.0750783000003,969.0750783000003,969.0750783000003,969.0750783000003,971.0594065000005,2,1.1363631999993231,0.18312130000049365,None,971.0749990000004,971.0749990000004,971.0749990000004,971.0749990000004,,,,,,,,,,,,,,,,,,,,,7465,1,2025-07-21_18h55.53.232,sm,2024.2.4,59.91629693318451,2025-07-21 18h56.05.154897 +0200,
44,0,44,,,,,,space,2.3355102999994415,None,None,2,1.173484400002053,0.4511994999993476,None,0,0,0,0,,,,,1,0,1,0,,,,,44,0,44,0,971.0749990000004,,,,,,,,,,,,,,,,,,,,,,,,,,,,,,,,,,,,,,,,,,,,,,,,,,,,,,,,,,Sport,2.0468,971.0598762000009,971.0604434000015,971.0605501999999,971.0749990000004,973.1252614000005,973.1094262000006,973.1135881000009,973.1252614000005,973.1252614000005,973.1252614000005,973.1252614000005,975.1092363999996,2,1.173484400002053,0.4511994999993476,None,975.1247299999995,975.1247299999995,975.1247299999995,975.1247299999995,,,,,,,,,,,,,,,,,,,,,7465,1,2025-07-21_18h55.53.232,sm,2024.2.4,59.91629693318451,2025-07-21 18h56.05.154897 +0200,
45,0,45,,,,,,space,2.3355102999994415,None,None,3,1.3274634000008518,0.2421924999980547,None,0,0,0,0,,,,,1,0,1,0,,,,,45,0,45,0,975.1247299999995,,,,,,,,,,,,,,,,,,,,,,,,,,,,,,,,,,,,,,,,,,,,,,,,,,,,,,,,,,Lava,2.3136,975.1097102000022,975.1102170000013,975.1103174000018,975.1247299999995,977.4412513999996,977.4258093000026,977.4304615000001,977.4412513999996,977.4412513999996,977.4412513999996,977.4412513999996,979.4254806999998,3,1.3274634000008518,0.2421924999980547,None,979.4415493000015,979.4415493000015,979.4415493000015,979.4415493000015,,,,,,,,,,,,,,,,,,,,,7465,1,2025-07-21_18h55.53.232,sm,2024.2.4,59.91629693318451,2025-07-21 18h56.05.154897 +0200,
46,0,46,,,,,,space,2.3355102999994415,None,None,2,1.5586671000019123,0.26088030000028084,None,0,0,0,0,,,,,1,0,1,0,,,,,46,0,46,0,979.4415493000015,,,,,,,,,,,,,,,,,,,,,,,,,,,,,,,,,,,,,,,,,,,,,,,,,,,,,,,,,,Spion,2.6527,979.425904300002,979.4265119000011,979.4266036000008,979.4415493000015,982.1077093999993,982.0922879999998,982.0964442000004,982.1077093999993,982.1077093999993,982.1077093999993,982.1077093999993,984.0920837000012,2,1.5586671000019123,0.26088030000028084,None,984.1078551999999,984.1078551999999,984.1078551999999,984.1078551999999,,,,,,,,,,,,,,,,,,,,,7465,1,2025-07-21_18h55.53.232,sm,2024.2.4,59.91629693318451,2025-07-21 18h56.05.154897 +0200,
47,0,47,,,,,,space,2.3355102999994415,None,None,3,1.2969460000022082,0.2502636999997776,None,0,0,0,0,,,,,1,0,1,0,,,,,47,0,47,0,984.1078551999999,,,,,,,,,,,,,,,,,,,,,,,,,,,,,,,,,,,,,,,,,,,,,,,,,,,,,,,,,,Helm,5.6907,984.0925932999999,984.0931068999998,984.093211200001,984.1078551999999,989.8075830000016,989.7914046000005,989.7941229999997,989.8075830000016,989.8075830000016,989.8075830000016,989.8075830000016,991.7918399000009,3,1.2969460000022082,0.2502636999997776,None,991.8073416000007,991.8073416000007,991.8073416000007,991.8073416000007,,,,,,,,,,,,,,,,,,,,,7465,1,2025-07-21_18h55.53.232,sm,2024.2.4,59.91629693318451,2025-07-21 18h56.05.154897 +0200,
48,0,48,,,,,,space,2.3355102999994415,None,None,2,1.656187399999908,0.22736369999984163,None,0,0,0,0,,,,,1,0,1,0,,,,,48,0,48,0,991.8073416000007,,,,,,,,,,,,,,,,,,,,,,,,,,,,,,,,,,,,,,,,,,,,,,,,,,,,,,,,,,Bild,2.9626,991.7923544000005,991.7928759999995,991.7929801999999,991.8073416000007,994.7738917000024,994.7581112000007,994.7618839999996,994.7738917000024,994.7738917000024,994.7738917000024,994.7738917000024,996.7583496000007,2,1.656187399999908,0.22736369999984163,None,996.7738758000014,996.7738758000014,996.7738758000014,996.7738758000014,,,,,,,,,,,,,,,,,,,,,7465,1,2025-07-21_18h55.53.232,sm,2024.2.4,59.91629693318451,2025-07-21 18h56.05.154897 +0200,
49,0,49,,,,,,space,2.3355102999994415,None,None,3,0.9675249000028998,0.4697511999984272,None,0,0,0,0,,,,,1,0,1,0,,,,,49,0,49,0,996.7738758000014,,,,,,,,,,,,,,,,,,,,,,,,,,,,,,,,,,,,,,,,,,,,,,,,,,,,,,,,,,Geschirr,2.1514,996.7588618000009,996.7593788000013,996.7594864999992,996.7738758000014,998.9403020000027,998.9247364000003,998.9289527000001,998.9403020000027,998.9403020000027,998.9403020000027,998.9403020000027,1000.9249593000022,3,0.9675249000028998,0.4697511999984272,None,1000.9401828000009,1000.9401828000009,1000.9401828000009,1000.9401828000009,,,,,,,,,,,,,,,,,,,,,7465,1,2025-07-21_18h55.53.232,sm,2024.2.4,59.91629693318451,2025-07-21 18h56.05.154897 +0200,
50,0,50,,,,,,space,2.3355102999994415,None,None,2,1.0655380000025616,0.2154590999998618,None,0,0,0,0,,,,,1,0,1,0,,,,,50,0,50,0,1000.9401828000009,,,,,,,,,,,,,,,,,,,,,,,,,,,,,,,,,,,,,,,,,,,,,,,,,,,,,,,,,,Weihnachten,2.5978,1000.9254589000011,1000.9260289000013,1000.9261399999996,1000.9401828000009,1003.539574800001,1003.5244739000009,1003.5284528000011,1003.539574800001,1003.539574800001,1003.539574800001,1003.539574800001,1005.5243391000004,2,1.0655380000025616,0.2154590999998618,None,1005.5397254000018,1005.5397254000018,1005.5397254000018,1005.5397254000018,,,,,,,,,,,,,,,,,,,,,7465,1,2025-07-21_18h55.53.232,sm,2024.2.4,59.91629693318451,2025-07-21 18h56.05.154897 +0200,
51,0,51,,,,,,space,2.3355102999994415,None,None,3,1.607692900000984,0.2596367999976792,None,0,0,0,0,,,,,1,0,1,0,,,,,51,0,51,0,1005.5397254000018,,,,,,,,,,,,,,,,,,,,,,,,,,,,,,,,,,,,,,,,,,,,,,,,,,,,,,,,,,Frieden,2.0681,1005.5248431,1005.5253665000018,1005.525470200002,1005.5397254000018,1007.6229712999993,1007.607338400001,1007.6114914999998,1007.6229712999993,1007.6229712999993,1007.6229712999993,1007.6229712999993,1009.6072521999995,3,1.607692900000984,0.2596367999976792,None,1009.623474,1009.623474,1009.623474,1009.623474,,,,,,,,,,,,,,,,,,,,,7465,1,2025-07-21_18h55.53.232,sm,2024.2.4,59.91629693318451,2025-07-21 18h56.05.154897 +0200,
52,0,52,,,,,,space,2.3355102999994415,None,None,None,,,None,0,0,0,0,,,,,1,0,1,0,,,,,52,0,52,0,1009.623474,,,,,,,,,,,,,,,,,,,,,,,,,,,,,,,,,,,,,,,,,,,,,,,,,,,,,,,,,,Sprache,3.0539,1009.6077570000016,1009.6084238000003,1009.6085297999998,1009.623474,1012.6894993000024,1012.6738906999999,1012.678861700002,1012.6894993000024,1012.6894993000024,1012.6894993000024,1012.6894993000024,1014.6737310999997,None,,,None,1014.6895479000013,1014.6895479000013,1014.6895479000013,1014.6895479000013,,,,,,,,,,,,,,,,,,,,,7465,1,2025-07-21_18h55.53.232,sm,2024.2.4,59.91629693318451,2025-07-21 18h56.05.154897 +0200,
53,0,53,,,,,,space,2.3355102999994415,None,None,3,1.1637864000003901,0.560409300000174,None,0,0,0,0,,,,,1,0,1,0,,,,,53,0,53,0,1014.6895479000013,,,,,,,,,,,,,,,,,,,,,,,,,,,,,,,,,,,,,,,,,,,,,,,,,,,,,,,,,,Nummer,2.7384,1014.6742105000012,1014.6748726000005,1014.6749782000006,1014.6895479000013,1017.439138400001,1017.4240447000011,1017.4279725000015,1017.439138400001,1017.439138400001,1017.439138400001,1017.439138400001,1019.4232960000008,3,1.1637864000003901,0.560409300000174,None,1019.4392893000004,1019.4392893000004,1019.4392893000004,1019.4392893000004,,,,,,,,,,,,,,,,,,,,,7465,1,2025-07-21_18h55.53.232,sm,2024.2.4,59.91629693318451,2025-07-21 18h56.05.154897 +0200,
54,0,54,,,,,,space,2.3355102999994415,None,None,3,1.0221281000012823,0.27368510000087554,None,0,0,0,0,,,,,1,0,1,0,,,,,54,0,54,0,1019.4392893000004,,,,,,,,,,,,,,,,,,,,,,,,,,,,,,,,,,,,,,,,,,,,,,,,,,,,,,,,,,Stein,2.6919,1019.4237186999999,1019.4242314000003,1019.4243208000007,1019.4392893000004,1022.1387405999994,1022.1231176000001,1022.1268238000011,1022.1387405999994,1022.1387405999994,1022.1387405999994,1022.1387405999994,1024.1231832000012,3,1.0221281000012823,0.27368510000087554,None,1024.1389519000004,1024.1389519000004,1024.1389519000004,1024.1389519000004,,,,,,,,,,,,,,,,,,,,,7465,1,2025-07-21_18h55.53.232,sm,2024.2.4,59.91629693318451,2025-07-21 18h56.05.154897 +0200,
55,0,55,,,,,,space,2.3355102999994415,None,None,2,1.8861615999994683,None,None,0,0,0,0,,,,,1,0,1,0,,,,,55,0,55,0,1024.1389519000004,,,,,,,,,,,,,,,,,,,,,,,,,,,,,,,,,,,,,,,,,,,,,,,,,,,,,,,,,,Anführer,2.7165,1024.1236864999992,1024.1242266000008,1024.1243338999993,1024.1389519000004,1026.8552748000002,1026.8395004000013,1026.8428875999998,1026.8552748000002,1026.8552748000002,1026.8552748000002,1026.8552748000002,1028.8398175000002,2,1.8861615999994683,None,None,1028.8551785000018,1028.8551785000018,1028.8551785000018,1028.8551785000018,,,,,,,,,,,,,,,,,,,,,7465,1,2025-07-21_18h55.53.232,sm,2024.2.4,59.91629693318451,2025-07-21 18h56.05.154897 +0200,
56,0,56,,,,,,space,2.3355102999994415,None,None,2,1.1172174999992421,0.22339990000182297,None,0,0,0,0,,,,,1,0,1,0,,,,,56,0,56,0,1028.8551785000018,,,,,,,,,,,,,,,,,,,,,,,,,,,,,,,,,,,,,,,,,,,,,,,,,,,,,,,,,,Pflege,4.504,1028.8403276000026,1028.8408710000003,1028.8409763000018,1028.8551785000018,1033.3714475000015,1033.3557875000006,1033.3595962,1033.3714475000015,1033.3714475000015,1033.3714475000015,1033.3714475000015,1035.3557464000005,2,1.1172174999992421,0.22339990000182297,None,1035.3717672999992,1035.3717672999992,1035.3717672999992,1035.3717672999992,,,,,,,,,,,,,,,,,,,,,7465,1,2025-07-21_18h55.53.232,sm,2024.2.4,59.91629693318451,2025-07-21 18h56.05.154897 +0200,
57,0,57,,,,,,space,2.3355102999994415,None,None,3,1.318435799999861,0.25658730000213836,None,0,0,0,0,,,,,1,0,1,0,,,,,57,0,57,0,1035.3717672999992,,,,,,,,,,,,,,,,,,,,,,,,,,,,,,,,,,,,,,,,,,,,,,,,,,,,,,,,,,Nudeln,3.7431,1035.356258300002,1035.3567717000005,1035.3568828000025,1035.3717672999992,1039.1221693000007,1039.105762700001,1039.1094626000013,1039.1221693000007,1039.1221693000007,1039.1221693000007,1039.1221693000007,1041.1057629000024,3,1.318435799999861,0.25658730000213836,None,1041.1212175,1041.1212175,1041.1212175,1041.1212175,,,,,,,,,,,,,,,,,,,,,7465,1,2025-07-21_18h55.53.232,sm,2024.2.4,59.91629693318451,2025-07-21 18h56.05.154897 +0200,
58,0,58,,,,,,space,2.3355102999994415,None,None,None,,,None,0,0,0,0,,,,,1,0,1,0,,,,,58,0,58,0,1041.1212175,,,,,,,,,,,,,,,,,,,,,,,,,,,,,,,,,,,,,,,,,,,,,,,,,,,,,,,,,,Golf,2.1403,1041.1062802000015,1041.1067801999998,1041.1068866999994,1041.1212175,1043.2709069000011,1043.2553976000017,1043.2599942000015,1043.2709069000011,1043.2709069000011,1043.2709069000011,1043.2709069000011,1045.2556342999997,None,,,None,1045.2714511000013,1045.2714511000013,1045.2714511000013,1045.2714511000013,,,,,,,,,,,,,,,,,,,,,7465,1,2025-07-21_18h55.53.232,sm,2024.2.4,59.91629693318451,2025-07-21 18h56.05.154897 +0200,
59,0,59,,,,,,space,2.3355102999994415,None,None,2,1.0594415999985358,0.2179747000009229,None,0,0,0,0,,,,,1,0,1,0,,,,,59,0,59,0,1045.2714511000013,,,,,,,,,,,,,,,,,,,,,,,,,,,,,,,,,,,,,,,,,,,,,,,,,,,,,,,,,,Anwalt,2.0537,1045.2561004000017,1045.2566736000008,1045.256784600002,1045.2714511000013,1047.3372614,1047.3218411000016,1047.3259591000024,1047.3372614,1047.3372614,1047.3372614,1047.3372614,1049.3219224000022,2,1.0594415999985358,0.2179747000009229,None,1049.337376800002,1049.337376800002,1049.337376800002,1049.337376800002,,,,,,,,,,,,,,,,,,,,,7465,1,2025-07-21_18h55.53.232,sm,2024.2.4,59.91629693318451,2025-07-21 18h56.05.154897 +0200,
60,0,60,,,,,,space,2.3355102999994415,None,None,3,1.571714099998644,0.23095000000103028,None,0,0,0,0,,,,,1,0,1,0,,,,,60,0,60,0,1049.337376800002,,,,,,,,,,,,,,,,,,,,,,,,,,,,,,,,,,,,,,,,,,,,,,,,,,,,,,,,,,Spülung,2.3032,1049.3224106000016,1049.3231142000004,1049.3232272000023,1049.337376800002,1051.6537785,1051.6382660000017,1051.6425326999997,1051.6537785,1051.6537785,1051.6537785,1051.6537785,1053.6381761000011,3,1.571714099998644,0.23095000000103028,None,1053.6538818000008,1053.6538818000008,1053.6538818000008,1053.6538818000008,,,,,,,,,,,,,,,,,,,,,7465,1,2025-07-21_18h55.53.232,sm,2024.2.4,59.91629693318451,2025-07-21 18h56.05.154897 +0200,
61,0,61,,,,,,space,2.3355102999994415,None,None,2,1.755602600002021,0.20045499999832828,None,0,0,0,0,,,,,1,0,1,0,,,,,61,0,61,0,1053.6538818000008,,,,,,,,,,,,,,,,,,,,,,,,,,,,,,,,,,,,,,,,,,,,,,,,,,,,,,,,,,Bildung,2.3546,1053.6386808999996,1053.6391992000026,1053.639306000001,1053.6538818000008,1056.0203583000002,1056.0044639000007,1056.0077956000023,1056.0203583000002,1056.0203583000002,1056.0203583000002,1056.0203583000002,1058.0044598000022,2,1.755602600002021,0.20045499999832828,None,1058.0202315000024,1058.0202315000024,1058.0202315000024,1058.0202315000024,,,,,,,,,,,,,,,,,,,,,7465,1,2025-07-21_18h55.53.232,sm,2024.2.4,59.91629693318451,2025-07-21 18h56.05.154897 +0200,
62,0,62,,,,,,space,2.3355102999994415,None,None,3,1.093238499997824,0.31515740000031656,None,0,0,0,0,,,,,1,0,1,0,,,,,62,0,62,0,1058.0202315000024,,,,,,,,,,,,,,,,,,,,,,,,,,,,,,,,,,,,,,,,,,,,,,,,,,,,,,,,,,Tür,2.518,1058.0049641000005,1058.0054874000016,1058.0055958000012,1058.0202315000024,1060.5542614000005,1060.5377523999996,1060.5412287,1060.5542614000005,1060.5542614000005,1060.5542614000005,1060.5542614000005,1062.5377430000008,3,1.093238499997824,0.31515740000031656,None,1062.5536643000014,1062.5536643000014,1062.5536643000014,1062.5536643000014,,,,,,,,,,,,,,,,,,,,,7465,1,2025-07-21_18h55.53.232,sm,2024.2.4,59.91629693318451,2025-07-21 18h56.05.154897 +0200,
63,0,63,,,,,,space,2.3355102999994415,None,None,2,1.0067414000004646,0.17546289999881992,None,0,0,0,0,,,,,1,0,1,0,,,,,63,0,63,0,1062.5536643000014,,,,,,,,,,,,,,,,,,,,,,,,,,,,,,,,,,,,,,,,,,,,,,,,,,,,,,,,,,Duft,2.2195,1062.538250900001,1062.5388405000012,1062.5389472999996,1062.5536643000014,1064.7863792999997,1064.7706197000007,1064.7734775999998,1064.7863792999997,1064.7863792999997,1064.7863792999997,1064.7863792999997,1066.7707212999994,2,1.0067414000004646,0.17546289999881992,None,1066.786375300002,1066.786375300002,1066.786375300002,1066.786375300002,,,,,,,,,,,,,,,,,,,,,7465,1,2025-07-21_18h55.53.232,sm,2024.2.4,59.91629693318451,2025-07-21 18h56.05.154897 +0200,
