thisN,thisTrialN,thisRepN,Cue,Target,Mediator1,Mediator2,iti,scanner_ready_press.keys,scanner_ready_press.rt,scanner_ready_press.duration,skip_trigger.keys,living_nonliving.keys,end_mapping.keys,living_nonliving.rt,living_nonliving.duration,blocks.thisRepN,blocks.thisTrialN,blocks.thisN,blocks.thisIndex,load_and_shuffle.thisRepN,load_and_shuffle.thisTrialN,load_and_shuffle.thisN,load_and_shuffle.thisIndex,runs.thisRepN,runs.thisTrialN,runs.thisN,runs.thisIndex,iti_loading_loop.thisRepN,iti_loading_loop.thisTrialN,iti_loading_loop.thisN,iti_loading_loop.thisIndex,semantic_mapping_run.thisRepN,semantic_mapping_run.thisTrialN,semantic_mapping_run.thisN,semantic_mapping_run.thisIndex,thisRow.t,notes,welcome.started,welcome_text.started,key_resp__welcome.started,welcome.stopped,key_resp__welcome.keys,key_resp__welcome.rt,key_resp__welcome.duration,scout.started,scout_text.started,key_resp.started,scout.stopped,key_resp.keys,key_resp.rt,key_resp.duration,instructions_semantic_mapping1.started,sm_instructions1_text.started,sm_instructions1_key.started,instructions_semantic_mapping1.stopped,sm_instructions1_key.keys,sm_instructions1_key.rt,sm_instructions1_key.duration,instructions_semantic_mapping2.started,sm_instructions2_text.started,sm_instructions2_key.started,instructions_semantic_mapping2.stopped,sm_instructions2_key.keys,sm_instructions2_key.rt,sm_instructions2_key.duration,reset_run.started,reset_run.stopped,shuffle_items.started,shuffle_items.stopped,set_up_runs.started,set_up_runs.stopped,load_iti.started,load_iti.stopped,prep_scanner.started,scanner_ready_press.started,ready_set_text.started,prep_scanner.stopped,runs.scanner_ready_press.keys,runs.scanner_ready_press.rt,runs.scanner_ready_press.duration,wait_for_trigger.started,starting_soon.started,skip_trigger.started,wait_for_trigger.stopped,runs.skip_trigger.keys,blank.started,begin_end_run_cross.started,sound_1.started,sound_1.stopped,sound_2.started,sound_2.stopped,blank.stopped,CurrentItem,CurrentITI,set_up_trial.started,set_up_trial.stopped,sm_iti.started,iti_cross.started,iti_cross.stopped,sm_iti.stopped,item.started,living_nonliving.started,end_mapping.started,living_nonliving_text.started,semantic_map_item.started,living_nonliving.stopped,end_mapping.stopped,living_nonliving_text.stopped,semantic_map_item.stopped,item.stopped,semantic_mapping_run.living_nonliving.keys,semantic_mapping_run.end_mapping.keys,semantic_mapping_run.living_nonliving.rt,semantic_mapping_run.living_nonliving.duration,fieldmap.started,fieldmap.stopped,runs.fm_key.keys,task_break.started,feeback_text.started,task_break_text.started,task_break_resp.started,feeback_text.stopped,task_break.stopped,runs.task_break_resp.keys,runs.task_break_resp.rt,runs.task_break_resp.duration,begin_end_run_cross.stopped,fm_text.started,fm_key.started,runs.fm_key.rt,runs.fm_key.duration,thanks.started,thanks_text.started,thanks_text.stopped,thanks.stopped,PID,MRI,date,expName,psychopyVersion,frameRate,expStart,
,,,,,,,,,,,,,,,,,,,,,,,,,,,,,,,,,,,,,,0.00427049999962037,0.013602600000012899,0.013602600000012899,110.71570200000042,space,110.68801209999947,None,,,,,,,,,,,,,,,,,,,,,,,,,,,,,,,,,,,,,,,,,,,,,,,,,,,,,,,,,,,,,,,,,,,,,,,,,,,,,,,,,,,,,,,,,,,,8452,1,2025-06-20_12h01.46.987,sm,2024.2.4,59.97782020219568,2025-06-20 12h01.58.469366 +0200,
,,,,,,,,,,,,,,,,,,,,,,,,,,,,,,,,,,,,,,,,,,,,,110.71583829999963,110.72503620000043,110.72503620000043,231.46876580000026,space,120.72849380000025,None,,,,,,,,,,,,,,,,,,,,,,,,,,,,,,,,,,,,,,,,,,,,,,,,,,,,,,,,,,,,,,,,,,,,,,,,,,,,,,,,,,,,,8452,1,2025-06-20_12h01.46.987,sm,2024.2.4,59.97782020219568,2025-06-20 12h01.58.469366 +0200,
,,,,,,,,,,,,,,,,,,,,,,,,,,,,,,,,,,,,,,,,,,,,,,,,,,,,231.4688960000003,231.48354459999973,231.48354459999973,237.76847410000028,2,6.2665131000003385,None,,,,,,,,,,,,,,,,,,,,,,,,,,,,,,,,,,,,,,,,,,,,,,,,,,,,,,,,,,,,,,,,,,,,,,,,,,,,,,8452,1,2025-06-20_12h01.46.987,sm,2024.2.4,59.97782020219568,2025-06-20 12h01.58.469366 +0200,
,,,,,,,,,,,,,,,,,,,,,,,,,,,,,,,,,,,,,,,,,,,,,,,,,,,,,,,,,,,237.76859140000033,237.78348920000008,237.78348920000008,246.96808799999963,2,9.182922299999518,None,,,,,,,,,,,,,,,,,,,,,,,,,,,,,,,,,,,,,,,,,,,,,,,,,,,,,,,,,,,,,,,,,,,,,,,8452,1,2025-06-20_12h01.46.987,sm,2024.2.4,59.97782020219568,2025-06-20 12h01.58.469366 +0200,
0,0,0,Schulter,Schmerz,Arm,Weinen,2.3955,space,6.356830700000501,None,None,None,None,,,0,0,0,0,0,79,79,23,0,0,0,0,0,79,79,69,0,0,0,0,311.9121261,,,,,,,,,,,,,,,,,,,,,,,,,,,,,,246.9690854999999,246.9698982,247.06375529999968,247.06407070000023,247.06926699999985,247.06964340000013,247.1022235999999,247.10242930000004,247.10871899999984,247.1135376000002,247.1135376000002,253.48416240000006,space,6.356830700000501,None,253.4843148,253.49897859999965,253.49897859999965,299.8814097000004,None,299.89076769999974,299.8995283000004,299.89675616666705,301.10393170000043,309.8958018666665,310.90367179999976,311.8961626,Kapitel,2.3955,311.89768300000014,311.89855700000044,311.9021260999998,311.9121261,314.31252419999964,314.2964562999996,314.3030859999999,314.31252419999964,314.31252419999964,314.31252419999964,314.31252419999964,316.3122593999997,316.3122593999997,316.3122593999997,316.3122593999997,316.29665120000027,None,None,,,,,,,,,,,,,,,,,,,,,,,,8452,1,2025-06-20_12h01.46.987,sm,2024.2.4,59.97782020219568,2025-06-20 12h01.58.469366 +0200,
1,0,1,,,,,,space,6.356830700000501,None,None,3,None,1.4240190999998958,0.1920150999994803,0,0,0,0,,,,,0,0,0,0,,,,,1,0,1,0,316.3122593999997,,,,,,,,,,,,,,,,,,,,,,,,,,,,,,,,,,,,,,,,,,,,,,,,,,,,,,,,,Nachricht,2.0418,316.2971598000004,316.29793489999975,316.2980736999998,316.3122593999997,318.3619607999999,318.3463426999997,318.35091079999984,318.3619607999999,318.3619607999999,318.3619607999999,318.3619607999999,320.36190970000007,320.36190970000007,320.36190970000007,320.36190970000007,320.3464481000001,3,None,1.4240190999998958,0.1920150999994803,,,,,,,,,,,,,,,,,,,,,,8452,1,2025-06-20_12h01.46.987,sm,2024.2.4,59.97782020219568,2025-06-20 12h01.58.469366 +0200,
2,0,2,,,,,,space,6.356830700000501,None,None,2,None,0.9756164000000354,0.2173681000003853,0,0,0,0,,,,,0,0,0,0,,,,,2,0,2,0,320.36190970000007,,,,,,,,,,,,,,,,,,,,,,,,,,,,,,,,,,,,,,,,,,,,,,,,,,,,,,,,,Zeichnung,2.3771,320.34696470000017,320.3474890999996,320.34760259999985,320.36190970000007,322.7460277,322.72976329999983,322.7375785000004,322.7460277,322.7460277,322.7460277,322.7460277,324.7454361,324.7454361,324.7454361,324.7454361,324.7294437999999,2,None,0.9756164000000354,0.2173681000003853,,,,,,,,,,,,,,,,,,,,,,8452,1,2025-06-20_12h01.46.987,sm,2024.2.4,59.97782020219568,2025-06-20 12h01.58.469366 +0200,
3,0,3,,,,,,space,6.356830700000501,None,None,2,None,0.7599302999997235,0.24528819999977713,0,0,0,0,,,,,0,0,0,0,,,,,3,0,3,0,324.7454361,,,,,,,,,,,,,,,,,,,,,,,,,,,,,,,,,,,,,,,,,,,,,,,,,,,,,,,,,Freund,2.7305,324.72994759999983,324.73049600000013,324.73060540000006,324.7454361,327.47809549999965,327.4622804999999,327.4679070000002,327.47809549999965,327.47809549999965,327.47809549999965,327.47809549999965,329.4785191000001,329.4785191000001,329.4785191000001,329.4785191000001,329.4625272000003,2,None,0.7599302999997235,0.24528819999977713,,,,,,,,,,,,,,,,,,,,,,8452,1,2025-06-20_12h01.46.987,sm,2024.2.4,59.97782020219568,2025-06-20 12h01.58.469366 +0200,
4,0,4,,,,,,space,6.356830700000501,None,None,2,None,1.9248932999998942,None,0,0,0,0,,,,,0,0,0,0,,,,,4,0,4,0,329.4785191000001,,,,,,,,,,,,,,,,,,,,,,,,,,,,,,,,,,,,,,,,,,,,,,,,,,,,,,,,,Moor,5.1086,329.46303439999974,329.4636137999996,329.4637192,329.4785191000001,334.5941358,334.5786185999996,334.5823223999996,334.5941358,334.5941358,334.5941358,334.5941358,336.5942514999997,336.5942514999997,336.5942514999997,336.5942514999997,336.57881329999964,2,None,1.9248932999998942,None,,,,,,,,,,,,,,,,,,,,,,8452,1,2025-06-20_12h01.46.987,sm,2024.2.4,59.97782020219568,2025-06-20 12h01.58.469366 +0200,
5,0,5,,,,,,space,6.356830700000501,None,None,2,None,0.8179345999997167,0.21794510000017908,0,0,0,0,,,,,0,0,0,0,,,,,5,0,5,0,336.5942514999997,,,,,,,,,,,,,,,,,,,,,,,,,,,,,,,,,,,,,,,,,,,,,,,,,,,,,,,,,Schule,2.0118,336.57932230000006,336.58004340000025,336.58014879999973,336.5942514999997,338.6107855,338.5951740999999,338.59936219999963,338.6107855,338.6107855,338.6107855,338.6107855,340.61294890000045,340.61294890000045,340.61294890000045,340.61294890000045,340.5953419999996,2,None,0.8179345999997167,0.21794510000017908,,,,,,,,,,,,,,,,,,,,,,8452,1,2025-06-20_12h01.46.987,sm,2024.2.4,59.97782020219568,2025-06-20 12h01.58.469366 +0200,
6,0,6,,,,,,space,6.356830700000501,None,None,3,None,1.1209560999996029,0.274640200000249,0,0,0,0,,,,,0,0,0,0,,,,,6,0,6,0,340.61294890000045,,,,,,,,,,,,,,,,,,,,,,,,,,,,,,,,,,,,,,,,,,,,,,,,,,,,,,,,,Puppe,3.7528,340.5958496000003,340.59635700000035,340.5964643999996,340.61294890000045,344.37678700000015,344.36200420000023,344.3672207999998,344.37678700000015,344.37678700000015,344.37678700000015,344.37678700000015,346.3770215000004,346.3770215000004,346.3770215000004,346.3770215000004,346.3615646999997,3,None,1.1209560999996029,0.274640200000249,,,,,,,,,,,,,,,,,,,,,,8452,1,2025-06-20_12h01.46.987,sm,2024.2.4,59.97782020219568,2025-06-20 12h01.58.469366 +0200,
7,0,7,,,,,,space,6.356830700000501,None,None,2,None,1.2769897999996829,0.20673250000072585,0,0,0,0,,,,,0,0,0,0,,,,,7,0,7,0,346.3770215000004,,,,,,,,,,,,,,,,,,,,,,,,,,,,,,,,,,,,,,,,,,,,,,,,,,,,,,,,,Ehe,2.5444,346.3620784000004,346.36258670000007,346.3626924,346.3770215000004,348.9268006000002,348.9111522000003,348.9148346000002,348.9268006000002,348.9268006000002,348.9268006000002,348.9268006000002,350.92727230000037,350.92727230000037,350.92727230000037,350.92727230000037,350.9113110999997,2,None,1.2769897999996829,0.20673250000072585,,,,,,,,,,,,,,,,,,,,,,8452,1,2025-06-20_12h01.46.987,sm,2024.2.4,59.97782020219568,2025-06-20 12h01.58.469366 +0200,
8,0,8,,,,,,space,6.356830700000501,None,None,3,None,0.8967607000004136,0.24336589999984426,0,0,0,0,,,,,0,0,0,0,,,,,8,0,8,0,350.92727230000037,,,,,,,,,,,,,,,,,,,,,,,,,,,,,,,,,,,,,,,,,,,,,,,,,,,,,,,,,Schreibtisch,5.7319,350.91179699999975,350.9122975999999,350.9123969000002,350.92727230000037,356.6594758000001,356.6460969,356.6504914999996,356.6594758000001,356.6594758000001,356.6594758000001,356.6594758000001,358.65999569999985,358.65999569999985,358.65999569999985,358.65999569999985,358.64425539999957,3,None,0.8967607000004136,0.24336589999984426,,,,,,,,,,,,,,,,,,,,,,8452,1,2025-06-20_12h01.46.987,sm,2024.2.4,59.97782020219568,2025-06-20 12h01.58.469366 +0200,
9,0,9,,,,,,space,6.356830700000501,None,None,3,None,1.0655624000000898,0.24117410000053496,0,0,0,0,,,,,0,0,0,0,,,,,9,0,9,0,358.65999569999985,,,,,,,,,,,,,,,,,,,,,,,,,,,,,,,,,,,,,,,,,,,,,,,,,,,,,,,,,Kamera,3.2048,358.64476749999994,358.64528169999994,358.6453879999999,358.65999569999985,361.8761242999999,361.8608495999997,361.8649851,361.8761242999999,361.8761242999999,361.8761242999999,361.8761242999999,363.87629879999986,363.87629879999986,363.87629879999986,363.87629879999986,363.86054930000046,3,None,1.0655624000000898,0.24117410000053496,,,,,,,,,,,,,,,,,,,,,,8452,1,2025-06-20_12h01.46.987,sm,2024.2.4,59.97782020219568,2025-06-20 12h01.58.469366 +0200,
10,0,10,,,,,,space,6.356830700000501,None,None,3,None,0.8972136000002138,0.2193612999999459,0,0,0,0,,,,,0,0,0,0,,,,,10,0,10,0,363.87629879999986,,,,,,,,,,,,,,,,,,,,,,,,,,,,,,,,,,,,,,,,,,,,,,,,,,,,,,,,,Vampir,2.2803,363.8610646999996,363.86158049999995,363.86168910000015,363.87629879999986,366.1593419999999,366.14366059999975,366.1478731999996,366.1593419999999,366.1593419999999,366.1593419999999,366.1593419999999,368.15920540000025,368.15920540000025,368.15920540000025,368.15920540000025,368.14367669999956,3,None,0.8972136000002138,0.2193612999999459,,,,,,,,,,,,,,,,,,,,,,8452,1,2025-06-20_12h01.46.987,sm,2024.2.4,59.97782020219568,2025-06-20 12h01.58.469366 +0200,
11,0,11,,,,,,space,6.356830700000501,None,None,3,None,1.3017804999999498,0.2392522000000099,0,0,0,0,,,,,0,0,0,0,,,,,11,0,11,0,368.15920540000025,,,,,,,,,,,,,,,,,,,,,,,,,,,,,,,,,,,,,,,,,,,,,,,,,,,,,,,,,Golf,2.7681,368.14419220000036,368.14468750000015,368.14479610000035,368.15920540000025,370.94220179999957,370.9268224999996,370.9304066000004,370.94220179999957,370.94220179999957,370.94220179999957,370.94220179999957,372.9421897000002,372.9421897000002,372.9421897000002,372.9421897000002,372.92686500000036,3,None,1.3017804999999498,0.2392522000000099,,,,,,,,,,,,,,,,,,,,,,8452,1,2025-06-20_12h01.46.987,sm,2024.2.4,59.97782020219568,2025-06-20 12h01.58.469366 +0200,
12,0,12,,,,,,space,6.356830700000501,None,None,2,None,1.361949199999799,0.17814869999983785,0,0,0,0,,,,,0,0,0,0,,,,,12,0,12,0,372.9421897000002,,,,,,,,,,,,,,,,,,,,,,,,,,,,,,,,,,,,,,,,,,,,,,,,,,,,,,,,,Komödie,2.7738,372.9273813,372.92788910000036,372.92799660000037,372.9421897000002,375.725813,375.7097494999998,375.7138229000002,375.725813,375.725813,375.725813,375.725813,377.72532370000044,377.72532370000044,377.72532370000044,377.72532370000044,377.7099645999997,2,None,1.361949199999799,0.17814869999983785,,,,,,,,,,,,,,,,,,,,,,8452,1,2025-06-20_12h01.46.987,sm,2024.2.4,59.97782020219568,2025-06-20 12h01.58.469366 +0200,
13,0,13,,,,,,space,6.356830700000501,None,None,2,None,1.4897866000001159,0.21671239999977843,0,0,0,0,,,,,0,0,0,0,,,,,13,0,13,0,377.72532370000044,,,,,,,,,,,,,,,,,,,,,,,,,,,,,,,,,,,,,,,,,,,,,,,,,,,,,,,,,Klinge,2.5926,377.7105131999997,377.71102770000016,377.7111353,377.72532370000044,380.32518830000026,380.3097158999999,380.31373540000004,380.32518830000026,380.32518830000026,380.32518830000026,380.32518830000026,382.3249990000004,382.3249990000004,382.3249990000004,382.3249990000004,382.3094772000004,2,None,1.4897866000001159,0.21671239999977843,,,,,,,,,,,,,,,,,,,,,,8452,1,2025-06-20_12h01.46.987,sm,2024.2.4,59.97782020219568,2025-06-20 12h01.58.469366 +0200,
14,0,14,,,,,,space,6.356830700000501,None,None,2,None,1.2224694000005911,0.20182369999929506,0,0,0,0,,,,,0,0,0,0,,,,,14,0,14,0,382.3249990000004,,,,,,,,,,,,,,,,,,,,,,,,,,,,,,,,,,,,,,,,,,,,,,,,,,,,,,,,,Musik,3.0177,382.3099967999997,382.3105065,382.31061190000037,382.3249990000004,385.34120150000035,385.3259619999999,385.3300052000004,385.34120150000035,385.34120150000035,385.34120150000035,385.34120150000035,387.34145249999983,387.34145249999983,387.34145249999983,387.34145249999983,387.32578230000036,2,None,1.2224694000005911,0.20182369999929506,,,,,,,,,,,,,,,,,,,,,,8452,1,2025-06-20_12h01.46.987,sm,2024.2.4,59.97782020219568,2025-06-20 12h01.58.469366 +0200,
15,0,15,,,,,,space,6.356830700000501,None,None,2,None,1.4003329999995913,0.1862354000004416,0,0,0,0,,,,,0,0,0,0,,,,,15,0,15,0,387.34145249999983,,,,,,,,,,,,,,,,,,,,,,,,,,,,,,,,,,,,,,,,,,,,,,,,,,,,,,,,,Orange,2.2922,387.3262940000004,387.3268449999996,387.32695070000045,387.34145249999983,389.64111349999985,389.6257002000002,389.6326952999998,389.64111349999985,389.64111349999985,389.64111349999985,389.64111349999985,391.6412399999999,391.6412399999999,391.6412399999999,391.6412399999999,391.6256370000001,2,None,1.4003329999995913,0.1862354000004416,,,,,,,,,,,,,,,,,,,,,,8452,1,2025-06-20_12h01.46.987,sm,2024.2.4,59.97782020219568,2025-06-20 12h01.58.469366 +0200,
16,0,16,,,,,,space,6.356830700000501,None,None,3,None,0.9014839000001302,0.2413375999994969,0,0,0,0,,,,,0,0,0,0,,,,,16,0,16,0,391.6412399999999,,,,,,,,,,,,,,,,,,,,,,,,,,,,,,,,,,,,,,,,,,,,,,,,,,,,,,,,,Rot,2.8786,391.62615170000026,391.6266644999996,391.6267736,391.6412399999999,394.5243281000003,394.50883799999974,394.51259260000006,394.5243281000003,394.5243281000003,394.5243281000003,394.5243281000003,396.5244472000004,396.5244472000004,396.5244472000004,396.5244472000004,396.5086960999997,3,None,0.9014839000001302,0.2413375999994969,,,,,,,,,,,,,,,,,,,,,,8452,1,2025-06-20_12h01.46.987,sm,2024.2.4,59.97782020219568,2025-06-20 12h01.58.469366 +0200,
17,0,17,,,,,,space,6.356830700000501,None,None,3,None,1.1279294999994818,0.2446845000004032,0,0,0,0,,,,,0,0,0,0,,,,,17,0,17,0,396.5244472000004,,,,,,,,,,,,,,,,,,,,,,,,,,,,,,,,,,,,,,,,,,,,,,,,,,,,,,,,,Schuh,2.0166,396.5092260000001,396.50981409999986,396.5099204999997,396.5244472000004,398.5408146,398.5253948999998,398.5293663000002,398.5408146,398.5408146,398.5408146,398.5408146,400.5406839999996,400.5406839999996,400.5406839999996,400.5406839999996,400.5251172999997,3,None,1.1279294999994818,0.2446845000004032,,,,,,,,,,,,,,,,,,,,,,8452,1,2025-06-20_12h01.46.987,sm,2024.2.4,59.97782020219568,2025-06-20 12h01.58.469366 +0200,
18,0,18,,,,,,space,6.356830700000501,None,None,3,None,1.2171138000003339,0.20046540000021196,0,0,0,0,,,,,0,0,0,0,,,,,18,0,18,0,400.5406839999996,,,,,,,,,,,,,,,,,,,,,,,,,,,,,,,,,,,,,,,,,,,,,,,,,,,,,,,,,Gabel,2.1767,400.5256245999999,400.5262112999999,400.52631759999986,400.5406839999996,402.72371159999966,402.7081820000003,402.71217590000015,402.72371159999966,402.72371159999966,402.72371159999966,402.72371159999966,404.7239676999998,404.7239676999998,404.7239676999998,404.7239676999998,404.7081635000004,3,None,1.2171138000003339,0.20046540000021196,,,,,,,,,,,,,,,,,,,,,,8452,1,2025-06-20_12h01.46.987,sm,2024.2.4,59.97782020219568,2025-06-20 12h01.58.469366 +0200,
19,0,19,,,,,,space,6.356830700000501,None,None,3,None,1.0155370000002222,0.2143610000002809,0,0,0,0,,,,,0,0,0,0,,,,,19,0,19,0,404.7239676999998,,,,,,,,,,,,,,,,,,,,,,,,,,,,,,,,,,,,,,,,,,,,,,,,,,,,,,,,,Dunkelheit,2.0049,404.70868940000037,404.70919740000045,404.70935499999996,404.7239676999998,406.7401391000003,406.72462579999956,406.7284485,406.7401391000003,406.7401391000003,406.7401391000003,406.7401391000003,408.74020440000004,408.74020440000004,408.74020440000004,408.74020440000004,408.7247078999999,3,None,1.0155370000002222,0.2143610000002809,,,,,,,,,,,,,,,,,,,,,,8452,1,2025-06-20_12h01.46.987,sm,2024.2.4,59.97782020219568,2025-06-20 12h01.58.469366 +0200,
20,0,20,,,,,,space,6.356830700000501,None,None,2,None,0.8372888999992938,0.19413600000007136,0,0,0,0,,,,,0,0,0,0,,,,,20,0,20,0,408.74020440000004,,,,,,,,,,,,,,,,,,,,,,,,,,,,,,,,,,,,,,,,,,,,,,,,,,,,,,,,,Universität,2.2038,408.72522070000014,408.72586239999964,408.7259683000002,408.74020440000004,410.9572873999996,410.9410168000004,410.9475943999996,410.9572873999996,410.9572873999996,410.9572873999996,410.9572873999996,412.9568656000001,412.9568656000001,412.9568656000001,412.9568656000001,412.9408862,2,None,0.8372888999992938,0.19413600000007136,,,,,,,,,,,,,,,,,,,,,,8452,1,2025-06-20_12h01.46.987,sm,2024.2.4,59.97782020219568,2025-06-20 12h01.58.469366 +0200,
21,0,21,,,,,,space,6.356830700000501,None,None,2,None,1.0646210999993855,0.2005196000000069,0,0,0,0,,,,,0,0,0,0,,,,,21,0,21,0,412.9568656000001,,,,,,,,,,,,,,,,,,,,,,,,,,,,,,,,,,,,,,,,,,,,,,,,,,,,,,,,,Blumen,2.8591,412.9414002000003,412.9419097,412.9420146000002,412.9568656000001,415.82300099999975,415.8075551000002,415.81200629999967,415.82300099999975,415.82300099999975,415.82300099999975,415.82300099999975,417.8229930999996,417.8229930999996,417.8229930999996,417.8229930999996,417.8072479000002,2,None,1.0646210999993855,0.2005196000000069,,,,,,,,,,,,,,,,,,,,,,8452,1,2025-06-20_12h01.46.987,sm,2024.2.4,59.97782020219568,2025-06-20 12h01.58.469366 +0200,
22,0,22,,,,,,space,6.356830700000501,None,None,2,None,0.9813336999995954,0.20856319999984407,0,0,0,0,,,,,0,0,0,0,,,,,22,0,22,0,417.8229930999996,,,,,,,,,,,,,,,,,,,,,,,,,,,,,,,,,,,,,,,,,,,,,,,,,,,,,,,,,Anführer,3.4213,417.8077524,417.80824930000017,417.8083544000001,417.8229930999996,421.25578659999974,421.24019469999985,421.2438549999997,421.25578659999974,421.25578659999974,421.25578659999974,421.25578659999974,423.2559989000001,423.2559989000001,423.2559989000001,423.2559989000001,423.24060949999966,2,None,0.9813336999995954,0.20856319999984407,,,,,,,,,,,,,,,,,,,,,,8452,1,2025-06-20_12h01.46.987,sm,2024.2.4,59.97782020219568,2025-06-20 12h01.58.469366 +0200,
23,0,23,,,,,,space,6.356830700000501,None,None,2,None,1.2695227000003797,0.16270109999913984,0,0,0,0,,,,,0,0,0,0,,,,,23,0,23,0,423.2559989000001,,,,,,,,,,,,,,,,,,,,,,,,,,,,,,,,,,,,,,,,,,,,,,,,,,,,,,,,,Hase,2.5717,423.2411234000001,423.2416254999998,423.24173299999984,423.2559989000001,425.8388205000001,425.8239800000001,425.8299256,425.8388205000001,425.8388205000001,425.8388205000001,425.8388205000001,427.8389551,427.8389551,427.8389551,427.8389551,427.8236281999998,2,None,1.2695227000003797,0.16270109999913984,,,,,,,,,,,,,,,,,,,,,,8452,1,2025-06-20_12h01.46.987,sm,2024.2.4,59.97782020219568,2025-06-20 12h01.58.469366 +0200,
24,0,24,,,,,,space,6.356830700000501,None,None,2,None,0.7749007000002166,0.2369959999996354,0,0,0,0,,,,,0,0,0,0,,,,,24,0,24,0,427.8389551,,,,,,,,,,,,,,,,,,,,,,,,,,,,,,,,,,,,,,,,,,,,,,,,,,,,,,,,,Rock,3.3553,427.8241417999998,427.82465090000005,427.8247577000002,427.8389551,431.20539800000006,431.18989090000014,431.1934977000001,431.20539800000006,431.20539800000006,431.20539800000006,431.20539800000006,433.2054844000004,433.2054844000004,433.2054844000004,433.2054844000004,433.1899016999996,2,None,0.7749007000002166,0.2369959999996354,,,,,,,,,,,,,,,,,,,,,,8452,1,2025-06-20_12h01.46.987,sm,2024.2.4,59.97782020219568,2025-06-20 12h01.58.469366 +0200,
25,0,25,,,,,,space,6.356830700000501,None,None,3,None,1.40429899999981,0.20884819999992033,0,0,0,0,,,,,0,0,0,0,,,,,25,0,25,0,433.2054844000004,,,,,,,,,,,,,,,,,,,,,,,,,,,,,,,,,,,,,,,,,,,,,,,,,,,,,,,,,Nummer,3.1687,433.1904182999997,433.19093040000007,433.1910404999999,433.2054844000004,436.38857389999976,436.3729562999997,436.3765261999997,436.38857389999976,436.38857389999976,436.38857389999976,436.38857389999976,438.38856940000005,438.38856940000005,438.38856940000005,438.38856940000005,438.37294199999997,3,None,1.40429899999981,0.20884819999992033,,,,,,,,,,,,,,,,,,,,,,8452,1,2025-06-20_12h01.46.987,sm,2024.2.4,59.97782020219568,2025-06-20 12h01.58.469366 +0200,
26,0,26,,,,,,space,6.356830700000501,None,None,2,None,0.9890035999997053,0.21715840000069875,0,0,0,0,,,,,0,0,0,0,,,,,26,0,26,0,438.38856940000005,,,,,,,,,,,,,,,,,,,,,,,,,,,,,,,,,,,,,,,,,,,,,,,,,,,,,,,,,Bus,2.1371,438.3734537,438.3739948000002,438.37410180000006,438.38856940000005,440.53824910000003,440.5225971,440.52598730000045,440.53824910000003,440.53824910000003,440.53824910000003,440.53824910000003,442.53821100000005,442.53821100000005,442.53821100000005,442.53821100000005,442.5231037000003,2,None,0.9890035999997053,0.21715840000069875,,,,,,,,,,,,,,,,,,,,,,8452,1,2025-06-20_12h01.46.987,sm,2024.2.4,59.97782020219568,2025-06-20 12h01.58.469366 +0200,
27,0,27,,,,,,space,6.356830700000501,None,None,2,None,0.9579979999998613,0.1878329000001031,0,0,0,0,,,,,0,0,0,0,,,,,27,0,27,0,442.53821100000005,,,,,,,,,,,,,,,,,,,,,,,,,,,,,,,,,,,,,,,,,,,,,,,,,,,,,,,,,Wissen,3.0848,442.52361850000034,442.52412840000034,442.5242350999997,442.53821100000005,445.6378572000003,445.6223166999998,445.62718920000043,445.6378572000003,445.6378572000003,445.6378572000003,445.6378572000003,447.6379115,447.6379115,447.6379115,447.6379115,447.62289789999977,2,None,0.9579979999998613,0.1878329000001031,,,,,,,,,,,,,,,,,,,,,,8452,1,2025-06-20_12h01.46.987,sm,2024.2.4,59.97782020219568,2025-06-20 12h01.58.469366 +0200,
28,0,28,,,,,,space,6.356830700000501,None,None,3,None,1.3955223999992086,0.22199390000059793,0,0,0,0,,,,,0,0,0,0,,,,,28,0,28,0,447.6379115,,,,,,,,,,,,,,,,,,,,,,,,,,,,,,,,,,,,,,,,,,,,,,,,,,,,,,,,,Seife,3.4348,447.62341600000036,447.62392139999974,447.62402870000005,447.6379115,451.0876076000004,451.0720680000004,451.07623690000037,451.0876076000004,451.0876076000004,451.0876076000004,451.0876076000004,453.08755219999966,453.08755219999966,453.08755219999966,453.08755219999966,453.07231070000034,3,None,1.3955223999992086,0.22199390000059793,,,,,,,,,,,,,,,,,,,,,,8452,1,2025-06-20_12h01.46.987,sm,2024.2.4,59.97782020219568,2025-06-20 12h01.58.469366 +0200,
29,0,29,,,,,,space,6.356830700000501,None,None,2,None,1.3224420999995345,0.19754100000045582,0,0,0,0,,,,,0,0,0,0,,,,,29,0,29,0,453.08755219999966,,,,,,,,,,,,,,,,,,,,,,,,,,,,,,,,,,,,,,,,,,,,,,,,,,,,,,,,,Kuchen ,2.485,453.07281859999966,453.0733425999997,453.07345449999957,453.08755219999966,455.5875914999997,455.5718469000003,455.57612619999963,455.5875914999997,455.5875914999997,455.5875914999997,455.5875914999997,457.58741889999965,457.58741889999965,457.58741889999965,457.58741889999965,457.57169410000006,2,None,1.3224420999995345,0.19754100000045582,,,,,,,,,,,,,,,,,,,,,,8452,1,2025-06-20_12h01.46.987,sm,2024.2.4,59.97782020219568,2025-06-20 12h01.58.469366 +0200,
30,0,30,,,,,,space,6.356830700000501,None,None,None,None,,,0,0,0,0,,,,,0,0,0,0,,,,,30,0,30,0,457.58741889999965,,,,,,,,,,,,,,,,,,,,,,,,,,,,,,,,,,,,,,,,,,,,,,,,,,,,,,,,,Wanne,2.3926,457.5721795999998,457.5726826,457.57278510000015,457.58741889999965,459.9877293999998,459.97143849999975,459.9750823000004,459.9877293999998,459.9877293999998,459.9877293999998,459.9877293999998,461.98705940000036,461.98705940000036,461.98705940000036,461.98705940000036,461.97163739999996,None,None,,,,,,,,,,,,,,,,,,,,,,,,8452,1,2025-06-20_12h01.46.987,sm,2024.2.4,59.97782020219568,2025-06-20 12h01.58.469366 +0200,
31,0,31,,,,,,space,6.356830700000501,None,None,2,None,1.1320184999995035,0.19042960000024323,0,0,0,0,,,,,0,0,0,0,,,,,31,0,31,0,461.98705940000036,,,,,,,,,,,,,,,,,,,,,,,,,,,,,,,,,,,,,,,,,,,,,,,,,,,,,,,,,Agent,4.5614,461.97211570000036,461.9726277999998,461.97273229999973,461.98705940000036,466.5535431999997,466.5378088999996,466.5419861999999,466.5535431999997,466.5535431999997,466.5535431999997,466.5535431999997,468.55352980000043,468.55352980000043,468.55352980000043,468.55352980000043,468.5377785999999,2,None,1.1320184999995035,0.19042960000024323,,,,,,,,,,,,,,,,,,,,,,8452,1,2025-06-20_12h01.46.987,sm,2024.2.4,59.97782020219568,2025-06-20 12h01.58.469366 +0200,
32,0,32,,,,,,space,6.356830700000501,None,None,2,None,0.8898433000003934,0.21640190000016446,0,0,0,0,,,,,0,0,0,0,,,,,32,0,32,0,468.55352980000043,,,,,,,,,,,,,,,,,,,,,,,,,,,,,,,,,,,,,,,,,,,,,,,,,,,,,,,,,Schleim,2.1778,468.5382889000002,468.53879529999995,468.53889830000026,468.55352980000043,470.7364190999997,470.7208387999999,470.7242806000004,470.7364190999997,470.7364190999997,470.7364190999997,470.7364190999997,472.7365018999999,472.7365018999999,472.7365018999999,472.7365018999999,472.72089289999985,2,None,0.8898433000003934,0.21640190000016446,,,,,,,,,,,,,,,,,,,,,,8452,1,2025-06-20_12h01.46.987,sm,2024.2.4,59.97782020219568,2025-06-20 12h01.58.469366 +0200,
33,0,33,,,,,,space,6.356830700000501,None,None,3,None,1.2656445999991774,0.21450850000019273,0,0,0,0,,,,,0,0,0,0,,,,,33,0,33,0,472.7365018999999,,,,,,,,,,,,,,,,,,,,,,,,,,,,,,,,,,,,,,,,,,,,,,,,,,,,,,,,,Tür,2.1313,472.7214041999996,472.7220533999998,472.72215719999986,472.7365018999999,474.86948310000025,474.85385380000025,474.85704780000015,474.86948310000025,474.86948310000025,474.86948310000025,474.86948310000025,476.86954849999984,476.86954849999984,476.86954849999984,476.86954849999984,476.85413270000026,3,None,1.2656445999991774,0.21450850000019273,,,,,,,,,,,,,,,,,,,,,,8452,1,2025-06-20_12h01.46.987,sm,2024.2.4,59.97782020219568,2025-06-20 12h01.58.469366 +0200,
34,0,34,,,,,,space,6.356830700000501,None,None,3,None,1.0741071000002194,0.18686409999918396,0,0,0,0,,,,,0,0,0,0,,,,,34,0,34,0,476.86954849999984,,,,,,,,,,,,,,,,,,,,,,,,,,,,,,,,,,,,,,,,,,,,,,,,,,,,,,,,,Zahnpasta,2.9489,476.8546417999996,476.8551543000003,476.8552596999998,476.86954849999984,479.8195275999997,479.8040825999997,479.8087740000001,479.8195275999997,479.8195275999997,479.8195275999997,479.8195275999997,481.81933409999965,481.81933409999965,481.81933409999965,481.81933409999965,481.80378269999983,3,None,1.0741071000002194,0.18686409999918396,,,,,,,,,,,,,,,,,,,,,,8452,1,2025-06-20_12h01.46.987,sm,2024.2.4,59.97782020219568,2025-06-20 12h01.58.469366 +0200,
35,0,35,,,,,,space,6.356830700000501,None,None,2,None,1.0399874000004274,0.3450489999995625,0,0,0,0,,,,,0,0,0,0,,,,,35,0,35,0,481.81933409999965,,,,,,,,,,,,,,,,,,,,,,,,,,,,,,,,,,,,,,,,,,,,,,,,,,,,,,,,,Zucker,4.7179,481.80428930000016,481.8049285999996,481.8050314000002,481.81933409999965,486.55206389999967,486.53662429999986,486.5403508999998,486.55206389999967,486.55206389999967,486.55206389999967,486.55206389999967,488.5521496000001,488.5521496000001,488.5521496000001,488.5521496000001,488.5366176999996,2,None,1.0399874000004274,0.3450489999995625,,,,,,,,,,,,,,,,,,,,,,8452,1,2025-06-20_12h01.46.987,sm,2024.2.4,59.97782020219568,2025-06-20 12h01.58.469366 +0200,
36,0,36,,,,,,space,6.356830700000501,None,None,2,None,1.1151189000001978,0.19451680000020133,0,0,0,0,,,,,0,0,0,0,,,,,36,0,36,0,488.5521496000001,,,,,,,,,,,,,,,,,,,,,,,,,,,,,,,,,,,,,,,,,,,,,,,,,,,,,,,,,Ziege,2.3361,488.5371353999999,488.53763400000025,488.5377384000003,488.5521496000001,490.9020975000003,490.8865146999997,490.8906434999999,490.9020975000003,490.9020975000003,490.9020975000003,490.9020975000003,492.90202359999967,492.90202359999967,492.90202359999967,492.90202359999967,492.8863136,2,None,1.1151189000001978,0.19451680000020133,,,,,,,,,,,,,,,,,,,,,,8452,1,2025-06-20_12h01.46.987,sm,2024.2.4,59.97782020219568,2025-06-20 12h01.58.469366 +0200,
37,0,37,,,,,,space,6.356830700000501,None,None,3,None,0.9976405999996132,0.2543349000006856,0,0,0,0,,,,,0,0,0,0,,,,,37,0,37,0,492.90202359999967,,,,,,,,,,,,,,,,,,,,,,,,,,,,,,,,,,,,,,,,,,,,,,,,,,,,,,,,,Ordner,2.9195,492.8868235,492.88748659999965,492.88759240000036,492.90202359999967,495.8348783000001,495.8192816999999,495.8231888,495.8348783000001,495.8348783000001,495.8348783000001,495.8348783000001,497.83497499999976,497.83497499999976,497.83497499999976,497.83497499999976,497.81945929999983,3,None,0.9976405999996132,0.2543349000006856,,,,,,,,,,,,,,,,,,,,,,8452,1,2025-06-20_12h01.46.987,sm,2024.2.4,59.97782020219568,2025-06-20 12h01.58.469366 +0200,
38,0,38,,,,,,space,6.356830700000501,None,None,3,None,1.7551558999994086,0.19463890000042738,0,0,0,0,,,,,0,0,0,0,,,,,38,0,38,0,497.83497499999976,,,,,,,,,,,,,,,,,,,,,,,,,,,,,,,,,,,,,,,,,,,,,,,,,,,,,,,,,Popcorn,2.7644,497.8199708000002,497.8207100999998,497.8208145999997,497.83497499999976,500.6011325999998,500.5858214,500.58929720000015,500.6011325999998,500.6011325999998,500.6011325999998,500.6011325999998,502.60145290000037,502.60145290000037,502.60145290000037,502.60145290000037,502.5861697,3,None,1.7551558999994086,0.19463890000042738,,,,,,,,,,,,,,,,,,,,,,8452,1,2025-06-20_12h01.46.987,sm,2024.2.4,59.97782020219568,2025-06-20 12h01.58.469366 +0200,
39,0,39,,,,,,space,6.356830700000501,None,None,2,None,0.7808529000003546,0.1818807999998171,0,0,0,0,,,,,0,0,0,0,,,,,39,0,39,0,502.60145290000037,,,,,,,,,,,,,,,,,,,,,,,,,,,,,,,,,,,,,,,,,,,,,,,,,,,,,,,,,Kunde,2.6442,502.58668469999975,502.5871963999998,502.58730689999993,502.60145290000037,505.25113020000026,505.23578069999985,505.2396644999999,505.25113020000026,505.25113020000026,505.25113020000026,505.25113020000026,507.2512002000003,507.2512002000003,507.2512002000003,507.2512002000003,507.2356534999999,2,None,0.7808529000003546,0.1818807999998171,,,,,,,,,,,,,,,,,,,,,,8452,1,2025-06-20_12h01.46.987,sm,2024.2.4,59.97782020219568,2025-06-20 12h01.58.469366 +0200,
40,0,40,,,,,,space,6.356830700000501,None,None,3,None,1.4864998000002743,0.19763630000034027,0,0,0,0,,,,,0,0,0,0,,,,,40,0,40,0,507.2512002000003,,,,,,,,,,,,,,,,,,,,,,,,,,,,,,,,,,,,,,,,,,,,,,,,,,,,,,,,,Ozean,2.4673,507.2361646999998,507.2366731000002,507.2367771999998,507.2512002000003,509.71749629999977,509.70191799999975,509.7056855000001,509.71749629999977,509.71749629999977,509.71749629999977,509.71749629999977,511.71767230000023,511.71767230000023,511.71767230000023,511.71767230000023,511.70221839999977,3,None,1.4864998000002743,0.19763630000034027,,,,,,,,,,,,,,,,,,,,,,8452,1,2025-06-20_12h01.46.987,sm,2024.2.4,59.97782020219568,2025-06-20 12h01.58.469366 +0200,
41,0,41,,,,,,space,6.356830700000501,None,None,3,None,1.1776597999996739,0.23736170000029233,0,0,0,0,,,,,0,0,0,0,,,,,41,0,41,0,511.71767230000023,,,,,,,,,,,,,,,,,,,,,,,,,,,,,,,,,,,,,,,,,,,,,,,,,,,,,,,,,Nudeln,2.0505,511.7027264999997,511.70339349999995,511.70350249999956,511.71767230000023,513.7674381999996,513.7521362999996,513.7565359,513.7674381999996,513.7674381999996,513.7674381999996,513.7674381999996,515.7673246000004,515.7673246000004,515.7673246000004,515.7673246000004,515.7518732999997,3,None,1.1776597999996739,0.23736170000029233,,,,,,,,,,,,,,,,,,,,,,8452,1,2025-06-20_12h01.46.987,sm,2024.2.4,59.97782020219568,2025-06-20 12h01.58.469366 +0200,
42,0,42,,,,,,space,6.356830700000501,None,None,2,None,1.5862258999995902,0.2068600000002334,0,0,0,0,,,,,0,0,0,0,,,,,42,0,42,0,515.7673246000004,,,,,,,,,,,,,,,,,,,,,,,,,,,,,,,,,,,,,,,,,,,,,,,,,,,,,,,,,Klee,2.0516,515.7523958000002,515.7529609000003,515.7530647000003,515.7673246000004,517.8337535000001,517.8181826,517.821387,517.8337535000001,517.8337535000001,517.8337535000001,517.8337535000001,519.8336121000002,519.8336121000002,519.8336121000002,519.8336121000002,519.8182324999998,2,None,1.5862258999995902,0.2068600000002334,,,,,,,,,,,,,,,,,,,,,,8452,1,2025-06-20_12h01.46.987,sm,2024.2.4,59.97782020219568,2025-06-20 12h01.58.469366 +0200,
43,0,43,,,,,,space,6.356830700000501,None,None,3,None,1.1723209000001589,0.2179918000001635,0,0,0,0,,,,,0,0,0,0,,,,,43,0,43,0,519.8336121000002,,,,,,,,,,,,,,,,,,,,,,,,,,,,,,,,,,,,,,,,,,,,,,,,,,,,,,,,,Brille,3.2426,519.8187526000002,519.8192521999999,519.8193571000002,519.8336121000002,523.0832481999996,523.0677458999999,523.0713566000004,523.0832481999996,523.0832481999996,523.0832481999996,523.0832481999996,525.0836879999997,525.0836879999997,525.0836879999997,525.0836879999997,525.067924,3,None,1.1723209000001589,0.2179918000001635,,,,,,,,,,,,,,,,,,,,,,8452,1,2025-06-20_12h01.46.987,sm,2024.2.4,59.97782020219568,2025-06-20 12h01.58.469366 +0200,
44,0,44,,,,,,space,6.356830700000501,None,None,3,None,0.7747169000003851,0.20432549999986804,0,0,0,0,,,,,0,0,0,0,,,,,44,0,44,0,525.0836879999997,,,,,,,,,,,,,,,,,,,,,,,,,,,,,,,,,,,,,,,,,,,,,,,,,,,,,,,,,Trocken,2.6256,525.0684460000002,525.0689622,525.0690677000002,525.0836879999997,527.7163995000001,527.7010563000003,527.7052971000003,527.7163995000001,527.7163995000001,527.7163995000001,527.7163995000001,529.7168898999998,529.7168898999998,529.7168898999998,529.7168898999998,529.7010246999998,3,None,0.7747169000003851,0.20432549999986804,,,,,,,,,,,,,,,,,,,,,,8452,1,2025-06-20_12h01.46.987,sm,2024.2.4,59.97782020219568,2025-06-20 12h01.58.469366 +0200,
45,0,45,,,,,,space,6.356830700000501,None,None,3,None,0.7496426999996402,0.2292050999994899,0,0,0,0,,,,,0,0,0,0,,,,,45,0,45,0,529.7168898999998,,,,,,,,,,,,,,,,,,,,,,,,,,,,,,,,,,,,,,,,,,,,,,,,,,,,,,,,,Krone,4.9244,529.7015362000002,529.7021704999997,529.702276,529.7168898999998,534.6495034999998,534.6340317000004,534.6381123000001,534.6495034999998,534.6495034999998,534.6495034999998,534.6495034999998,536.6495733000002,536.6495733000002,536.6495733000002,536.6495733000002,536.6340081999997,3,None,0.7496426999996402,0.2292050999994899,,,,,,,,,,,,,,,,,,,,,,8452,1,2025-06-20_12h01.46.987,sm,2024.2.4,59.97782020219568,2025-06-20 12h01.58.469366 +0200,
46,0,46,,,,,,space,6.356830700000501,None,None,3,None,0.7878216999997676,0.2030441000006249,0,0,0,0,,,,,0,0,0,0,,,,,46,0,46,0,536.6495733000002,,,,,,,,,,,,,,,,,,,,,,,,,,,,,,,,,,,,,,,,,,,,,,,,,,,,,,,,,Dip,4.6388,536.6345148999999,536.6350266999998,536.6351366999997,536.6495733000002,541.2991665999998,541.2833068,541.2864246999998,541.2991665999998,541.2991665999998,541.2991665999998,541.2991665999998,543.2990380000001,543.2990380000001,543.2990380000001,543.2990380000001,543.2835907999997,3,None,0.7878216999997676,0.2030441000006249,,,,,,,,,,,,,,,,,,,,,,8452,1,2025-06-20_12h01.46.987,sm,2024.2.4,59.97782020219568,2025-06-20 12h01.58.469366 +0200,
47,0,47,,,,,,space,6.356830700000501,None,None,2,None,1.4818748999996387,0.1577637999998842,0,0,0,0,,,,,0,0,0,0,,,,,47,0,47,0,543.2990380000001,,,,,,,,,,,,,,,,,,,,,,,,,,,,,,,,,,,,,,,,,,,,,,,,,,,,,,,,,Rasen,2.9624,543.2841044999996,543.2846116999999,543.2847201000004,543.2990380000001,546.2655462000002,546.2501300000004,546.2540744999997,546.2655462000002,546.2655462000002,546.2655462000002,546.2655462000002,548.2655146999996,548.2655146999996,548.2655146999996,548.2655146999996,548.2499703000003,2,None,1.4818748999996387,0.1577637999998842,,,,,,,,,,,,,,,,,,,,,,8452,1,2025-06-20_12h01.46.987,sm,2024.2.4,59.97782020219568,2025-06-20 12h01.58.469366 +0200,
48,0,48,,,,,,space,6.356830700000501,None,None,3,None,0.9339290999996592,0.19818970000051195,0,0,0,0,,,,,0,0,0,0,,,,,48,0,48,0,548.2655146999996,,,,,,,,,,,,,,,,,,,,,,,,,,,,,,,,,,,,,,,,,,,,,,,,,,,,,,,,,Teleskop,2.5726,548.2504767,548.2510437000001,548.2511500999999,548.2655146999996,550.8486026999999,550.8333888999996,550.8385661000002,550.8486026999999,550.8486026999999,550.8486026999999,550.8486026999999,552.8485968000005,552.8485968000005,552.8485968000005,552.8485968000005,552.8329082999999,3,None,0.9339290999996592,0.19818970000051195,,,,,,,,,,,,,,,,,,,,,,8452,1,2025-06-20_12h01.46.987,sm,2024.2.4,59.97782020219568,2025-06-20 12h01.58.469366 +0200,
49,0,49,,,,,,space,6.356830700000501,None,None,3,None,0.7760811999996804,0.19261370000003808,0,0,0,0,,,,,0,0,0,0,,,,,49,0,49,0,552.8485968000005,,,,,,,,,,,,,,,,,,,,,,,,,,,,,,,,,,,,,,,,,,,,,,,,,,,,,,,,,Sitzgurt,3.8694,552.8334273,552.8339366999999,552.8340430999997,552.8485968000005,556.7318207999997,556.7160566000002,556.7204763999998,556.7318207999997,556.7318207999997,556.7318207999997,556.7318207999997,558.7315056999996,558.7315056999996,558.7315056999996,558.7315056999996,558.7161335000001,3,None,0.7760811999996804,0.19261370000003808,,,,,,,,,,,,,,,,,,,,,,8452,1,2025-06-20_12h01.46.987,sm,2024.2.4,59.97782020219568,2025-06-20 12h01.58.469366 +0200,
50,0,50,,,,,,space,6.356830700000501,None,None,3,None,0.8316987999996854,0.18034660000012082,0,0,0,0,,,,,0,0,0,0,,,,,50,0,50,0,558.7315056999996,,,,,,,,,,,,,,,,,,,,,,,,,,,,,,,,,,,,,,,,,,,,,,,,,,,,,,,,,Ausbruch,2.6496,558.7166440999999,558.7171557000001,558.7172610999996,558.7315056999996,561.3811998000001,561.3656210999998,561.3695401000004,561.3811998000001,561.3811998000001,561.3811998000001,561.3811998000001,563.3812584999996,563.3812584999996,563.3812584999996,563.3812584999996,563.3656577000002,3,None,0.8316987999996854,0.18034660000012082,,,,,,,,,,,,,,,,,,,,,,8452,1,2025-06-20_12h01.46.987,sm,2024.2.4,59.97782020219568,2025-06-20 12h01.58.469366 +0200,
51,0,51,,,,,,space,6.356830700000501,None,None,3,None,0.9001681999998254,0.20612579999942682,0,0,0,0,,,,,0,0,0,0,,,,,51,0,51,0,563.3812584999996,,,,,,,,,,,,,,,,,,,,,,,,,,,,,,,,,,,,,,,,,,,,,,,,,,,,,,,,,Marmor,2.0243,563.3661653999998,563.3666909000003,563.3667937999999,563.3812584999996,565.4143260999999,565.3987409000001,565.4027237,565.4143260999999,565.4143260999999,565.4143260999999,565.4143260999999,567.4144352000003,567.4144352000003,567.4144352000003,567.4144352000003,567.3986567000002,3,None,0.9001681999998254,0.20612579999942682,,,,,,,,,,,,,,,,,,,,,,8452,1,2025-06-20_12h01.46.987,sm,2024.2.4,59.97782020219568,2025-06-20 12h01.58.469366 +0200,
52,0,52,,,,,,space,6.356830700000501,None,None,2,None,1.5099253999997018,0.2219268999997439,0,0,0,0,,,,,0,0,0,0,,,,,52,0,52,0,567.4144352000003,,,,,,,,,,,,,,,,,,,,,,,,,,,,,,,,,,,,,,,,,,,,,,,,,,,,,,,,,Vergangenheit,2.2197,567.3991081000004,567.3995776000002,567.3996718999997,567.4144352000003,569.6475252999999,569.6321016000002,569.6365967000002,569.6475252999999,569.6475252999999,569.6475252999999,569.6475252999999,571.6475989,571.6475989,571.6475989,571.6475989,571.632396,2,None,1.5099253999997018,0.2219268999997439,,,,,,,,,,,,,,,,,,,,,,8452,1,2025-06-20_12h01.46.987,sm,2024.2.4,59.97782020219568,2025-06-20 12h01.58.469366 +0200,
53,0,53,,,,,,space,6.356830700000501,None,None,3,None,1.2708077999996021,0.1728945000004387,0,0,0,0,,,,,0,0,0,0,,,,,53,0,53,0,571.6475989,,,,,,,,,,,,,,,,,,,,,,,,,,,,,,,,,,,,,,,,,,,,,,,,,,,,,,,,,Wohnung,2.0108,571.6329058000001,571.6335452000003,571.6336508000004,571.6475989,573.6638541000002,573.6483987000001,573.6524400999997,573.6638541000002,573.6638541000002,573.6638541000002,573.6638541000002,575.663998,575.663998,575.663998,575.663998,575.6483985000004,3,None,1.2708077999996021,0.1728945000004387,,,,,,,,,,,,,,,,,,,,,,8452,1,2025-06-20_12h01.46.987,sm,2024.2.4,59.97782020219568,2025-06-20 12h01.58.469366 +0200,
54,0,54,,,,,,space,6.356830700000501,None,None,None,None,,,0,0,0,0,,,,,0,0,0,0,,,,,54,0,54,0,575.663998,,,,,,,,,,,,,,,,,,,,,,,,,,,,,,,,,,,,,,,,,,,,,,,,,,,,,,,,,Kappe,2.963,575.6489075999998,575.649649,575.6497532000003,575.663998,578.6304227,578.6148199999998,578.6188122000003,578.6304227,578.6304227,578.6304227,578.6304227,580.6304762999998,580.6304762999998,580.6304762999998,580.6304762999998,580.6148442000003,None,None,,,,,,,,,,,,,,,,,,,,,,,,8452,1,2025-06-20_12h01.46.987,sm,2024.2.4,59.97782020219568,2025-06-20 12h01.58.469366 +0200,
55,0,55,,,,,,space,6.356830700000501,None,None,3,None,0.9245057000007364,0.3060141999994812,0,0,0,0,,,,,0,0,0,0,,,,,55,0,55,0,580.6304762999998,,,,,,,,,,,,,,,,,,,,,,,,,,,,,,,,,,,,,,,,,,,,,,,,,,,,,,,,,Maske,2.1825,580.6153169999998,580.6159599000002,580.6160656000002,580.6304762999998,582.8131574999998,582.7976103000001,582.8018843999998,582.8131574999998,582.8131574999998,582.8131574999998,582.8131574999998,584.8134609999997,584.8134609999997,584.8134609999997,584.8134609999997,584.7977855999998,3,None,0.9245057000007364,0.3060141999994812,,,,,,,,,,,,,,,,,,,,,,8452,1,2025-06-20_12h01.46.987,sm,2024.2.4,59.97782020219568,2025-06-20 12h01.58.469366 +0200,
56,0,56,,,,,,space,6.356830700000501,None,None,3,None,1.0932652000001326,0.19658440000057453,0,0,0,0,,,,,0,0,0,0,,,,,56,0,56,0,584.8134609999997,,,,,,,,,,,,,,,,,,,,,,,,,,,,,,,,,,,,,,,,,,,,,,,,,,,,,,,,,Waschbecken,3.1839,584.7982951000004,584.7987927000004,584.7988987999997,584.8134609999997,587.9965031000002,587.9808304999997,587.9852432999996,587.9965031000002,587.9965031000002,587.9965031000002,587.9965031000002,589.9966285,589.9966285,589.9966285,589.9966285,589.9808884000004,3,None,1.0932652000001326,0.19658440000057453,,,,,,,,,,,,,,,,,,,,,,8452,1,2025-06-20_12h01.46.987,sm,2024.2.4,59.97782020219568,2025-06-20 12h01.58.469366 +0200,
57,0,57,,,,,,space,6.356830700000501,None,None,3,None,1.3395150999995167,0.18747450000046229,0,0,0,0,,,,,0,0,0,0,,,,,57,0,57,0,589.9966285,,,,,,,,,,,,,,,,,,,,,,,,,,,,,,,,,,,,,,,,,,,,,,,,,,,,,,,,,Tasche,2.8981,589.9813372999997,589.9818562,589.9819490999998,589.9966285,592.8961634999996,592.8806040999998,592.8847894999999,592.8961634999996,592.8961634999996,592.8961634999996,592.8961634999996,594.8962466000003,594.8962466000003,594.8962466000003,594.8962466000003,594.8805622,3,None,1.3395150999995167,0.18747450000046229,,,,,,,,,,,,,,,,,,,,,,8452,1,2025-06-20_12h01.46.987,sm,2024.2.4,59.97782020219568,2025-06-20 12h01.58.469366 +0200,
58,0,58,,,,,,space,6.356830700000501,None,None,3,None,0.9338954999993803,0.24950360000002547,0,0,0,0,,,,,0,0,0,0,,,,,58,0,58,0,594.8962466000003,,,,,,,,,,,,,,,,,,,,,,,,,,,,,,,,,,,,,,,,,,,,,,,,,,,,,,,,,Beine,2.1097,594.8810777999997,594.8817171999999,594.8818256000004,594.8962466000003,597.0127916000001,596.9969595000002,597.0002903000004,597.0127916000001,597.0127916000001,597.0127916000001,597.0127916000001,599.0126173999997,599.0126173999997,599.0126173999997,599.0126173999997,598.9969210999998,3,None,0.9338954999993803,0.24950360000002547,,,,,,,,,,,,,,,,,,,,,,8452,1,2025-06-20_12h01.46.987,sm,2024.2.4,59.97782020219568,2025-06-20 12h01.58.469366 +0200,
59,0,59,,,,,,space,6.356830700000501,None,None,2,None,1.5545807999997123,0.21212139999988722,0,0,0,0,,,,,0,0,0,0,,,,,59,0,59,0,599.0126173999997,,,,,,,,,,,,,,,,,,,,,,,,,,,,,,,,,,,,,,,,,,,,,,,,,,,,,,,,,Atem,2.7033,598.9974346999998,598.9979297999998,598.9980322000001,599.0126173999997,601.7298191999998,601.7133653000001,601.7169872000004,601.7298191999998,601.7298191999998,601.7298191999998,601.7298191999998,603.7291894,603.7291894,603.7291894,603.7291894,603.7135980000003,2,None,1.5545807999997123,0.21212139999988722,,,,,,,,,,,,,,,,,,,,,,8452,1,2025-06-20_12h01.46.987,sm,2024.2.4,59.97782020219568,2025-06-20 12h01.58.469366 +0200,
60,0,60,,,,,,space,6.356830700000501,None,None,2,None,0.997050500000114,0.18044890000055602,0,0,0,0,,,,,0,0,0,0,,,,,60,0,60,0,603.7291894,,,,,,,,,,,,,,,,,,,,,,,,,,,,,,,,,,,,,,,,,,,,,,,,,,,,,,,,,Blätter,4.5851,603.7141066000004,603.7148291000003,603.7149327999996,603.7291894,608.3289496999996,608.3130762000001,608.3171531999997,608.3289496999996,608.3289496999996,608.3289496999996,608.3289496999996,610.3286115000001,610.3286115000001,610.3286115000001,610.3286115000001,610.3129350999998,2,None,0.997050500000114,0.18044890000055602,,,,,,,,,,,,,,,,,,,,,,8452,1,2025-06-20_12h01.46.987,sm,2024.2.4,59.97782020219568,2025-06-20 12h01.58.469366 +0200,
61,0,61,,,,,,space,6.356830700000501,None,None,3,None,0.8848416000000725,0.22480219999943074,0,0,0,0,,,,,0,0,0,0,,,,,61,0,61,0,610.3286115000001,,,,,,,,,,,,,,,,,,,,,,,,,,,,,,,,,,,,,,,,,,,,,,,,,,,,,,,,,Nebel,3.3205,610.3134424,610.3140838999998,610.3141882999998,610.3286115000001,613.6616684999999,613.6461798,613.6501231000002,613.6616684999999,613.6616684999999,613.6616684999999,613.6616684999999,615.6616385999996,615.6616385999996,615.6616385999996,615.6616385999996,615.6462127000004,3,None,0.8848416000000725,0.22480219999943074,,,,,,,,,,,,,,,,,,,,,,8452,1,2025-06-20_12h01.46.987,sm,2024.2.4,59.97782020219568,2025-06-20 12h01.58.469366 +0200,
62,0,62,,,,,,space,6.356830700000501,None,None,2,None,1.4661019000004671,0.1977523999994446,0,0,0,0,,,,,0,0,0,0,,,,,62,0,62,0,615.6616385999996,,,,,,,,,,,,,,,,,,,,,,,,,,,,,,,,,,,,,,,,,,,,,,,,,,,,,,,,,Mund,2.1101,615.6467172000002,615.6472581999997,615.6473646000004,615.6616385999996,617.7779815000004,617.7624993,617.7683162000003,617.7779815000004,617.7779815000004,617.7779815000004,617.7779815000004,619.7781796999998,619.7781796999998,619.7781796999998,619.7781796999998,619.7625127000001,2,None,1.4661019000004671,0.1977523999994446,,,,,,,,,,,,,,,,,,,,,,8452,1,2025-06-20_12h01.46.987,sm,2024.2.4,59.97782020219568,2025-06-20 12h01.58.469366 +0200,
63,0,63,,,,,,space,6.356830700000501,None,None,2,None,1.5944022000003315,0.16838129999996454,0,0,0,0,,,,,0,0,0,0,,,,,63,0,63,0,619.7781796999998,,,,,,,,,,,,,,,,,,,,,,,,,,,,,,,,,,,,,,,,,,,,,,,,,,,,,,,,,Baum,2.3109,619.7630243000003,619.7635288000001,619.7636339999999,619.7781796999998,622.0945700000002,622.0790585000004,622.0828099,622.0945700000002,622.0945700000002,622.0945700000002,622.0945700000002,624.0948701999996,624.0948701999996,624.0948701999996,624.0948701999996,624.0788888999996,2,None,1.5944022000003315,0.16838129999996454,,,,,,,,,,,,,,,,,,,,,,8452,1,2025-06-20_12h01.46.987,sm,2024.2.4,59.97782020219568,2025-06-20 12h01.58.469366 +0200,
64,0,64,,,,,,space,6.356830700000501,None,None,2,None,0.677429100000154,0.212445299999672,0,0,0,0,,,,,0,0,0,0,,,,,64,0,64,0,624.0948701999996,,,,,,,,,,,,,,,,,,,,,,,,,,,,,,,,,,,,,,,,,,,,,,,,,,,,,,,,,Gelenk,2.1538,624.0794094000003,624.0799192000004,624.0800311000003,624.0948701999996,626.2614636999997,626.2450883000001,626.2489546999996,626.2614636999997,626.2614636999997,626.2614636999997,626.2614636999997,628.2610916000003,628.2610916000003,628.2610916000003,628.2610916000003,628.2454821000001,2,None,0.677429100000154,0.212445299999672,,,,,,,,,,,,,,,,,,,,,,8452,1,2025-06-20_12h01.46.987,sm,2024.2.4,59.97782020219568,2025-06-20 12h01.58.469366 +0200,
65,0,65,,,,,,space,6.356830700000501,None,None,3,None,1.366663100000551,0.24119539999992412,0,0,0,0,,,,,0,0,0,0,,,,,65,0,65,0,628.2610916000003,,,,,,,,,,,,,,,,,,,,,,,,,,,,,,,,,,,,,,,,,,,,,,,,,,,,,,,,,Krieg,2.2794,628.2459994999999,628.2465088999998,628.2466187,628.2610916000003,630.5440116999998,630.5285599999997,630.5326376000003,630.5440116999998,630.5440116999998,630.5440116999998,630.5440116999998,632.5440988999999,632.5440988999999,632.5440988999999,632.5440988999999,632.5283509999999,3,None,1.366663100000551,0.24119539999992412,,,,,,,,,,,,,,,,,,,,,,8452,1,2025-06-20_12h01.46.987,sm,2024.2.4,59.97782020219568,2025-06-20 12h01.58.469366 +0200,
66,0,66,,,,,,space,6.356830700000501,None,None,2,None,1.3387927999992826,0.1738308000003599,0,0,0,0,,,,,0,0,0,0,,,,,66,0,66,0,632.5440988999999,,,,,,,,,,,,,,,,,,,,,,,,,,,,,,,,,,,,,,,,,,,,,,,,,,,,,,,,,Publikum,3.7066,632.5288653999996,632.5293736000003,632.5294795999998,632.5440988999999,636.2601932999996,636.2447057999998,636.2487100999997,636.2601932999996,636.2601932999996,636.2601932999996,636.2601932999996,638.2605057999999,638.2605057999999,638.2605057999999,638.2605057999999,638.2448748999996,2,None,1.3387927999992826,0.1738308000003599,,,,,,,,,,,,,,,,,,,,,,8452,1,2025-06-20_12h01.46.987,sm,2024.2.4,59.97782020219568,2025-06-20 12h01.58.469366 +0200,
67,0,67,,,,,,space,6.356830700000501,None,None,2,None,1.0673870000000534,0.30912459999944986,0,0,0,0,,,,,0,0,0,0,,,,,67,0,67,0,638.2605057999999,,,,,,,,,,,,,,,,,,,,,,,,,,,,,,,,,,,,,,,,,,,,,,,,,,,,,,,,,Party,2.7739,638.2453938999997,638.2458989999996,638.2460035000004,638.2605057999999,641.0433997999999,641.0277457000002,641.0344021000001,641.0433997999999,641.0433997999999,641.0433997999999,641.0433997999999,643.0434518000002,643.0434518000002,643.0434518000002,643.0434518000002,643.0281143000002,2,None,1.0673870000000534,0.30912459999944986,,,,,,,,,,,,,,,,,,,,,,8452,1,2025-06-20_12h01.46.987,sm,2024.2.4,59.97782020219568,2025-06-20 12h01.58.469366 +0200,
68,0,68,,,,,,space,6.356830700000501,None,None,3,None,1.604437599999983,0.20517729999937728,0,0,0,0,,,,,0,0,0,0,,,,,68,0,68,0,643.0434518000002,,,,,,,,,,,,,,,,,,,,,,,,,,,,,,,,,,,,,,,,,,,,,,,,,,,,,,,,,Fliegen,2.2721,643.0286316000002,643.0291322000003,643.0292380000001,643.0434518000002,645.3264393,645.3108407999998,645.3159341,645.3264393,645.3264393,645.3264393,645.3264393,647.3266184000004,647.3266184000004,647.3266184000004,647.3266184000004,647.3108128000003,3,None,1.604437599999983,0.20517729999937728,,,,,,,,,,,,,,,,,,,,,,8452,1,2025-06-20_12h01.46.987,sm,2024.2.4,59.97782020219568,2025-06-20 12h01.58.469366 +0200,
69,0,69,,,,,,space,6.356830700000501,None,None,2,None,1.2225220000000263,0.1845143000000462,0,0,0,0,,,,,0,0,0,0,,,,,69,0,69,0,647.3266184000004,,,,,,,,,,,,,,,,,,,,,,,,,,,,,,,,,,,,,,,,,,,,,,,,,,,,,,,,,Eule,5.0205,647.3113309999999,647.3118351000003,647.3119425000004,647.3266184000004,652.3593314,652.3437631999996,652.3472284999998,652.3593314,652.3593314,652.3593314,652.3593314,654.3595750000004,654.3595750000004,654.3595750000004,654.3595750000004,654.3439197999996,2,None,1.2225220000000263,0.1845143000000462,,,,,,,,,,,,,,,,,,,,,,8452,1,2025-06-20_12h01.46.987,sm,2024.2.4,59.97782020219568,2025-06-20 12h01.58.469366 +0200,
70,0,70,,,,,,space,6.356830700000501,None,None,2,None,1.2785376000001634,0.16425929999968503,0,0,0,0,,,,,0,0,0,0,,,,,70,0,70,0,654.3595750000004,,,,,,,,,,,,,,,,,,,,,,,,,,,,,,,,,,,,,,,,,,,,,,,,,,,,,,,,,Trauben,5.0883,654.3444079000001,654.3448999000002,654.3450130000001,654.3595750000004,659.4590011999999,659.4434122000002,659.4476289000004,659.4590011999999,659.4590011999999,659.4590011999999,659.4590011999999,661.4589507999999,661.4589507999999,661.4589507999999,661.4589507999999,661.4435659000001,2,None,1.2785376000001634,0.16425929999968503,,,,,,,,,,,,,,,,,,,,,,8452,1,2025-06-20_12h01.46.987,sm,2024.2.4,59.97782020219568,2025-06-20 12h01.58.469366 +0200,
71,0,71,,,,,,space,6.356830700000501,None,None,2,None,1.0084830999994665,0.16561950000050274,0,0,0,0,,,,,0,0,0,0,,,,,71,0,71,0,661.4589507999999,,,,,,,,,,,,,,,,,,,,,,,,,,,,,,,,,,,,,,,,,,,,,,,,,,,,,,,,,Schwester,3.1908,661.4440809999996,661.4445894,661.4446936000004,661.4589507999999,664.6586343999998,664.6429605000003,664.6467916000001,664.6586343999998,664.6586343999998,664.6586343999998,664.6586343999998,666.6586974000002,666.6586974000002,666.6586974000002,666.6586974000002,666.6431474000001,2,None,1.0084830999994665,0.16561950000050274,,,,,,,,,,,,,,,,,,,,,,8452,1,2025-06-20_12h01.46.987,sm,2024.2.4,59.97782020219568,2025-06-20 12h01.58.469366 +0200,
72,0,72,,,,,,space,6.356830700000501,None,None,3,None,1.0214628999992783,0.2707791000002544,0,0,0,0,,,,,0,0,0,0,,,,,72,0,72,0,666.6586974000002,,,,,,,,,,,,,,,,,,,,,,,,,,,,,,,,,,,,,,,,,,,,,,,,,,,,,,,,,Tradition,4.653,666.6436548000001,666.6442143000004,666.6443200000003,666.6586974000002,671.3248741999996,671.3093251,671.3137561000003,671.3248741999996,671.3248741999996,671.3248741999996,671.3248741999996,673.324885,673.324885,673.324885,673.324885,673.3093924000004,3,None,1.0214628999992783,0.2707791000002544,,,,,,,,,,,,,,,,,,,,,,8452,1,2025-06-20_12h01.46.987,sm,2024.2.4,59.97782020219568,2025-06-20 12h01.58.469366 +0200,
73,0,73,,,,,,space,6.356830700000501,None,None,2,None,0.6747270000005301,0.38122519999978977,0,0,0,0,,,,,0,0,0,0,,,,,73,0,73,0,673.324885,,,,,,,,,,,,,,,,,,,,,,,,,,,,,,,,,,,,,,,,,,,,,,,,,,,,,,,,,Luft,2.0642,673.3098995,673.3106332999996,673.3107368999999,673.324885,675.3913272,675.3757916000004,675.3792794000001,675.3913272,675.3913272,675.3913272,675.3913272,677.3913927000003,677.3913927000003,677.3913927000003,677.3913927000003,677.3758899000004,2,None,0.6747270000005301,0.38122519999978977,,,,,,,,,,,,,,,,,,,,,,8452,1,2025-06-20_12h01.46.987,sm,2024.2.4,59.97782020219568,2025-06-20 12h01.58.469366 +0200,
74,0,74,,,,,,space,6.356830700000501,None,None,2,None,1.7111653000001752,0.17707809999956226,0,0,0,0,,,,,0,0,0,0,,,,,74,0,74,0,677.3913927000003,,,,,,,,,,,,,,,,,,,,,,,,,,,,,,,,,,,,,,,,,,,,,,,,,,,,,,,,,Weinen,3.6981,677.3764084000004,677.3769482999996,677.3770600999997,677.3913927000003,681.0912153999998,681.0756939000003,681.0798563999997,681.0912153999998,681.0912153999998,681.0912153999998,681.0912153999998,683.0913561999996,683.0913561999996,683.0913561999996,683.0913561999996,683.0753849000002,2,None,1.7111653000001752,0.17707809999956226,,,,,,,,,,,,,,,,,,,,,,8452,1,2025-06-20_12h01.46.987,sm,2024.2.4,59.97782020219568,2025-06-20 12h01.58.469366 +0200,
75,0,75,,,,,,space,6.356830700000501,None,None,3,None,0.916300400000182,0.21263689999977942,0,0,0,0,,,,,0,0,0,0,,,,,75,0,75,0,683.0913561999996,,,,,,,,,,,,,,,,,,,,,,,,,,,,,,,,,,,,,,,,,,,,,,,,,,,,,,,,,Hammer,2.2849,683.0758929000003,683.0764697000004,683.0765782999997,683.0913561999996,685.3906727000003,685.3750368999999,685.3795679000004,685.3906727000003,685.3906727000003,685.3906727000003,685.3906727000003,687.3909390999997,687.3909390999997,687.3909390999997,687.3909390999997,687.3750975000003,3,None,0.916300400000182,0.21263689999977942,,,,,,,,,,,,,,,,,,,,,,8452,1,2025-06-20_12h01.46.987,sm,2024.2.4,59.97782020219568,2025-06-20 12h01.58.469366 +0200,
76,0,76,,,,,,space,6.356830700000501,None,None,3,None,1.269697499999893,0.199147900000753,0,0,0,0,,,,,0,0,0,0,,,,,76,0,76,0,687.3909390999997,,,,,,,,,,,,,,,,,,,,,,,,,,,,,,,,,,,,,,,,,,,,,,,,,,,,,,,,,Schnee,5.7198,687.3756208000004,687.3761255,687.3762382000004,687.3909390999997,693.1239867000004,693.1084369999999,693.1125874999998,693.1239867000004,693.1239867000004,693.1239867000004,693.1239867000004,695.1241772000003,695.1241772000003,695.1241772000003,695.1241772000003,695.1082875000002,3,None,1.269697499999893,0.199147900000753,,,,,,,,,,,,,,,,,,,,,,8452,1,2025-06-20_12h01.46.987,sm,2024.2.4,59.97782020219568,2025-06-20 12h01.58.469366 +0200,
77,0,77,,,,,,space,6.356830700000501,None,None,2,None,0.9549633000005997,0.18043069999930594,0,0,0,0,,,,,0,0,0,0,,,,,77,0,77,0,695.1241772000003,,,,,,,,,,,,,,,,,,,,,,,,,,,,,,,,,,,,,,,,,,,,,,,,,,,,,,,,,Safari,4.674,695.1087998000003,695.1093688999999,695.1094727999998,695.1241772000003,699.8066465000002,699.7911039999999,699.7950198999997,699.8066465000002,699.8066465000002,699.8066465000002,699.8066465000002,701.8067677999998,701.8067677999998,701.8067677999998,701.8067677999998,701.7916222000003,2,None,0.9549633000005997,0.18043069999930594,,,,,,,,,,,,,,,,,,,,,,8452,1,2025-06-20_12h01.46.987,sm,2024.2.4,59.97782020219568,2025-06-20 12h01.58.469366 +0200,
78,0,78,,,,,,space,6.356830700000501,None,None,None,None,,,0,0,0,0,,,,,0,0,0,0,,,,,78,0,78,0,701.8067677999998,,,,,,,,,,,,,,,,,,,,,,,,,,,,,,,,,,,,,,,,,,,,,,,,,,,,,,,,,Gipfel,3.5869,701.7921361999997,701.7926213000001,701.7927233,701.8067677999998,705.4062363000003,705.3906917000004,705.3943077000004,705.4062363000003,705.4062363000003,705.4062363000003,705.4062363000003,707.4064040000003,707.4064040000003,707.4064040000003,707.4064040000003,707.3907216999996,None,None,,,,,,,,,,,,,,,,,,,,,,,,8452,1,2025-06-20_12h01.46.987,sm,2024.2.4,59.97782020219568,2025-06-20 12h01.58.469366 +0200,
79,0,79,,,,,,space,6.356830700000501,None,None,2,None,1.5233384000002843,0.19542509999973845,0,0,0,0,,,,,0,0,0,0,,,,,79,0,79,0,707.4064040000003,,,,,,,,,,,,,,,,,,,,,,,,,,,,,,,,,,,,,,,,,,,,,,,,,,,,,,,,,Olympia,2.6386,707.3912037999999,707.3917127000004,707.3918242999998,707.4064040000003,710.0561675999998,710.0405354000004,710.0454649000003,710.0561675999998,710.0561675999998,710.0561675999998,710.0561675999998,712.0681047999997,712.0681047999997,712.0681047999997,712.0681047999997,712.0404024999998,2,None,1.5233384000002843,0.19542509999973845,,,,,,,,,,,,,,,,,,,,,,8452,1,2025-06-20_12h01.46.987,sm,2024.2.4,59.97782020219568,2025-06-20 12h01.58.469366 +0200,
0,0,0,,,,,3.2048,space,2.608336700000109,None,None,3,None,1.0963371999996525,0.21746470000016416,0,0,0,0,,,,,1,0,1,0,0,79,79,22,0,0,0,0,756.4700721999998,,,,,,,,,,,,,,,,,,,,,,,,,,,,,,,,,,,,729.1208790000001,729.1211311999996,729.1273929999998,729.1331283999998,729.1331283999998,731.7568211999996,space,2.608336700000109,None,731.7569817000003,731.7717985999998,731.7717985999998,744.4556898000001,None,744.4630163000002,744.4708995999999,744.4710779666668,745.6733157999997,754.4702679666664,755.4733752000002,756.4545196999998,Duft,3.2048,756.4558543000003,756.4564020999997,756.4565094999998,756.4700721999998,759.6865027000003,759.6709419999997,759.6744637000002,759.6865027000003,759.6865027000003,759.6865027000003,759.6865027000003,761.6869930000003,761.6869930000003,761.6869930000003,761.6869930000003,761.6711674999997,3,None,1.0963371999996525,0.21746470000016416,724.0556248000003,724.0556986000001,None,724.0639535999999,724.0724074999998,728.0719351999996,728.0719351999996,728.0719351999996,729.0739592,2,0.9977576999999656,None,756.4700721999998,,,,,,,,,8452,1,2025-06-20_12h01.46.987,sm,2024.2.4,59.97782020219568,2025-06-20 12h01.58.469366 +0200,
1,0,1,,,,,,space,2.608336700000109,None,None,3,None,1.4432070000002568,0.19638259999919683,0,0,0,0,,,,,1,0,1,0,,,,,1,0,1,0,761.6869930000003,,,,,,,,,,,,,,,,,,,,,,,,,,,,,,,,,,,,,,,,,,,,,,,,,,,,,,,,,Kino,2.2849,761.6716798999996,761.6722478000002,761.6723537999997,761.6869930000003,763.9863642999999,763.9706137000003,763.9738542000005,763.9863642999999,763.9863642999999,763.9863642999999,763.9863642999999,765.9867803999996,765.9867803999996,765.9867803999996,765.9867803999996,765.9708688000001,3,None,1.4432070000002568,0.19638259999919683,,,,,,,,,,,,,,,,,,,,,,8452,1,2025-06-20_12h01.46.987,sm,2024.2.4,59.97782020219568,2025-06-20 12h01.58.469366 +0200,
2,0,2,,,,,,space,2.608336700000109,None,None,3,None,0.7412045000000944,0.19971830000031332,0,0,0,0,,,,,1,0,1,0,,,,,2,0,2,0,765.9867803999996,,,,,,,,,,,,,,,,,,,,,,,,,,,,,,,,,,,,,,,,,,,,,,,,,,,,,,,,,Küche,4.653,765.9714113999999,765.9722749000002,765.9724109999997,765.9867803999996,770.6525664000001,770.6371666000005,770.6413447000004,770.6525664000001,770.6525664000001,770.6525664000001,770.6525664000001,772.6526144999998,772.6526144999998,772.6526144999998,772.6526144999998,772.6369537999999,3,None,0.7412045000000944,0.19971830000031332,,,,,,,,,,,,,,,,,,,,,,8452,1,2025-06-20_12h01.46.987,sm,2024.2.4,59.97782020219568,2025-06-20 12h01.58.469366 +0200,
3,0,3,,,,,,space,2.608336700000109,None,None,3,None,0.7435477000008177,0.23044589999972231,0,0,0,0,,,,,1,0,1,0,,,,,3,0,3,0,772.6526144999998,,,,,,,,,,,,,,,,,,,,,,,,,,,,,,,,,,,,,,,,,,,,,,,,,,,,,,,,,Liebe,5.7319,772.6374638999996,772.6381965999999,772.6383034,772.6526144999998,778.3855041999996,778.3702111000002,778.3743764999999,778.3855041999996,778.3855041999996,778.3855041999996,778.3855041999996,780.3854674000004,780.3854674000004,780.3854674000004,780.3854674000004,780.3699736999997,3,None,0.7435477000008177,0.23044589999972231,,,,,,,,,,,,,,,,,,,,,,8452,1,2025-06-20_12h01.46.987,sm,2024.2.4,59.97782020219568,2025-06-20 12h01.58.469366 +0200,
4,0,4,,,,,,space,2.608336700000109,None,None,3,None,1.0301865000001271,0.1545295999994778,0,0,0,0,,,,,1,0,1,0,,,,,4,0,4,0,780.3854674000004,,,,,,,,,,,,,,,,,,,,,,,,,,,,,,,,,,,,,,,,,,,,,,,,,,,,,,,,,Ferien,2.6256,780.3705374000001,780.3710499999997,780.3711578000002,780.3854674000004,783.0189063999997,783.0034107000001,783.0076282,783.0189063999997,783.0189063999997,783.0189063999997,783.0189063999997,785.0187140999997,785.0187140999997,785.0187140999997,785.0187140999997,785.0031022000003,3,None,1.0301865000001271,0.1545295999994778,,,,,,,,,,,,,,,,,,,,,,8452,1,2025-06-20_12h01.46.987,sm,2024.2.4,59.97782020219568,2025-06-20 12h01.58.469366 +0200,
5,0,5,,,,,,space,2.608336700000109,None,None,3,None,0.716255799999999,0.16854909999983647,0,0,0,0,,,,,1,0,1,0,,,,,5,0,5,0,785.0187140999997,,,,,,,,,,,,,,,,,,,,,,,,,,,,,,,,,,,,,,,,,,,,,,,,,,,,,,,,,Sterne,3.8694,785.0036129999999,785.0042598999999,785.0043667,785.0187140999997,788.9015903999998,788.8863517,788.8905586999999,788.9015903999998,788.9015903999998,788.9015903999998,788.9015903999998,790.9015915999998,790.9015915999998,790.9015915999998,790.9015915999998,790.8861499000004,3,None,0.716255799999999,0.16854909999983647,,,,,,,,,,,,,,,,,,,,,,8452,1,2025-06-20_12h01.46.987,sm,2024.2.4,59.97782020219568,2025-06-20 12h01.58.469366 +0200,
6,0,6,,,,,,space,2.608336700000109,None,None,2,None,0.8502636000002894,0.18647580000015296,0,0,0,0,,,,,1,0,1,0,,,,,6,0,6,0,790.9015915999998,,,,,,,,,,,,,,,,,,,,,,,,,,,,,,,,,,,,,,,,,,,,,,,,,,,,,,,,,Sumpf,4.5614,790.8866592000004,790.8872431999998,790.8873529000002,790.9015915999998,795.4679453999997,795.4526231999998,795.4560449999999,795.4679453999997,795.4679453999997,795.4679453999997,795.4679453999997,797.4677915000002,797.4677915000002,797.4677915000002,797.4677915000002,797.4523483000003,2,None,0.8502636000002894,0.18647580000015296,,,,,,,,,,,,,,,,,,,,,,8452,1,2025-06-20_12h01.46.987,sm,2024.2.4,59.97782020219568,2025-06-20 12h01.58.469366 +0200,
7,0,7,,,,,,space,2.608336700000109,None,None,3,None,1.0544715999994878,0.19188890000077663,0,0,0,0,,,,,1,0,1,0,,,,,7,0,7,0,797.4677915000002,,,,,,,,,,,,,,,,,,,,,,,,,,,,,,,,,,,,,,,,,,,,,,,,,,,,,,,,,Geschäft,2.0642,797.4528602999999,797.4533641999997,797.4534702999999,797.4677915000002,799.534275,799.5187191000005,799.5227168000001,799.534275,799.534275,799.534275,799.534275,801.5342366000004,801.5342366000004,801.5342366000004,801.5342366000004,801.5186186999999,3,None,1.0544715999994878,0.19188890000077663,,,,,,,,,,,,,,,,,,,,,,8452,1,2025-06-20_12h01.46.987,sm,2024.2.4,59.97782020219568,2025-06-20 12h01.58.469366 +0200,
8,0,8,,,,,,space,2.608336700000109,None,None,3,None,1.4230492999995477,0.2073396000005232,0,0,0,0,,,,,1,0,1,0,,,,,8,0,8,0,801.5342366000004,,,,,,,,,,,,,,,,,,,,,,,,,,,,,,,,,,,,,,,,,,,,,,,,,,,,,,,,,Telefon,2.485,801.5191298,801.5196374999996,801.5197472999998,801.5342366000004,804.0339734999998,804.0183101000002,804.0224156000004,804.0339734999998,804.0339734999998,804.0339734999998,804.0339734999998,806.0339789999998,806.0339789999998,806.0339789999998,806.0339789999998,806.0184304000004,3,None,1.4230492999995477,0.2073396000005232,,,,,,,,,,,,,,,,,,,,,,8452,1,2025-06-20_12h01.46.987,sm,2024.2.4,59.97782020219568,2025-06-20 12h01.58.469366 +0200,
9,0,9,,,,,,space,2.608336700000109,None,None,3,None,1.0670155999996496,0.16563310000037745,0,0,0,0,,,,,1,0,1,0,,,,,9,0,9,0,806.0339789999998,,,,,,,,,,,,,,,,,,,,,,,,,,,,,,,,,,,,,,,,,,,,,,,,,,,,,,,,,Schläger,2.7644,806.0189484000002,806.0194614000002,806.0195676000003,806.0339789999998,808.8006332000004,808.7848013000003,808.7889236000001,808.8006332000004,808.8006332000004,808.8006332000004,808.8006332000004,810.8004674000003,810.8004674000003,810.8004674000003,810.8004674000003,810.7848139999996,3,None,1.0670155999996496,0.16563310000037745,,,,,,,,,,,,,,,,,,,,,,8452,1,2025-06-20_12h01.46.987,sm,2024.2.4,59.97782020219568,2025-06-20 12h01.58.469366 +0200,
10,0,10,,,,,,space,2.608336700000109,None,None,2,None,0.8034538000001703,0.2153796999991755,0,0,0,0,,,,,1,0,1,0,,,,,10,0,10,0,810.8004674000003,,,,,,,,,,,,,,,,,,,,,,,,,,,,,,,,,,,,,,,,,,,,,,,,,,,,,,,,,Wurm,2.7305,810.7853296000003,810.7860203999999,810.7861357000002,810.8004674000003,813.5334498000002,813.5178363000005,813.5219335000002,813.5334498000002,813.5334498000002,813.5334498000002,813.5334498000002,815.5336545999999,815.5336545999999,815.5336545999999,815.5336545999999,815.5177554000002,2,None,0.8034538000001703,0.2153796999991755,,,,,,,,,,,,,,,,,,,,,,8452,1,2025-06-20_12h01.46.987,sm,2024.2.4,59.97782020219568,2025-06-20 12h01.58.469366 +0200,
11,0,11,,,,,,space,2.608336700000109,None,None,3,None,0.8808619000001272,0.21281230000022333,0,0,0,0,,,,,1,0,1,0,,,,,11,0,11,0,815.5336545999999,,,,,,,,,,,,,,,,,,,,,,,,,,,,,,,,,,,,,,,,,,,,,,,,,,,,,,,,,Spaghetti,3.0177,815.5182808999998,815.5187927999996,815.5188985000004,815.5336545999999,818.5664070000003,818.5508395999996,818.5547741,818.5664070000003,818.5664070000003,818.5664070000003,818.5664070000003,820.5665772000002,820.5665772000002,820.5665772000002,820.5665772000002,820.5507968000002,3,None,0.8808619000001272,0.21281230000022333,,,,,,,,,,,,,,,,,,,,,,8452,1,2025-06-20_12h01.46.987,sm,2024.2.4,59.97782020219568,2025-06-20 12h01.58.469366 +0200,
12,0,12,,,,,,space,2.608336700000109,None,None,3,None,0.8606530000006387,0.19611069999973552,0,0,0,0,,,,,1,0,1,0,,,,,12,0,12,0,820.5665772000002,,,,,,,,,,,,,,,,,,,,,,,,,,,,,,,,,,,,,,,,,,,,,,,,,,,,,,,,,Medaille,5.0205,820.5513121000004,820.5518245000003,820.5519375000003,820.5665772000002,825.5990849999998,825.5838746,825.5874086000003,825.5990849999998,825.5990849999998,825.5990849999998,825.5990849999998,827.5994614000001,827.5994614000001,827.5994614000001,827.5994614000001,827.5839620999996,3,None,0.8606530000006387,0.19611069999973552,,,,,,,,,,,,,,,,,,,,,,8452,1,2025-06-20_12h01.46.987,sm,2024.2.4,59.97782020219568,2025-06-20 12h01.58.469366 +0200,
13,0,13,,,,,,space,2.608336700000109,None,None,3,None,1.0560930000001463,0.17575860000033572,0,0,0,0,,,,,1,0,1,0,,,,,13,0,13,0,827.5994614000001,,,,,,,,,,,,,,,,,,,,,,,,,,,,,,,,,,,,,,,,,,,,,,,,,,,,,,,,,Fiktion,2.1313,827.5844667000001,827.5851068000002,827.5852112000002,827.5994614000001,829.7326236999997,829.7176110999999,829.7217357999998,829.7326236999997,829.7326236999997,829.7326236999997,829.7326236999997,831.7326284000001,831.7326284000001,831.7326284000001,831.7326284000001,831.7169648999998,3,None,1.0560930000001463,0.17575860000033572,,,,,,,,,,,,,,,,,,,,,,8452,1,2025-06-20_12h01.46.987,sm,2024.2.4,59.97782020219568,2025-06-20 12h01.58.469366 +0200,
14,0,14,,,,,,space,2.608336700000109,None,None,3,None,0.7798201000005065,0.21577739999975165,0,0,0,0,,,,,1,0,1,0,,,,,14,0,14,0,831.7326284000001,,,,,,,,,,,,,,,,,,,,,,,,,,,,,,,,,,,,,,,,,,,,,,,,,,,,,,,,,Brief,3.4213,831.7174703000001,831.7181136999998,831.7182165000004,831.7326284000001,835.1655885,835.1498296999998,835.1532074999996,835.1655885,835.1655885,835.1655885,835.1655885,837.1655283,837.1655283,837.1655283,837.1655283,837.1498646999999,3,None,0.7798201000005065,0.21577739999975165,,,,,,,,,,,,,,,,,,,,,,8452,1,2025-06-20_12h01.46.987,sm,2024.2.4,59.97782020219568,2025-06-20 12h01.58.469366 +0200,
15,0,15,,,,,,space,2.608336700000109,None,None,3,None,0.851485700000012,0.19446739999966667,0,0,0,0,,,,,1,0,1,0,,,,,15,0,15,0,837.1655283,,,,,,,,,,,,,,,,,,,,,,,,,,,,,,,,,,,,,,,,,,,,,,,,,,,,,,,,,Humor,2.1101,837.1503777999997,837.1508764,837.1509833999999,837.1655283,839.2819797000002,839.2663603000001,839.2703364999998,839.2819797000002,839.2819797000002,839.2819797000002,839.2819797000002,841.2820271999999,841.2820271999999,841.2820271999999,841.2820271999999,841.2665224000002,3,None,0.851485700000012,0.19446739999966667,,,,,,,,,,,,,,,,,,,,,,8452,1,2025-06-20_12h01.46.987,sm,2024.2.4,59.97782020219568,2025-06-20 12h01.58.469366 +0200,
16,0,16,,,,,,space,2.608336700000109,None,None,2,None,1.876746899999489,None,0,0,0,0,,,,,1,0,1,0,,,,,16,0,16,0,841.2820271999999,,,,,,,,,,,,,,,,,,,,,,,,,,,,,,,,,,,,,,,,,,,,,,,,,,,,,,,,,Reise,2.9489,841.2670312,841.2678106000003,841.267914,841.2820271999999,844.2317128000004,844.2161930000002,844.2212984999996,844.2317128000004,844.2317128000004,844.2317128000004,844.2317128000004,846.2321413999998,846.2321413999998,846.2321413999998,846.2321413999998,846.2160444000001,2,None,1.876746899999489,None,,,,,,,,,,,,,,,,,,,,,,8452,1,2025-06-20_12h01.46.987,sm,2024.2.4,59.97782020219568,2025-06-20 12h01.58.469366 +0200,
17,0,17,,,,,,space,2.608336700000109,None,None,2,None,1.4245686999993268,0.23221710000052553,0,0,0,0,,,,,1,0,1,0,,,,,17,0,17,0,846.2321413999998,,,,,,,,,,,,,,,,,,,,,,,,,,,,,,,,,,,,,,,,,,,,,,,,,,,,,,,,,Professor,3.7066,846.2165665000002,846.2171117999997,846.2172172999999,846.2321413999998,849.9481360999998,849.9325882000003,849.9371103000003,849.9481360999998,849.9481360999998,849.9481360999998,849.9481360999998,851.9479025,851.9479025,851.9479025,851.9479025,851.9324060999998,2,None,1.4245686999993268,0.23221710000052553,,,,,,,,,,,,,,,,,,,,,,8452,1,2025-06-20_12h01.46.987,sm,2024.2.4,59.97782020219568,2025-06-20 12h01.58.469366 +0200,
18,0,18,,,,,,space,2.608336700000109,None,None,2,None,1.2777906000001167,0.20791900000040187,0,0,0,0,,,,,1,0,1,0,,,,,18,0,18,0,851.9479025,,,,,,,,,,,,,,,,,,,,,,,,,,,,,,,,,,,,,,,,,,,,,,,,,,,,,,,,,Essen,2.5926,851.9329193000003,851.9335640999998,851.9336702,851.9479025,854.5478205,854.5322439000001,854.5361972999999,854.5478205,854.5478205,854.5478205,854.5478205,856.5480490999998,856.5480490999998,856.5480490999998,856.5480490999998,856.5321419000002,2,None,1.2777906000001167,0.20791900000040187,,,,,,,,,,,,,,,,,,,,,,8452,1,2025-06-20_12h01.46.987,sm,2024.2.4,59.97782020219568,2025-06-20 12h01.58.469366 +0200,
19,0,19,,,,,,space,2.608336700000109,None,None,2,None,1.9099922999994305,None,0,0,0,0,,,,,1,0,1,0,,,,,19,0,19,0,856.5480490999998,,,,,,,,,,,,,,,,,,,,,,,,,,,,,,,,,,,,,,,,,,,,,,,,,,,,,,,,,Raum,4.7179,856.5326648999999,856.5331649999998,856.5332752000004,856.5480490999998,861.2809146999998,861.2653049,861.2690472000004,861.2809146999998,861.2809146999998,861.2809146999998,861.2809146999998,863.2812191000003,863.2812191000003,863.2812191000003,863.2812191000003,863.2651452,2,None,1.9099922999994305,None,,,,,,,,,,,,,,,,,,,,,,8452,1,2025-06-20_12h01.46.987,sm,2024.2.4,59.97782020219568,2025-06-20 12h01.58.469366 +0200,
20,0,20,,,,,,space,2.608336700000109,None,None,2,None,0.7395956999998816,0.19467009999971197,0,0,0,0,,,,,1,0,1,0,,,,,20,0,20,0,863.2812191000003,,,,,,,,,,,,,,,,,,,,,,,,,,,,,,,,,,,,,,,,,,,,,,,,,,,,,,,,,Zähne,2.6386,863.2656422,863.2663942999998,863.2664956999997,863.2812191000003,865.9303792999999,865.9148610000002,865.9188416999996,865.9303792999999,865.9303792999999,865.9303792999999,865.9303792999999,867.9304879000001,867.9304879000001,867.9304879000001,867.9304879000001,867.9150706999999,2,None,0.7395956999998816,0.19467009999971197,,,,,,,,,,,,,,,,,,,,,,8452,1,2025-06-20_12h01.46.987,sm,2024.2.4,59.97782020219568,2025-06-20 12h01.58.469366 +0200,
21,0,21,,,,,,space,2.608336700000109,None,None,2,None,0.6986609000005046,0.22025329999996757,0,0,0,0,,,,,1,0,1,0,,,,,21,0,21,0,867.9304879000001,,,,,,,,,,,,,,,,,,,,,,,,,,,,,,,,,,,,,,,,,,,,,,,,,,,,,,,,,Käse,2.1538,867.9155792000001,867.9163294,867.9165071999996,867.9304879000001,870.0969941000003,870.0816771999998,870.0852944999997,870.0969941000003,870.0969941000003,870.0969941000003,870.0969941000003,872.0971817,872.0971817,872.0971817,872.0971817,872.0813189,2,None,0.6986609000005046,0.22025329999996757,,,,,,,,,,,,,,,,,,,,,,8452,1,2025-06-20_12h01.46.987,sm,2024.2.4,59.97782020219568,2025-06-20 12h01.58.469366 +0200,
22,0,22,,,,,,space,2.608336700000109,None,None,3,None,0.8502655000002051,0.25444229999993695,0,0,0,0,,,,,1,0,1,0,,,,,22,0,22,0,872.0971817,,,,,,,,,,,,,,,,,,,,,,,,,,,,,,,,,,,,,,,,,,,,,,,,,,,,,,,,,Diamant,2.0118,872.0818351999997,872.0823418,872.0824504000002,872.0971817,874.1134014999998,874.0976287000003,874.1013269000005,874.1134014999998,874.1134014999998,874.1134014999998,874.1134014999998,876.1133210999997,876.1133210999997,876.1133210999997,876.1133210999997,876.0978274999998,3,None,0.8502655000002051,0.25444229999993695,,,,,,,,,,,,,,,,,,,,,,8452,1,2025-06-20_12h01.46.987,sm,2024.2.4,59.97782020219568,2025-06-20 12h01.58.469366 +0200,
23,0,23,,,,,,space,2.608336700000109,None,None,None,None,,,0,0,0,0,,,,,1,0,1,0,,,,,23,0,23,0,876.1133210999997,,,,,,,,,,,,,,,,,,,,,,,,,,,,,,,,,,,,,,,,,,,,,,,,,,,,,,,,,Tal,2.6442,876.0983408000002,876.0988512000004,876.0989583999999,876.1133210999997,878.7630485,878.7475194999997,878.7514410000003,878.7630485,878.7630485,878.7630485,878.7630485,880.7630983999998,880.7630983999998,880.7630983999998,880.7630983999998,880.7475910000003,None,None,,,,,,,,,,,,,,,,,,,,,,,,8452,1,2025-06-20_12h01.46.987,sm,2024.2.4,59.97782020219568,2025-06-20 12h01.58.469366 +0200,
24,0,24,,,,,,space,2.608336700000109,None,None,3,None,1.4967193000002226,0.1984639000002062,0,0,0,0,,,,,1,0,1,0,,,,,24,0,24,0,880.7630983999998,,,,,,,,,,,,,,,,,,,,,,,,,,,,,,,,,,,,,,,,,,,,,,,,,,,,,,,,,Bildung,3.7528,880.7480685,880.7485583999996,880.7486657999998,880.7630983999998,884.5294264000004,884.5139722000004,884.5182203000004,884.5294264000004,884.5294264000004,884.5294264000004,884.5294264000004,886.5294615000003,886.5294615000003,886.5294615000003,886.5294615000003,886.5137673999998,3,None,1.4967193000002226,0.1984639000002062,,,,,,,,,,,,,,,,,,,,,,8452,1,2025-06-20_12h01.46.987,sm,2024.2.4,59.97782020219568,2025-06-20 12h01.58.469366 +0200,
25,0,25,,,,,,space,2.608336700000109,None,None,3,None,1.615157299999737,0.19672689999970316,0,0,0,0,,,,,1,0,1,0,,,,,25,0,25,0,886.5294615000003,,,,,,,,,,,,,,,,,,,,,,,,,,,,,,,,,,,,,,,,,,,,,,,,,,,,,,,,,Weiß,2.5444,886.5142766999998,886.5149063999997,886.5150107,886.5294615000003,889.0793947000002,889.0634579999996,889.0667758999998,889.0793947000002,889.0793947000002,889.0793947000002,889.0793947000002,891.0790381999996,891.0790381999996,891.0790381999996,891.0790381999996,891.0635697999996,3,None,1.615157299999737,0.19672689999970316,,,,,,,,,,,,,,,,,,,,,,8452,1,2025-06-20_12h01.46.987,sm,2024.2.4,59.97782020219568,2025-06-20 12h01.58.469366 +0200,
26,0,26,,,,,,space,2.608336700000109,None,None,2,None,1.25078829999984,0.16539759999977832,0,0,0,0,,,,,1,0,1,0,,,,,26,0,26,0,891.0790381999996,,,,,,,,,,,,,,,,,,,,,,,,,,,,,,,,,,,,,,,,,,,,,,,,,,,,,,,,,Zwerg,3.2426,891.0640813999998,891.0645826999998,891.0646874000004,891.0790381999996,894.3287774999999,894.3133461999996,894.3170362999999,894.3287774999999,894.3287774999999,894.3287774999999,894.3287774999999,896.3287209,896.3287209,896.3287209,896.3287209,896.3131733,2,None,1.25078829999984,0.16539759999977832,,,,,,,,,,,,,,,,,,,,,,8452,1,2025-06-20_12h01.46.987,sm,2024.2.4,59.97782020219568,2025-06-20 12h01.58.469366 +0200,
27,0,27,,,,,,space,2.608336700000109,None,None,None,None,,,0,0,0,0,,,,,1,0,1,0,,,,,27,0,27,0,896.3287209,,,,,,,,,,,,,,,,,,,,,,,,,,,,,,,,,,,,,,,,,,,,,,,,,,,,,,,,,Sand,2.2794,896.31369,896.3143314999998,896.3144381000002,896.3287209,898.6120627,898.5962456999996,898.5993619000001,898.6120627,898.6120627,898.6120627,898.6120627,900.6118395000003,900.6118395000003,900.6118395000003,900.6118395000003,900.5965550999999,None,None,,,,,,,,,,,,,,,,,,,,,,,,8452,1,2025-06-20_12h01.46.987,sm,2024.2.4,59.97782020219568,2025-06-20 12h01.58.469366 +0200,
28,0,28,,,,,,space,2.608336700000109,None,None,3,None,1.7434138000007806,0.1775179999995089,0,0,0,0,,,,,1,0,1,0,,,,,28,0,28,0,900.6118395000003,,,,,,,,,,,,,,,,,,,,,,,,,,,,,,,,,,,,,,,,,,,,,,,,,,,,,,,,,Tanne,2.3361,900.5970311000001,900.5976684999996,900.5977777999997,900.6118395000003,902.9615897000003,902.9458661999997,902.9497626000002,902.9615897000003,902.9615897000003,902.9615897000003,902.9615897000003,904.9616635000002,904.9616635000002,904.9616635000002,904.9616635000002,904.9460651999998,3,None,1.7434138000007806,0.1775179999995089,,,,,,,,,,,,,,,,,,,,,,8452,1,2025-06-20_12h01.46.987,sm,2024.2.4,59.97782020219568,2025-06-20 12h01.58.469366 +0200,
29,0,29,,,,,,space,2.608336700000109,None,None,2,None,1.8243782999998075,None,0,0,0,0,,,,,1,0,1,0,,,,,29,0,29,0,904.9616635000002,,,,,,,,,,,,,,,,,,,,,,,,,,,,,,,,,,,,,,,,,,,,,,,,,,,,,,,,,Nase,2.0243,904.9465830999998,904.9470928999999,904.9472003000001,904.9616635000002,906.9949755999996,906.9790685999997,906.9821319000002,906.9949755999996,906.9949755999996,906.9949755999996,906.9949755999996,908.9947270000002,908.9947270000002,908.9947270000002,908.9947270000002,908.9797710000003,2,None,1.8243782999998075,None,,,,,,,,,,,,,,,,,,,,,,8452,1,2025-06-20_12h01.46.987,sm,2024.2.4,59.97782020219568,2025-06-20 12h01.58.469366 +0200,
30,0,30,,,,,,space,2.608336700000109,None,None,3,None,0.8619985000004817,0.20182199999999284,0,0,0,0,,,,,1,0,1,0,,,,,30,0,30,0,908.9947270000002,,,,,,,,,,,,,,,,,,,,,,,,,,,,,,,,,,,,,,,,,,,,,,,,,,,,,,,,,Kante,2.8786,908.9803253999999,908.9808728999997,908.9809793000004,908.9947270000002,911.8776082000004,911.8621401999999,911.8681503999996,911.8776082000004,911.8776082000004,911.8776082000004,911.8776082000004,913.8778535000001,913.8778535000001,913.8778535000001,913.8778535000001,913.8623145000001,3,None,0.8619985000004817,0.20182199999999284,,,,,,,,,,,,,,,,,,,,,,8452,1,2025-06-20_12h01.46.987,sm,2024.2.4,59.97782020219568,2025-06-20 12h01.58.469366 +0200,
31,0,31,,,,,,space,2.608336700000109,None,None,3,None,1.004561400000057,0.2164135000002716,0,0,0,0,,,,,1,0,1,0,,,,,31,0,31,0,913.8778535000001,,,,,,,,,,,,,,,,,,,,,,,,,,,,,,,,,,,,,,,,,,,,,,,,,,,,,,,,,Pflege,3.1839,913.8628273000004,913.8633421000004,913.8634468,913.8778535000001,917.0609254999999,917.0454454999999,917.0492618999997,917.0609254999999,917.0609254999999,917.0609254999999,917.0609254999999,919.0608038999999,919.0608038999999,919.0608038999999,919.0608038999999,919.0450758999996,3,None,1.004561400000057,0.2164135000002716,,,,,,,,,,,,,,,,,,,,,,8452,1,2025-06-20_12h01.46.987,sm,2024.2.4,59.97782020219568,2025-06-20 12h01.58.469366 +0200,
32,0,32,,,,,,space,2.608336700000109,None,None,3,None,1.4195879999997487,0.22769880000032572,0,0,0,0,,,,,1,0,1,0,,,,,32,0,32,0,919.0608038999999,,,,,,,,,,,,,,,,,,,,,,,,,,,,,,,,,,,,,,,,,,,,,,,,,,,,,,,,,Radio,2.2803,919.0455909000002,919.0461009999999,919.0462085999998,919.0608038999999,921.3438834999997,921.3283140000003,921.3318246999997,921.3438834999997,921.3438834999997,921.3438834999997,921.3438834999997,923.3442593,923.3442593,923.3442593,923.3442593,923.3283147000002,3,None,1.4195879999997487,0.22769880000032572,,,,,,,,,,,,,,,,,,,,,,8452,1,2025-06-20_12h01.46.987,sm,2024.2.4,59.97782020219568,2025-06-20 12h01.58.469366 +0200,
33,0,33,,,,,,space,2.608336700000109,None,None,3,None,0.7285683000000063,0.22793739999997342,0,0,0,0,,,,,1,0,1,0,,,,,33,0,33,0,923.3442593,,,,,,,,,,,,,,,,,,,,,,,,,,,,,,,,,,,,,,,,,,,,,,,,,,,,,,,,,Flut,5.0883,923.3288288000003,923.3293325000004,923.3294421,923.3442593,928.4435587999997,928.4279570999997,928.4312532000004,928.4435587999997,928.4435587999997,928.4435587999997,928.4435587999997,930.4440223000001,930.4440223000001,930.4440223000001,930.4440223000001,930.4280637000002,3,None,0.7285683000000063,0.22793739999997342,,,,,,,,,,,,,,,,,,,,,,8452,1,2025-06-20_12h01.46.987,sm,2024.2.4,59.97782020219568,2025-06-20 12h01.58.469366 +0200,
34,0,34,,,,,,space,2.608336700000109,None,None,2,None,1.0136666999997033,0.18448059999991528,0,0,0,0,,,,,1,0,1,0,,,,,34,0,34,0,930.4440223000001,,,,,,,,,,,,,,,,,,,,,,,,,,,,,,,,,,,,,,,,,,,,,,,,,,,,,,,,,Rebe,2.2922,930.4285753000004,930.4290712000002,930.4291749000004,930.4440223000001,932.7435034,932.7279087999996,932.7314864,932.7435034,932.7435034,932.7435034,932.7435034,934.7433385000004,934.7433385000004,934.7433385000004,934.7433385000004,934.7276700000002,2,None,1.0136666999997033,0.18448059999991528,,,,,,,,,,,,,,,,,,,,,,8452,1,2025-06-20_12h01.46.987,sm,2024.2.4,59.97782020219568,2025-06-20 12h01.58.469366 +0200,
35,0,35,,,,,,space,2.608336700000109,None,None,3,None,1.0813435999998546,0.22437230000014097,0,0,0,0,,,,,1,0,1,0,,,,,35,0,35,0,934.7433385000004,,,,,,,,,,,,,,,,,,,,,,,,,,,,,,,,,,,,,,,,,,,,,,,,,,,,,,,,,Gegenwart,2.5717,934.7281819999998,934.7288465000001,934.7289575000004,934.7433385000004,937.3269557000003,937.3108333,937.3150662999997,937.3269557000003,937.3269557000003,937.3269557000003,937.3269557000003,939.3264083000004,939.3264083000004,939.3264083000004,939.3264083000004,939.3107504999998,3,None,1.0813435999998546,0.22437230000014097,,,,,,,,,,,,,,,,,,,,,,8452,1,2025-06-20_12h01.46.987,sm,2024.2.4,59.97782020219568,2025-06-20 12h01.58.469366 +0200,
36,0,36,,,,,,space,2.608336700000109,None,None,2,None,1.0272852999996758,0.26993140000013227,0,0,0,0,,,,,1,0,1,0,,,,,36,0,36,0,939.3264083000004,,,,,,,,,,,,,,,,,,,,,,,,,,,,,,,,,,,,,,,,,,,,,,,,,,,,,,,,,Monster,2.8591,939.3112645000001,939.3117573,939.3118611999998,939.3264083000004,942.1932445000002,942.1775428999999,942.1817872000001,942.1932445000002,942.1932445000002,942.1932445000002,942.1932445000002,944.1927108999998,944.1927108999998,944.1927108999998,944.1927108999998,944.1772283,2,None,1.0272852999996758,0.26993140000013227,,,,,,,,,,,,,,,,,,,,,,8452,1,2025-06-20_12h01.46.987,sm,2024.2.4,59.97782020219568,2025-06-20 12h01.58.469366 +0200,
37,0,37,,,,,,space,2.608336700000109,None,None,3,None,0.8669626999999309,0.23543770000014774,0,0,0,0,,,,,1,0,1,0,,,,,37,0,37,0,944.1927108999998,,,,,,,,,,,,,,,,,,,,,,,,,,,,,,,,,,,,,,,,,,,,,,,,,,,,,,,,,Papier,2.3955,944.1777358999998,944.1782999999996,944.1784064000003,944.1927108999998,946.5925551,946.5769154999998,946.5818043999998,946.5925551,946.5925551,946.5925551,946.5925551,948.5925501000002,948.5925501000002,948.5925501000002,948.5925501000002,948.5769172,3,None,0.8669626999999309,0.23543770000014774,,,,,,,,,,,,,,,,,,,,,,8452,1,2025-06-20_12h01.46.987,sm,2024.2.4,59.97782020219568,2025-06-20 12h01.58.469366 +0200,
38,0,38,,,,,,space,2.608336700000109,None,None,3,None,0.8503562999994756,0.24671639999996842,0,0,0,0,,,,,1,0,1,0,,,,,38,0,38,0,948.5925501000002,,,,,,,,,,,,,,,,,,,,,,,,,,,,,,,,,,,,,,,,,,,,,,,,,,,,,,,,,Vers,3.1908,948.5774346999997,948.5779331000003,948.5780431000003,948.5925501000002,951.7923270000001,951.7767333000002,951.7805299000001,951.7923270000001,951.7923270000001,951.7923270000001,951.7923270000001,953.7926403000001,953.7926403000001,953.7926403000001,953.7926403000001,953.7767216000002,3,None,0.8503562999994756,0.24671639999996842,,,,,,,,,,,,,,,,,,,,,,8452,1,2025-06-20_12h01.46.987,sm,2024.2.4,59.97782020219568,2025-06-20 12h01.58.469366 +0200,
39,0,39,,,,,,space,2.608336700000109,None,None,2,None,1.0155845999997837,0.17028969999955734,0,0,0,0,,,,,1,0,1,0,,,,,39,0,39,0,953.7926403000001,,,,,,,,,,,,,,,,,,,,,,,,,,,,,,,,,,,,,,,,,,,,,,,,,,,,,,,,,Konzert,2.2721,953.7772438000002,953.7777569,953.7778605000003,953.7926403000001,956.0754612999999,956.0597262000001,956.0636285999999,956.0754612999999,956.0754612999999,956.0754612999999,956.0754612999999,958.0752522000003,958.0752522000003,958.0752522000003,958.0752522000003,958.0595752999998,2,None,1.0155845999997837,0.17028969999955734,,,,,,,,,,,,,,,,,,,,,,8452,1,2025-06-20_12h01.46.987,sm,2024.2.4,59.97782020219568,2025-06-20 12h01.58.469366 +0200,
40,0,40,,,,,,space,2.608336700000109,None,None,3,None,1.430984499999795,0.18845710000005056,0,0,0,0,,,,,1,0,1,0,,,,,40,0,40,0,958.0752522000003,,,,,,,,,,,,,,,,,,,,,,,,,,,,,,,,,,,,,,,,,,,,,,,,,,,,,,,,,Handwerker,2.0516,958.0601336,958.0606482000003,958.0607566999997,958.0752522000003,960.1416423000001,960.1262273000002,960.1312527,960.1416423000001,960.1416423000001,960.1416423000001,960.1416423000001,962.1421765000005,962.1421765000005,962.1421765000005,962.1421765000005,962.1261205000001,3,None,1.430984499999795,0.18845710000005056,,,,,,,,,,,,,,,,,,,,,,8452,1,2025-06-20_12h01.46.987,sm,2024.2.4,59.97782020219568,2025-06-20 12h01.58.469366 +0200,
41,0,41,,,,,,space,2.608336700000109,None,None,2,None,1.6840973999997004,0.19942930000070191,0,0,0,0,,,,,1,0,1,0,,,,,41,0,41,0,962.1421765000005,,,,,,,,,,,,,,,,,,,,,,,,,,,,,,,,,,,,,,,,,,,,,,,,,,,,,,,,,Geburtstag,2.1097,962.1266337999996,962.1271487000004,962.1272547999997,962.1421765000005,964.2582718000003,964.2425173000001,964.2470493999999,964.2582718000003,964.2582718000003,964.2582718000003,964.2582718000003,966.2581731,966.2581731,966.2581731,966.2581731,966.2426845999998,2,None,1.6840973999997004,0.19942930000070191,,,,,,,,,,,,,,,,,,,,,,8452,1,2025-06-20_12h01.46.987,sm,2024.2.4,59.97782020219568,2025-06-20 12h01.58.469366 +0200,
42,0,42,,,,,,space,2.608336700000109,None,None,3,None,1.1715149999999994,0.23834939999960625,0,0,0,0,,,,,1,0,1,0,,,,,42,0,42,0,966.2581731,,,,,,,,,,,,,,,,,,,,,,,,,,,,,,,,,,,,,,,,,,,,,,,,,,,,,,,,,Spülung,3.3205,966.2431985000003,966.2437068999998,966.2438129000002,966.2581731,969.5912393999997,969.5755009000004,969.5789926999996,969.5912393999997,969.5912393999997,969.5912393999997,969.5912393999997,971.5911772999998,971.5911772999998,971.5911772999998,971.5911772999998,971.5761095999997,3,None,1.1715149999999994,0.23834939999960625,,,,,,,,,,,,,,,,,,,,,,8452,1,2025-06-20_12h01.46.987,sm,2024.2.4,59.97782020219568,2025-06-20 12h01.58.469366 +0200,
43,0,43,,,,,,space,2.608336700000109,None,None,3,None,1.3177550999998857,0.2257475999995222,0,0,0,0,,,,,1,0,1,0,,,,,43,0,43,0,971.5911772999998,,,,,,,,,,,,,,,,,,,,,,,,,,,,,,,,,,,,,,,,,,,,,,,,,,,,,,,,,Schnorchel,2.0505,971.5766261999997,971.5771467000004,971.5772508999999,971.5911772999998,973.6411369999996,973.6255357999999,973.6310702000001,973.6411369999996,973.6411369999996,973.6411369999996,973.6411369999996,975.6411750999996,975.6411750999996,975.6411750999996,975.6411750999996,975.6254231000003,3,None,1.3177550999998857,0.2257475999995222,,,,,,,,,,,,,,,,,,,,,,8452,1,2025-06-20_12h01.46.987,sm,2024.2.4,59.97782020219568,2025-06-20 12h01.58.469366 +0200,
44,0,44,,,,,,space,2.608336700000109,None,None,3,None,0.8785811000007016,0.1981441999996605,0,0,0,0,,,,,1,0,1,0,,,,,44,0,44,0,975.6411750999996,,,,,,,,,,,,,,,,,,,,,,,,,,,,,,,,,,,,,,,,,,,,,,,,,,,,,,,,,Zigarette,2.1371,975.6259424999998,975.6264517,975.6265572000002,975.6411750999996,977.7906756000002,977.7749844999998,977.7786101000002,977.7906756000002,977.7906756000002,977.7906756000002,977.7906756000002,979.7907968999998,979.7907968999998,979.7907968999998,979.7907968999998,979.7752741000004,3,None,0.8785811000007016,0.1981441999996605,,,,,,,,,,,,,,,,,,,,,,8452,1,2025-06-20_12h01.46.987,sm,2024.2.4,59.97782020219568,2025-06-20 12h01.58.469366 +0200,
45,0,45,,,,,,space,2.608336700000109,None,None,2,None,1.0343164000005345,0.1965154999998049,0,0,0,0,,,,,1,0,1,0,,,,,45,0,45,0,979.7907968999998,,,,,,,,,,,,,,,,,,,,,,,,,,,,,,,,,,,,,,,,,,,,,,,,,,,,,,,,,Apfel,2.3109,979.7757793000001,979.7764230000002,979.7765311000003,979.7907968999998,982.1068713000004,982.0915967000001,982.0952844000003,982.1068713000004,982.1068713000004,982.1068713000004,982.1068713000004,984.1070909,984.1070909,984.1070909,984.1070909,984.0916072999999,2,None,1.0343164000005345,0.1965154999998049,,,,,,,,,,,,,,,,,,,,,,8452,1,2025-06-20_12h01.46.987,sm,2024.2.4,59.97782020219568,2025-06-20 12h01.58.469366 +0200,
46,0,46,,,,,,space,2.608336700000109,None,None,3,None,0.8981099000002359,0.20681280000007973,0,0,0,0,,,,,1,0,1,0,,,,,46,0,46,0,984.1070909,,,,,,,,,,,,,,,,,,,,,,,,,,,,,,,,,,,,,,,,,,,,,,,,,,,,,,,,,Gel,4.674,984.0921171999998,984.0926582000002,984.0927619000004,984.1070909,988.7901663000002,988.7746601999997,988.7778589,988.7901663000002,988.7901663000002,988.7901663000002,988.7901663000002,990.7901062999999,990.7901062999999,990.7901062999999,990.7901062999999,990.7748018000002,3,None,0.8981099000002359,0.20681280000007973,,,,,,,,,,,,,,,,,,,,,,8452,1,2025-06-20_12h01.46.987,sm,2024.2.4,59.97782020219568,2025-06-20 12h01.58.469366 +0200,
47,0,47,,,,,,space,2.608336700000109,None,None,3,None,0.9539973999999347,0.21099819999926694,0,0,0,0,,,,,1,0,1,0,,,,,47,0,47,0,990.7901062999999,,,,,,,,,,,,,,,,,,,,,,,,,,,,,,,,,,,,,,,,,,,,,,,,,,,,,,,,,Monument,2.0166,990.7753146000005,990.7758180000001,990.7759279000002,990.7901062999999,992.8064838999999,992.79079,992.7946247999998,992.8064838999999,992.8064838999999,992.8064838999999,992.8064838999999,994.8065262,994.8065262,994.8065262,994.8065262,994.7909442999999,3,None,0.9539973999999347,0.21099819999926694,,,,,,,,,,,,,,,,,,,,,,8452,1,2025-06-20_12h01.46.987,sm,2024.2.4,59.97782020219568,2025-06-20 12h01.58.469366 +0200,
48,0,48,,,,,,space,2.608336700000109,None,None,3,None,0.7887706999999864,0.21308589999989636,0,0,0,0,,,,,1,0,1,0,,,,,48,0,48,0,994.8065262,,,,,,,,,,,,,,,,,,,,,,,,,,,,,,,,,,,,,,,,,,,,,,,,,,,,,,,,,Sicherheit,2.7033,994.7914498,994.7921846999998,994.792289,994.8065262,997.5227427,997.5073533000004,997.5112424999998,997.5227427,997.5227427,997.5227427,997.5227427,999.522809,999.522809,999.522809,999.522809,999.5078878000004,3,None,0.7887706999999864,0.21308589999989636,,,,,,,,,,,,,,,,,,,,,,8452,1,2025-06-20_12h01.46.987,sm,2024.2.4,59.97782020219568,2025-06-20 12h01.58.469366 +0200,
49,0,49,,,,,,space,2.608336700000109,None,None,2,None,1.0789905000001454,0.1824603000004572,0,0,0,0,,,,,1,0,1,0,,,,,49,0,49,0,999.522809,,,,,,,,,,,,,,,,,,,,,,,,,,,,,,,,,,,,,,,,,,,,,,,,,,,,,,,,,Turnerin,2.9624,999.5083989000004,999.5089631999999,999.5090717000003,999.522809,1002.4893228000001,1002.4736279999997,1002.4774377000003,1002.4893228000001,1002.4893228000001,1002.4893228000001,1002.4893228000001,1004.4895434999999,1004.4895434999999,1004.4895434999999,1004.4895434999999,1004.4737980999998,2,None,1.0789905000001454,0.1824603000004572,,,,,,,,,,,,,,,,,,,,,,8452,1,2025-06-20_12h01.46.987,sm,2024.2.4,59.97782020219568,2025-06-20 12h01.58.469366 +0200,
50,0,50,,,,,,space,2.608336700000109,None,None,3,None,1.114196699999411,0.21020640000006097,0,0,0,0,,,,,1,0,1,0,,,,,50,0,50,0,1004.4895434999999,,,,,,,,,,,,,,,,,,,,,,,,,,,,,,,,,,,,,,,,,,,,,,,,,,,,,,,,,Bad,2.2197,1004.4743037999997,1004.4748675000001,1004.4749728999996,1004.4895434999999,1006.7223348999996,1006.7072022000002,1006.7115379999996,1006.7223348999996,1006.7223348999996,1006.7223348999996,1006.7223348999996,1008.7225226999999,1008.7225226999999,1008.7225226999999,1008.7225226999999,1008.7068712999999,3,None,1.114196699999411,0.21020640000006097,,,,,,,,,,,,,,,,,,,,,,8452,1,2025-06-20_12h01.46.987,sm,2024.2.4,59.97782020219568,2025-06-20 12h01.58.469366 +0200,
51,0,51,,,,,,space,2.608336700000109,None,None,2,None,1.5120526999999129,0.20146960000056424,0,0,0,0,,,,,1,0,1,0,,,,,51,0,51,0,1008.7225226999999,,,,,,,,,,,,,,,,,,,,,,,,,,,,,,,,,,,,,,,,,,,,,,,,,,,,,,,,,Wind,2.7739,1008.7073770999996,1008.7079018000004,1008.7080072999997,1008.7225226999999,1011.5056867000003,1011.4897429000002,1011.4935291000002,1011.5056867000003,1011.5056867000003,1011.5056867000003,1011.5056867000003,1013.5055845999996,1013.5055845999996,1013.5055845999996,1013.5055845999996,1013.4897209999999,2,None,1.5120526999999129,0.20146960000056424,,,,,,,,,,,,,,,,,,,,,,8452,1,2025-06-20_12h01.46.987,sm,2024.2.4,59.97782020219568,2025-06-20 12h01.58.469366 +0200,
52,0,52,,,,,,space,2.608336700000109,None,None,3,None,0.8829674000007799,0.21729289999984758,0,0,0,0,,,,,1,0,1,0,,,,,52,0,52,0,1013.5055845999996,,,,,,,,,,,,,,,,,,,,,,,,,,,,,,,,,,,,,,,,,,,,,,,,,,,,,,,,,Album,5.7198,1013.4902290999999,1013.4908753999998,1013.4909803999999,1013.5055845999996,1019.2384248999997,1019.2225799999997,1019.2260652000004,1019.2384248999997,1019.2384248999997,1019.2384248999997,1019.2384248999997,1021.2384659999998,1021.2384659999998,1021.2384659999998,1021.2384659999998,1021.2225809000001,3,None,0.8829674000007799,0.21729289999984758,,,,,,,,,,,,,,,,,,,,,,8452,1,2025-06-20_12h01.46.987,sm,2024.2.4,59.97782020219568,2025-06-20 12h01.58.469366 +0200,
53,0,53,,,,,,space,2.608336700000109,None,None,3,None,0.798518999999942,0.2042197999999189,0,0,0,0,,,,,1,0,1,0,,,,,53,0,53,0,1021.2384659999998,,,,,,,,,,,,,,,,,,,,,,,,,,,,,,,,,,,,,,,,,,,,,,,,,,,,,,,,,Skizze,2.4673,1021.2230631000002,1021.2236911,1021.2237937999998,1021.2384659999998,1023.7047718000003,1023.6890546000004,1023.6927707000004,1023.7047718000003,1023.7047718000003,1023.7047718000003,1023.7047718000003,1025.7046911999996,1025.7046911999996,1025.7046911999996,1025.7046911999996,1025.6891525,3,None,0.798518999999942,0.2042197999999189,,,,,,,,,,,,,,,,,,,,,,8452,1,2025-06-20_12h01.46.987,sm,2024.2.4,59.97782020219568,2025-06-20 12h01.58.469366 +0200,
54,0,54,,,,,,space,2.608336700000109,None,None,3,None,0.6822002999997494,0.15759989999969548,0,0,0,0,,,,,1,0,1,0,,,,,54,0,54,0,1025.7046911999996,,,,,,,,,,,,,,,,,,,,,,,,,,,,,,,,,,,,,,,,,,,,,,,,,,,,,,,,,Schlüssel,2.7738,1025.6896685000002,1025.6901761,1025.6902809000003,1025.7046911999996,1028.487725,1028.4721630000004,1028.4764371,1028.487725,1028.487725,1028.487725,1028.487725,1030.4877319999996,1030.4877319999996,1030.4877319999996,1030.4877319999996,1030.4723136000002,3,None,0.6822002999997494,0.15759989999969548,,,,,,,,,,,,,,,,,,,,,,8452,1,2025-06-20_12h01.46.987,sm,2024.2.4,59.97782020219568,2025-06-20 12h01.58.469366 +0200,
55,0,55,,,,,,space,2.608336700000109,None,None,2,None,1.4342790999999124,0.19274310000037076,0,0,0,0,,,,,1,0,1,0,,,,,55,0,55,0,1030.4877319999996,,,,,,,,,,,,,,,,,,,,,,,,,,,,,,,,,,,,,,,,,,,,,,,,,,,,,,,,,Asche,2.963,1030.4728243999998,1030.4733342,1030.4734418999997,1030.4877319999996,1033.4542680000004,1033.4385604,1033.4424336000002,1033.4542680000004,1033.4542680000004,1033.4542680000004,1033.4542680000004,1035.4541381,1035.4541381,1035.4541381,1035.4541381,1035.4387100000004,2,None,1.4342790999999124,0.19274310000037076,,,,,,,,,,,,,,,,,,,,,,8452,1,2025-06-20_12h01.46.987,sm,2024.2.4,59.97782020219568,2025-06-20 12h01.58.469366 +0200,
56,0,56,,,,,,space,2.608336700000109,None,None,3,None,1.3547799000007217,0.2684411000000182,0,0,0,0,,,,,1,0,1,0,,,,,56,0,56,0,1035.4541381,,,,,,,,,,,,,,,,,,,,,,,,,,,,,,,,,,,,,,,,,,,,,,,,,,,,,,,,,Hose,4.5851,1035.4392245999998,1035.4397355,1035.4398438999997,1035.4541381,1040.0537894999998,1040.0381104999997,1040.0417389000004,1040.0537894999998,1040.0537894999998,1040.0537894999998,1040.0537894999998,1042.0538734000002,1042.0538734000002,1042.0538734000002,1042.0538734000002,1042.0381928999996,3,None,1.3547799000007217,0.2684411000000182,,,,,,,,,,,,,,,,,,,,,,8452,1,2025-06-20_12h01.46.987,sm,2024.2.4,59.97782020219568,2025-06-20 12h01.58.469366 +0200,
57,0,57,,,,,,space,2.608336700000109,None,None,2,None,1.2068716000003405,0.18850779999957012,0,0,0,0,,,,,1,0,1,0,,,,,57,0,57,0,1042.0538734000002,,,,,,,,,,,,,,,,,,,,,,,,,,,,,,,,,,,,,,,,,,,,,,,,,,,,,,,,,Geschwister,2.7681,1042.0387104000001,1042.0392164000004,1042.0393241000002,1042.0538734000002,1044.8366881000002,1044.8211793,1044.8258630999999,1044.8366881000002,1044.8366881000002,1044.8366881000002,1044.8366881000002,1046.8371298000002,1046.8371298000002,1046.8371298000002,1046.8371298000002,1046.8211671999998,2,None,1.2068716000003405,0.18850779999957012,,,,,,,,,,,,,,,,,,,,,,8452,1,2025-06-20_12h01.46.987,sm,2024.2.4,59.97782020219568,2025-06-20 12h01.58.469366 +0200,
58,0,58,,,,,,space,2.608336700000109,None,None,3,None,1.7753103000004558,None,0,0,0,0,,,,,1,0,1,0,,,,,58,0,58,0,1046.8371298000002,,,,,,,,,,,,,,,,,,,,,,,,,,,,,,,,,,,,,,,,,,,,,,,,,,,,,,,,,Scheidung,3.1687,1046.821653,1046.8221445,1046.8222433,1046.8371298000002,1050.0198395999996,1050.0042672,1050.0078845999997,1050.0198395999996,1050.0198395999996,1050.0198395999996,1050.0198395999996,1052.0198069999997,1052.0198069999997,1052.0198069999997,1052.0198069999997,1052.0048948000003,3,None,1.7753103000004558,None,,,,,,,,,,,,,,,,,,,,,,8452,1,2025-06-20_12h01.46.987,sm,2024.2.4,59.97782020219568,2025-06-20 12h01.58.469366 +0200,
59,0,59,,,,,,space,2.608336700000109,None,None,None,None,,,0,0,0,0,,,,,1,0,1,0,,,,,59,0,59,0,1052.0198069999997,,,,,,,,,,,,,,,,,,,,,,,,,,,,,,,,,,,,,,,,,,,,,,,,,,,,,,,,,Afrika,3.5869,1052.0054093999997,1052.0059517999998,1052.0060666999998,1052.0198069999997,1055.6194445,1055.6039327999997,1055.6074981000002,1055.6194445,1055.6194445,1055.6194445,1055.6194445,1057.6196867999997,1057.6196867999997,1057.6196867999997,1057.6196867999997,1057.6045377,None,None,,,,,,,,,,,,,,,,,,,,,,,,8452,1,2025-06-20_12h01.46.987,sm,2024.2.4,59.97782020219568,2025-06-20 12h01.58.469366 +0200,
60,0,60,,,,,,space,2.608336700000109,None,None,None,None,,,0,0,0,0,,,,,1,0,1,0,,,,,60,0,60,0,1057.6196867999997,,,,,,,,,,,,,,,,,,,,,,,,,,,,,,,,,,,,,,,,,,,,,,,,,,,,,,,,,Weihnachten,2.1825,1057.6050197000004,1057.6055046000001,1057.6056079,1057.6196867999997,1059.8026855999997,1059.7871568,1059.7918919000003,1059.8026855999997,1059.8026855999997,1059.8026855999997,1059.8026855999997,1061.8029304000002,1061.8029304000002,1061.8029304000002,1061.8029304000002,1061.7872057000004,None,None,,,,,,,,,,,,,,,,,,,,,,,,8452,1,2025-06-20_12h01.46.987,sm,2024.2.4,59.97782020219568,2025-06-20 12h01.58.469366 +0200,
61,0,61,,,,,,space,2.608336700000109,None,None,3,None,0.9486723999998503,0.2103212000001804,0,0,0,0,,,,,1,0,1,0,,,,,61,0,61,0,1061.8029304000002,,,,,,,,,,,,,,,,,,,,,,,,,,,,,,,,,,,,,,,,,,,,,,,,,,,,,,,,,Tasse,2.0418,1061.7876859999997,1061.7881869000003,1061.7883017000004,1061.8029304000002,1063.8525318000002,1063.8366803999998,1063.8404850999996,1063.8525318000002,1063.8525318000002,1063.8525318000002,1063.8525318000002,1065.8528446,1065.8528446,1065.8528446,1065.8528446,1065.8369097000004,3,None,0.9486723999998503,0.2103212000001804,,,,,,,,,,,,,,,,,,,,,,8452,1,2025-06-20_12h01.46.987,sm,2024.2.4,59.97782020219568,2025-06-20 12h01.58.469366 +0200,
62,0,62,,,,,,space,2.608336700000109,None,None,3,None,0.9530611000000135,0.25126210000053106,0,0,0,0,,,,,1,0,1,0,,,,,62,0,62,0,1065.8528446,,,,,,,,,,,,,,,,,,,,,,,,,,,,,,,,,,,,,,,,,,,,,,,,,,,,,,,,,Zimmer,2.0049,1065.8374329999997,1065.8381668000002,1065.8382725000001,1065.8528446,1067.8693354999996,1067.8535297999997,1067.8575927000002,1067.8693354999996,1067.8693354999996,1067.8693354999996,1067.8693354999996,1069.8690815999998,1069.8690815999998,1069.8690815999998,1069.8690815999998,1069.8534026999996,3,None,0.9530611000000135,0.25126210000053106,,,,,,,,,,,,,,,,,,,,,,8452,1,2025-06-20_12h01.46.987,sm,2024.2.4,59.97782020219568,2025-06-20 12h01.58.469366 +0200,
63,0,63,,,,,,space,2.608336700000109,None,None,3,None,0.8192856000005122,0.20384779999949387,0,0,0,0,,,,,1,0,1,0,,,,,63,0,63,0,1069.8690815999998,,,,,,,,,,,,,,,,,,,,,,,,,,,,,,,,,,,,,,,,,,,,,,,,,,,,,,,,,Knöchel,2.3771,1069.8539314999998,1069.8544513999996,1069.8545575999997,1069.8690815999998,1072.2519683,1072.2362844999998,1072.2399580000001,1072.2519683,1072.2519683,1072.2519683,1072.2519683,1074.2518751999996,1074.2518751999996,1074.2518751999996,1074.2518751999996,1074.2363453999997,3,None,0.8192856000005122,0.20384779999949387,,,,,,,,,,,,,,,,,,,,,,8452,1,2025-06-20_12h01.46.987,sm,2024.2.4,59.97782020219568,2025-06-20 12h01.58.469366 +0200,
64,0,64,,,,,,space,2.608336700000109,None,None,3,None,1.0700360000000728,0.22718520000034914,0,0,0,0,,,,,1,0,1,0,,,,,64,0,64,0,1074.2518751999996,,,,,,,,,,,,,,,,,,,,,,,,,,,,,,,,,,,,,,,,,,,,,,,,,,,,,,,,,Team,5.1086,1074.2368637,1074.2373651999997,1074.2374710000004,1074.2518751999996,1079.3681685000001,1079.3525546,1079.3567322999997,1079.3681685000001,1079.3681685000001,1079.3681685000001,1079.3681685000001,1081.3682425999996,1081.3682425999996,1081.3682425999996,1081.3682425999996,1081.3526005000003,3,None,1.0700360000000728,0.22718520000034914,,,,,,,,,,,,,,,,,,,,,,8452,1,2025-06-20_12h01.46.987,sm,2024.2.4,59.97782020219568,2025-06-20 12h01.58.469366 +0200,
