thisN,thisTrialN,thisRepN,Cue,Target,Mediator1,Mediator2,iti,scanner_ready_press.keys,scanner_ready_press.rt,scanner_ready_press.duration,skip_trigger.keys,living_nonliving.keys,living_nonliving.rt,living_nonliving.duration,end_mapping.keys,blocks.thisRepN,blocks.thisTrialN,blocks.thisN,blocks.thisIndex,load_and_shuffle.thisRepN,load_and_shuffle.thisTrialN,load_and_shuffle.thisN,load_and_shuffle.thisIndex,runs.thisRepN,runs.thisTrialN,runs.thisN,runs.thisIndex,iti_loading_loop.thisRepN,iti_loading_loop.thisTrialN,iti_loading_loop.thisN,iti_loading_loop.thisIndex,semantic_mapping_run.thisRepN,semantic_mapping_run.thisTrialN,semantic_mapping_run.thisN,semantic_mapping_run.thisIndex,thisRow.t,notes,welcome.started,welcome_text.started,key_resp__welcome.started,welcome.stopped,key_resp__welcome.keys,key_resp__welcome.rt,key_resp__welcome.duration,scout.started,scout_text.started,key_resp.started,scout.stopped,key_resp.keys,key_resp.rt,key_resp.duration,instructions_semantic_mapping1.started,sm_instructions1_text.started,sm_instructions1_key.started,instructions_semantic_mapping1.stopped,sm_instructions1_key.keys,sm_instructions1_key.rt,sm_instructions1_key.duration,instructions_semantic_mapping2.started,sm_instructions2_text.started,sm_instructions2_key.started,instructions_semantic_mapping2.stopped,sm_instructions2_key.keys,sm_instructions2_key.rt,sm_instructions2_key.duration,reset_run.started,reset_run.stopped,shuffle_items.started,shuffle_items.stopped,set_up_runs.started,set_up_runs.stopped,load_iti.started,load_iti.stopped,prep_scanner.started,scanner_ready_press.started,ready_set_text.started,prep_scanner.stopped,runs.scanner_ready_press.keys,runs.scanner_ready_press.rt,runs.scanner_ready_press.duration,wait_for_trigger.started,starting_soon.started,skip_trigger.started,wait_for_trigger.stopped,runs.skip_trigger.keys,blank.started,begin_end_run_cross.started,sound_1.started,sound_1.stopped,sound_2.started,sound_2.stopped,blank.stopped,CurrentItem,CurrentITI,set_up_trial.started,set_up_trial.stopped,sm_iti.started,iti_cross.started,iti_cross.stopped,sm_iti.stopped,item.started,living_nonliving.started,end_mapping.started,living_nonliving_text.started,semantic_map_item.started,item.stopped,semantic_mapping_run.living_nonliving.keys,semantic_mapping_run.living_nonliving.rt,semantic_mapping_run.living_nonliving.duration,semantic_mapping_run.end_mapping.keys,living_nonliving.stopped,end_mapping.stopped,living_nonliving_text.stopped,semantic_map_item.stopped,fieldmap.started,fieldmap.stopped,runs.fm_key.keys,task_break.started,feeback_text.started,task_break_text.started,task_break_resp.started,feeback_text.stopped,task_break.stopped,runs.task_break_resp.keys,runs.task_break_resp.rt,runs.task_break_resp.duration,begin_end_run_cross.stopped,fm_text.started,fm_key.started,runs.fm_key.rt,runs.fm_key.duration,thanks.started,thanks_text.started,thanks.stopped,PID,MRI,date,expName,psychopyVersion,frameRate,expStart,
,,,,,,,,,,,,,,,,,,,,,,,,,,,,,,,,,,,,,,0.0036534000009851297,0.013676700000360142,0.013676700000360142,125.60874700000022,space,125.58858990000044,None,,,,,,,,,,,,,,,,,,,,,,,,,,,,,,,,,,,,,,,,,,,,,,,,,,,,,,,,,,,,,,,,,,,,,,,,,,,,,,,,,,,,,,,,,,,4954,1,2025-07-09_19h00.19.535,sm,2024.2.4,59.98908198687408,2025-07-09 19h00.47.156572 +0200,
,,,,,,,,,,,,,,,,,,,,,,,,,,,,,,,,,,,,,,,,,,,,,125.60887690000163,125.62350010000046,125.62350010000046,252.1509283000014,space,126.5081983,None,,,,,,,,,,,,,,,,,,,,,,,,,,,,,,,,,,,,,,,,,,,,,,,,,,,,,,,,,,,,,,,,,,,,,,,,,,,,,,,,,,,,4954,1,2025-07-09_19h00.19.535,sm,2024.2.4,59.98908198687408,2025-07-09 19h00.47.156572 +0200,
,,,,,,,,,,,,,,,,,,,,,,,,,,,,,,,,,,,,,,,,,,,,,,,,,,,,252.15106090000154,252.16602050000074,252.16602050000074,258.9505100000006,2,6.770709200000056,None,,,,,,,,,,,,,,,,,,,,,,,,,,,,,,,,,,,,,,,,,,,,,,,,,,,,,,,,,,,,,,,,,,,,,,,,,,,,,4954,1,2025-07-09_19h00.19.535,sm,2024.2.4,59.98908198687408,2025-07-09 19h00.47.156572 +0200,
,,,,,,,,,,,,,,,,,,,,,,,,,,,,,,,,,,,,,,,,,,,,,,,,,,,,,,,,,,,258.9506300000012,258.9655410000014,258.9655410000014,272.08103850000043,2,13.108078699999169,None,,,,,,,,,,,,,,,,,,,,,,,,,,,,,,,,,,,,,,,,,,,,,,,,,,,,,,,,,,,,,,,,,,,,,,4954,1,2025-07-09_19h00.19.535,sm,2024.2.4,59.98908198687408,2025-07-09 19h00.47.156572 +0200,
0,0,0,Olympia,Medaille,Sport,Ringe,4.8014,space,3.999568900000668,None,None,2,1.2891063999995822,0.2892866000001959,None,0,0,0,0,0,79,79,13,0,0,0,0,0,79,79,16,0,0,0,0,335.0618361000015,,,,,,,,,,,,,,,,,,,,,,,,,,,,,,272.08195140000134,272.0826265000014,272.1498988000003,272.1501517000015,272.15464410000095,272.1549158000016,272.18455600000016,272.1847419000005,272.1912080000002,272.19520190000003,272.19520190000003,276.19974230000116,space,3.999568900000668,None,276.19989890000033,276.21451530000013,276.21451530000013,323.02818690000095,None,323.0375410000015,323.0458701000007,323.043408366668,324.2556017000006,333.02794456666766,334.03559459999997,335.0445056000008,Känguru,4.8014,335.0458335000003,335.0465714000002,335.0494561000014,335.0618361000015,339.8787115000014,339.8616468,339.8680845000017,339.8787115000014,339.8787115000014,339.8787115000014,339.8787115000014,341.877596100001,2,1.2891063999995822,0.2892866000001959,None,,,,,,,,,,,,,,,,,,,,,,,,,4954,1,2025-07-09_19h00.19.535,sm,2024.2.4,59.98908198687408,2025-07-09 19h00.47.156572 +0200,
1,0,1,,,,,,space,3.999568900000668,None,None,3,0.9852309999987483,0.2552382000012585,None,0,0,0,0,,,,,0,0,0,0,,,,,1,0,1,0,341.89400360000036,,,,,,,,,,,,,,,,,,,,,,,,,,,,,,,,,,,,,,,,,,,,,,,,,,,,,,,,,Nudeln,2.131,341.87808010000117,341.8789084,341.87901560000137,341.89400360000036,344.02710190000107,344.0114372000007,344.01608190000115,344.02710190000107,344.02710190000107,344.02710190000107,344.02710190000107,346.0117123,3,0.9852309999987483,0.2552382000012585,None,346.0270657000001,346.0270657000001,346.0270657000001,346.0270657000001,,,,,,,,,,,,,,,,,,,,,4954,1,2025-07-09_19h00.19.535,sm,2024.2.4,59.98908198687408,2025-07-09 19h00.47.156572 +0200,
2,0,2,,,,,,space,3.999568900000668,None,None,3,1.0728507000003447,0.228657600000588,None,0,0,0,0,,,,,0,0,0,0,,,,,2,0,2,0,346.0270657000001,,,,,,,,,,,,,,,,,,,,,,,,,,,,,,,,,,,,,,,,,,,,,,,,,,,,,,,,,Kälte,2.2511,346.0122304000015,346.0127472000004,346.01285290000123,346.0270657000001,348.27678300000116,348.26145630000065,348.2655147000005,348.27678300000116,348.27678300000116,348.27678300000116,348.27678300000116,350.2614400000002,3,1.0728507000003447,0.228657600000588,None,350.27732630000173,350.27732630000173,350.27732630000173,350.27732630000173,,,,,,,,,,,,,,,,,,,,,4954,1,2025-07-09_19h00.19.535,sm,2024.2.4,59.98908198687408,2025-07-09 19h00.47.156572 +0200,
3,0,3,,,,,,space,3.999568900000668,None,None,3,0.9246801999997842,0.2943532999997842,None,0,0,0,0,,,,,0,0,0,0,,,,,3,0,3,0,350.27732630000173,,,,,,,,,,,,,,,,,,,,,,,,,,,,,,,,,,,,,,,,,,,,,,,,,,,,,,,,,Marmor,2.2763,350.2619512000001,350.2624695000013,350.26257330000044,350.27732630000173,352.56006290000005,352.5443238000007,352.5484781000014,352.56006290000005,352.56006290000005,352.56006290000005,352.56006290000005,354.54442840000047,3,0.9246801999997842,0.2943532999997842,None,354.56032060000143,354.56032060000143,354.56032060000143,354.56032060000143,,,,,,,,,,,,,,,,,,,,,4954,1,2025-07-09_19h00.19.535,sm,2024.2.4,59.98908198687408,2025-07-09 19h00.47.156572 +0200,
4,0,4,,,,,,space,3.999568900000668,None,None,3,0.7820402999986982,0.3368813000015507,None,0,0,0,0,,,,,0,0,0,0,,,,,4,0,4,0,354.56032060000143,,,,,,,,,,,,,,,,,,,,,,,,,,,,,,,,,,,,,,,,,,,,,,,,,,,,,,,,,Brief,2.3307,354.5449329000003,354.54558070000166,354.54568480000125,354.56032060000143,356.8928966000003,356.87758900000154,356.8808633000008,356.8928966000003,356.8928966000003,356.8928966000003,356.8928966000003,358.87758290000056,3,0.7820402999986982,0.3368813000015507,None,358.89312360000076,358.89312360000076,358.89312360000076,358.89312360000076,,,,,,,,,,,,,,,,,,,,,4954,1,2025-07-09_19h00.19.535,sm,2024.2.4,59.98908198687408,2025-07-09 19h00.47.156572 +0200,
5,0,5,,,,,,space,3.999568900000668,None,None,3,0.9064223000004858,0.2676802999994834,None,0,0,0,0,,,,,0,0,0,0,,,,,5,0,5,0,358.89312360000076,,,,,,,,,,,,,,,,,,,,,,,,,,,,,,,,,,,,,,,,,,,,,,,,,,,,,,,,,Geburtstag,2.0026,358.87809670000024,358.8786272000016,358.8787347000016,358.89312360000076,360.90943600000173,360.8938349,360.8986181,360.90943600000173,360.90943600000173,360.90943600000173,360.90943600000173,362.89394450000145,3,0.9064223000004858,0.2676802999994834,None,362.9094272000002,362.9094272000002,362.9094272000002,362.9094272000002,,,,,,,,,,,,,,,,,,,,,4954,1,2025-07-09_19h00.19.535,sm,2024.2.4,59.98908198687408,2025-07-09 19h00.47.156572 +0200,
6,0,6,,,,,,space,3.999568900000668,None,None,3,1.5795414000003802,0.2509597999996913,None,0,0,0,0,,,,,0,0,0,0,,,,,6,0,6,0,362.9094272000002,,,,,,,,,,,,,,,,,,,,,,,,,,,,,,,,,,,,,,,,,,,,,,,,,,,,,,,,,Gruppe,2.5294,362.8944523000009,362.8949891000011,362.8950954000011,362.9094272000002,365.4423934000006,365.42699100000027,365.430830700001,365.4423934000006,365.4423934000006,365.4423934000006,365.4423934000006,367.4267649000012,3,1.5795414000003802,0.2509597999996913,None,367.44256060000043,367.44256060000043,367.44256060000043,367.44256060000043,,,,,,,,,,,,,,,,,,,,,4954,1,2025-07-09_19h00.19.535,sm,2024.2.4,59.98908198687408,2025-07-09 19h00.47.156572 +0200,
7,0,7,,,,,,space,3.999568900000668,None,None,3,0.918136999998751,0.2961293000007572,None,0,0,0,0,,,,,0,0,0,0,,,,,7,0,7,0,367.44256060000043,,,,,,,,,,,,,,,,,,,,,,,,,,,,,,,,,,,,,,,,,,,,,,,,,,,,,,,,,Hammer,3.4135,367.4272830000009,367.4277888000015,367.42789750000156,367.44256060000043,370.85875170000145,370.84347620000153,370.8506150000012,370.85875170000145,370.85875170000145,370.85875170000145,370.85875170000145,372.84337790000063,3,0.918136999998751,0.2961293000007572,None,372.8589821000005,372.8589821000005,372.8589821000005,372.8589821000005,,,,,,,,,,,,,,,,,,,,,4954,1,2025-07-09_19h00.19.535,sm,2024.2.4,59.98908198687408,2025-07-09 19h00.47.156572 +0200,
8,0,8,,,,,,space,3.999568900000668,None,None,3,0.8428313000003982,0.3574087999986659,None,0,0,0,0,,,,,0,0,0,0,,,,,8,0,8,0,372.8589821000005,,,,,,,,,,,,,,,,,,,,,,,,,,,,,,,,,,,,,,,,,,,,,,,,,,,,,,,,,Tisch,2.5507,372.8438909000015,372.84440710000126,372.84451320000153,372.8589821000005,375.40852890000133,375.3930728000014,375.3967240000002,375.40852890000133,375.40852890000133,375.40852890000133,375.40852890000133,377.3929094000014,3,0.8428313000003982,0.3574087999986659,None,377.4084793000002,377.4084793000002,377.4084793000002,377.4084793000002,,,,,,,,,,,,,,,,,,,,,4954,1,2025-07-09_19h00.19.535,sm,2024.2.4,59.98908198687408,2025-07-09 19h00.47.156572 +0200,
9,0,9,,,,,,space,3.999568900000668,None,None,3,0.8379531000009592,0.34108759999980975,None,0,0,0,0,,,,,0,0,0,0,,,,,9,0,9,0,377.4084793000002,,,,,,,,,,,,,,,,,,,,,,,,,,,,,,,,,,,,,,,,,,,,,,,,,,,,,,,,,Wohnung,2.2934,377.3934201000011,377.39407350000147,377.3941770000001,377.4084793000002,379.70821220000107,379.6924987000002,379.6962205,379.70821220000107,379.70821220000107,379.70821220000107,379.70821220000107,381.69268830000146,3,0.8379531000009592,0.34108759999980975,None,381.7081491000008,381.7081491000008,381.7081491000008,381.7081491000008,,,,,,,,,,,,,,,,,,,,,4954,1,2025-07-09_19h00.19.535,sm,2024.2.4,59.98908198687408,2025-07-09 19h00.47.156572 +0200,
10,0,10,,,,,,space,3.999568900000668,None,None,3,1.816811400000006,None,None,0,0,0,0,,,,,0,0,0,0,,,,,10,0,10,0,381.7081491000008,,,,,,,,,,,,,,,,,,,,,,,,,,,,,,,,,,,,,,,,,,,,,,,,,,,,,,,,,Blätter,3.6257,381.6931949000009,381.6938435000011,381.6939478000004,381.7081491000008,385.3411165000016,385.32558970000173,385.3294349000007,385.3411165000016,385.3411165000016,385.3411165000016,385.3411165000016,387.32581050000044,3,1.816811400000006,None,None,387.34131290000005,387.34131290000005,387.34131290000005,387.34131290000005,,,,,,,,,,,,,,,,,,,,,4954,1,2025-07-09_19h00.19.535,sm,2024.2.4,59.98908198687408,2025-07-09 19h00.47.156572 +0200,
11,0,11,,,,,,space,3.999568900000668,None,None,3,1.4437520999999833,0.29090550000000803,None,0,0,0,0,,,,,0,0,0,0,,,,,11,0,11,0,387.34131290000005,,,,,,,,,,,,,,,,,,,,,,,,,,,,,,,,,,,,,,,,,,,,,,,,,,,,,,,,,Garten,2.405,387.3263235000013,387.3268723000001,387.32698380000147,387.34131290000005,389.7575383000003,389.7420989000002,389.7459043000017,389.7575383000003,389.7575383000003,389.7575383000003,389.7575383000003,391.7421178000004,3,1.4437520999999833,0.29090550000000803,None,391.7576243000003,391.7576243000003,391.7576243000003,391.7576243000003,,,,,,,,,,,,,,,,,,,,,4954,1,2025-07-09_19h00.19.535,sm,2024.2.4,59.98908198687408,2025-07-09 19h00.47.156572 +0200,
12,0,12,,,,,,space,3.999568900000668,None,None,3,1.1147294999991573,0.29844430000048305,None,0,0,0,0,,,,,0,0,0,0,,,,,12,0,12,0,391.7576243000003,,,,,,,,,,,,,,,,,,,,,,,,,,,,,,,,,,,,,,,,,,,,,,,,,,,,,,,,,Knöchel,3.3688,391.74264010000115,391.7432949000013,391.74340100000154,391.7576243000003,395.1405190000005,395.1251649000005,395.1292203000012,395.1405190000005,395.1405190000005,395.1405190000005,395.1405190000005,397.1252661000017,3,1.1147294999991573,0.29844430000048305,None,397.1406866000016,397.1406866000016,397.1406866000016,397.1406866000016,,,,,,,,,,,,,,,,,,,,,4954,1,2025-07-09_19h00.19.535,sm,2024.2.4,59.98908198687408,2025-07-09 19h00.47.156572 +0200,
13,0,13,,,,,,space,3.999568900000668,None,None,3,0.9515419999988808,0.3141648000000714,None,0,0,0,0,,,,,0,0,0,0,,,,,13,0,13,0,397.1406866000016,,,,,,,,,,,,,,,,,,,,,,,,,,,,,,,,,,,,,,,,,,,,,,,,,,,,,,,,,Shampoo,3.0866,397.1257723000017,397.12644190000174,397.12655020000057,397.1406866000016,400.2402641000008,400.2248072000002,400.22865600000114,400.2402641000008,400.2402641000008,400.2402641000008,400.2402641000008,402.22490710000056,3,0.9515419999988808,0.3141648000000714,None,402.2404509000007,402.2404509000007,402.2404509000007,402.2404509000007,,,,,,,,,,,,,,,,,,,,,4954,1,2025-07-09_19h00.19.535,sm,2024.2.4,59.98908198687408,2025-07-09 19h00.47.156572 +0200,
14,0,14,,,,,,space,3.999568900000668,None,None,3,0.8276210999993054,0.33595750000131375,None,0,0,0,0,,,,,0,0,0,0,,,,,14,0,14,0,402.2404509000007,,,,,,,,,,,,,,,,,,,,,,,,,,,,,,,,,,,,,,,,,,,,,,,,,,,,,,,,,Fakt,3.8041,402.22541420000016,402.22591850000026,402.2260244000008,402.2404509000007,406.0574467000006,406.0412354,406.0482210000009,406.0574467000006,406.0574467000006,406.0574467000006,406.0574467000006,408.04090590000123,3,0.8276210999993054,0.33595750000131375,None,408.0565534000016,408.0565534000016,408.0565534000016,408.0565534000016,,,,,,,,,,,,,,,,,,,,,4954,1,2025-07-09_19h00.19.535,sm,2024.2.4,59.98908198687408,2025-07-09 19h00.47.156572 +0200,
15,0,15,,,,,,space,3.999568900000668,None,None,3,1.3690224999991187,0.2881130000005214,None,0,0,0,0,,,,,0,0,0,0,,,,,15,0,15,0,408.0565534000016,,,,,,,,,,,,,,,,,,,,,,,,,,,,,,,,,,,,,,,,,,,,,,,,,,,,,,,,,Ostern,3.4054,408.0413328000013,408.04179640000075,408.04188630000135,408.0565534000016,411.47286540000096,411.45791720000125,411.4631442000009,411.47286540000096,411.47286540000096,411.47286540000096,411.47286540000096,413.4574894000016,3,1.3690224999991187,0.2881130000005214,None,413.4729068000015,413.4729068000015,413.4729068000015,413.4729068000015,,,,,,,,,,,,,,,,,,,,,4954,1,2025-07-09_19h00.19.535,sm,2024.2.4,59.98908198687408,2025-07-09 19h00.47.156572 +0200,
16,0,16,,,,,,space,3.999568900000668,None,None,2,0.7805151000011392,0.36092610000014247,None,0,0,0,0,,,,,0,0,0,0,,,,,16,0,16,0,413.4729068000015,,,,,,,,,,,,,,,,,,,,,,,,,,,,,,,,,,,,,,,,,,,,,,,,,,,,,,,,,Ziege,5.1902,413.45800130000134,413.45853180000086,413.4586431000007,413.4729068000015,418.6726688000017,418.65713290000167,418.66327530000126,418.6726688000017,418.6726688000017,418.6726688000017,418.6726688000017,420.6569726000016,2,0.7805151000011392,0.36092610000014247,None,420.6727062000009,420.6727062000009,420.6727062000009,420.6727062000009,,,,,,,,,,,,,,,,,,,,,4954,1,2025-07-09_19h00.19.535,sm,2024.2.4,59.98908198687408,2025-07-09 19h00.47.156572 +0200,
17,0,17,,,,,,space,3.999568900000668,None,None,3,0.7909122000000934,0.3730665000002773,None,0,0,0,0,,,,,0,0,0,0,,,,,17,0,17,0,420.6727062000009,,,,,,,,,,,,,,,,,,,,,,,,,,,,,,,,,,,,,,,,,,,,,,,,,,,,,,,,,Medaille,5.0544,420.6574842000009,420.6580386000005,420.6581470000001,420.6727062000009,425.73895000000084,425.72333100000105,425.72697810000136,425.73895000000084,425.73895000000084,425.73895000000084,425.73895000000084,427.723308300001,3,0.7909122000000934,0.3730665000002773,None,427.7394176000016,427.7394176000016,427.7394176000016,427.7394176000016,,,,,,,,,,,,,,,,,,,,,4954,1,2025-07-09_19h00.19.535,sm,2024.2.4,59.98908198687408,2025-07-09 19h00.47.156572 +0200,
18,0,18,,,,,,space,3.999568900000668,None,None,3,0.9502585999998701,0.37921280000045954,None,0,0,0,0,,,,,0,0,0,0,,,,,18,0,18,0,427.7394176000016,,,,,,,,,,,,,,,,,,,,,,,,,,,,,,,,,,,,,,,,,,,,,,,,,,,,,,,,,Schmerz,2.3237,427.7238202000008,427.7243369000007,427.7244408000006,427.7394176000016,430.0717706000014,430.0562007000008,430.05965170000127,430.0717706000014,430.0717706000014,430.0717706000014,430.0717706000014,432.0562695000008,3,0.9502585999998701,0.37921280000045954,None,432.0720341000015,432.0720341000015,432.0720341000015,432.0720341000015,,,,,,,,,,,,,,,,,,,,,4954,1,2025-07-09_19h00.19.535,sm,2024.2.4,59.98908198687408,2025-07-09 19h00.47.156572 +0200,
19,0,19,,,,,,space,3.999568900000668,None,None,3,1.7635157000004256,None,None,0,0,0,0,,,,,0,0,0,0,,,,,19,0,19,0,432.0720341000015,,,,,,,,,,,,,,,,,,,,,,,,,,,,,,,,,,,,,,,,,,,,,,,,,,,,,,,,,Besucher,3.6092,432.0567777000015,432.05728870000166,432.0573944000007,432.0720341000015,435.6884418000009,435.67265450000014,435.6766165000008,435.6884418000009,435.6884418000009,435.6884418000009,435.6884418000009,437.67280370000117,3,1.7635157000004256,None,None,437.6884087000017,437.6884087000017,437.6884087000017,437.6884087000017,,,,,,,,,,,,,,,,,,,,,4954,1,2025-07-09_19h00.19.535,sm,2024.2.4,59.98908198687408,2025-07-09 19h00.47.156572 +0200,
20,0,20,,,,,,space,3.999568900000668,None,None,3,1.1670940999993036,0.3311271000002307,None,0,0,0,0,,,,,0,0,0,0,,,,,20,0,20,0,437.6884087000017,,,,,,,,,,,,,,,,,,,,,,,,,,,,,,,,,,,,,,,,,,,,,,,,,,,,,,,,,Musik,3.391,437.67331100000047,437.67398890000004,437.67409430000043,437.6884087000017,441.0879358000002,441.0723233000008,441.0767627000005,441.0879358000002,441.0879358000002,441.0879358000002,441.0879358000002,443.07240830000046,3,1.1670940999993036,0.3311271000002307,None,443.0879848000004,443.0879848000004,443.0879848000004,443.0879848000004,,,,,,,,,,,,,,,,,,,,,4954,1,2025-07-09_19h00.19.535,sm,2024.2.4,59.98908198687408,2025-07-09 19h00.47.156572 +0200,
21,0,21,,,,,,space,3.999568900000668,None,None,3,0.8814942999997584,0.35848449999866716,None,0,0,0,0,,,,,0,0,0,0,,,,,21,0,21,0,443.0879848000004,,,,,,,,,,,,,,,,,,,,,,,,,,,,,,,,,,,,,,,,,,,,,,,,,,,,,,,,,Strand,5.8974,443.07291480000094,443.0735644000015,443.0736682000006,443.0879848000004,448.98773840000104,448.9718868,448.9759146000015,448.98773840000104,448.98773840000104,448.98773840000104,448.98773840000104,450.9718227000012,3,0.8814942999997584,0.35848449999866716,None,450.98751840000114,450.98751840000114,450.98751840000114,450.98751840000114,,,,,,,,,,,,,,,,,,,,,4954,1,2025-07-09_19h00.19.535,sm,2024.2.4,59.98908198687408,2025-07-09 19h00.47.156572 +0200,
22,0,22,,,,,,space,3.999568900000668,None,None,3,0.8495309999998426,0.3467111999998451,None,0,0,0,0,,,,,0,0,0,0,,,,,22,0,22,0,450.98751840000114,,,,,,,,,,,,,,,,,,,,,,,,,,,,,,,,,,,,,,,,,,,,,,,,,,,,,,,,,Sturm,2.5899,450.97233159999996,450.9728475000011,450.9729537000003,450.98751840000114,453.5874620000013,453.57145760000094,453.5748332000003,453.5874620000013,453.5874620000013,453.5874620000013,453.5874620000013,455.57152230000065,3,0.8495309999998426,0.3467111999998451,None,455.5871868000013,455.5871868000013,455.5871868000013,455.5871868000013,,,,,,,,,,,,,,,,,,,,,4954,1,2025-07-09_19h00.19.535,sm,2024.2.4,59.98908198687408,2025-07-09 19h00.47.156572 +0200,
23,0,23,,,,,,space,3.999568900000668,None,None,3,0.8391754999993282,0.3232895999990433,None,0,0,0,0,,,,,0,0,0,0,,,,,23,0,23,0,455.5871868000013,,,,,,,,,,,,,,,,,,,,,,,,,,,,,,,,,,,,,,,,,,,,,,,,,,,,,,,,,Krieg,2.9276,455.57203540000046,455.5725398000013,455.572650600001,455.5871868000013,458.5204551000006,458.5048456000004,458.50898490000145,458.5204551000006,458.5204551000006,458.5204551000006,458.5204551000006,460.50473560000137,3,0.8391754999993282,0.3232895999990433,None,460.52029630000106,460.52029630000106,460.52029630000106,460.52029630000106,,,,,,,,,,,,,,,,,,,,,4954,1,2025-07-09_19h00.19.535,sm,2024.2.4,59.98908198687408,2025-07-09 19h00.47.156572 +0200,
24,0,24,,,,,,space,3.999568900000668,None,None,3,1.2656170999998722,0.3390090000011696,None,0,0,0,0,,,,,0,0,0,0,,,,,24,0,24,0,460.52029630000106,,,,,,,,,,,,,,,,,,,,,,,,,,,,,,,,,,,,,,,,,,,,,,,,,,,,,,,,,Autorin,2.6796,460.5052471000017,460.5057534000007,460.50586230000044,460.52029630000106,463.2031372000001,463.1875346000015,463.1910587000002,463.2031372000001,463.2031372000001,463.2031372000001,463.2031372000001,465.18789580000157,3,1.2656170999998722,0.3390090000011696,None,465.20344190000105,465.20344190000105,465.20344190000105,465.20344190000105,,,,,,,,,,,,,,,,,,,,,4954,1,2025-07-09_19h00.19.535,sm,2024.2.4,59.98908198687408,2025-07-09 19h00.47.156572 +0200,
25,0,25,,,,,,space,3.999568900000668,None,None,3,1.0140864999993937,0.30312899999989895,None,0,0,0,0,,,,,0,0,0,0,,,,,25,0,25,0,465.20344190000105,,,,,,,,,,,,,,,,,,,,,,,,,,,,,,,,,,,,,,,,,,,,,,,,,,,,,,,,,Augen,2.8017,465.1884041000012,465.1889329000005,465.1890374000013,465.20344190000105,468.0196655,468.00418660000105,468.007548900001,468.0196655,468.0196655,468.0196655,468.0196655,470.0042568000008,3,1.0140864999993937,0.30312899999989895,None,470.01993350000157,470.01993350000157,470.01993350000157,470.01993350000157,,,,,,,,,,,,,,,,,,,,,4954,1,2025-07-09_19h00.19.535,sm,2024.2.4,59.98908198687408,2025-07-09 19h00.47.156572 +0200,
26,0,26,,,,,,space,3.999568900000668,None,None,3,0.9612376999994012,0.3477566999990813,None,0,0,0,0,,,,,0,0,0,0,,,,,26,0,26,0,470.01993350000157,,,,,,,,,,,,,,,,,,,,,,,,,,,,,,,,,,,,,,,,,,,,,,,,,,,,,,,,,Hügel,2.0196,470.00476550000167,470.0052802000009,470.0053828,470.01993350000157,472.0527346000017,472.0373380000001,472.0409582000011,472.0527346000017,472.0527346000017,472.0527346000017,472.0527346000017,474.0371763000003,3,0.9612376999994012,0.3477566999990813,None,474.0529118000013,474.0529118000013,474.0529118000013,474.0529118000013,,,,,,,,,,,,,,,,,,,,,4954,1,2025-07-09_19h00.19.535,sm,2024.2.4,59.98908198687408,2025-07-09 19h00.47.156572 +0200,
27,0,27,,,,,,space,3.999568900000668,None,None,3,0.9973203000008652,0.31273869999859016,None,0,0,0,0,,,,,0,0,0,0,,,,,27,0,27,0,474.0529118000013,,,,,,,,,,,,,,,,,,,,,,,,,,,,,,,,,,,,,,,,,,,,,,,,,,,,,,,,,Golf,2.7885,474.0376885000005,474.03820480000104,474.0383182000005,474.0529118000013,476.8523184000005,476.8367999000002,476.84074560000045,476.8523184000005,476.8523184000005,476.8523184000005,476.8523184000005,478.83709380000073,3,0.9973203000008652,0.31273869999859016,None,478.8526660000007,478.8526660000007,478.8526660000007,478.8526660000007,,,,,,,,,,,,,,,,,,,,,4954,1,2025-07-09_19h00.19.535,sm,2024.2.4,59.98908198687408,2025-07-09 19h00.47.156572 +0200,
28,0,28,,,,,,space,3.999568900000668,None,None,3,0.572312399999646,0.343105399999331,None,0,0,0,0,,,,,0,0,0,0,,,,,28,0,28,0,478.8526660000007,,,,,,,,,,,,,,,,,,,,,,,,,,,,,,,,,,,,,,,,,,,,,,,,,,,,,,,,,Nebel,2.9345,478.83760000000075,478.83826990000125,478.8383791000015,478.8526660000007,481.80241080000087,481.78720050000084,481.7913260000005,481.80241080000087,481.80241080000087,481.80241080000087,481.80241080000087,483.78683249999995,3,0.572312399999646,0.343105399999331,None,483.80240290000074,483.80240290000074,483.80240290000074,483.80240290000074,,,,,,,,,,,,,,,,,,,,,4954,1,2025-07-09_19h00.19.535,sm,2024.2.4,59.98908198687408,2025-07-09 19h00.47.156572 +0200,
29,0,29,,,,,,space,3.999568900000668,None,None,3,0.6481613000014477,0.3240805999994336,None,0,0,0,0,,,,,0,0,0,0,,,,,29,0,29,0,483.80240290000074,,,,,,,,,,,,,,,,,,,,,,,,,,,,,,,,,,,,,,,,,,,,,,,,,,,,,,,,,Zeit,2.4661,483.7873354000003,483.78792130000147,483.7880255,483.80240290000074,486.2687392000007,486.25311560000046,486.25672830000076,486.2687392000007,486.2687392000007,486.2687392000007,486.2687392000007,488.2532586000016,3,0.6481613000014477,0.3240805999994336,None,488.26862360000086,488.26862360000086,488.26862360000086,488.26862360000086,,,,,,,,,,,,,,,,,,,,,4954,1,2025-07-09_19h00.19.535,sm,2024.2.4,59.98908198687408,2025-07-09 19h00.47.156572 +0200,
30,0,30,,,,,,space,3.999568900000668,None,None,3,0.7808492999993177,0.2991498999999749,None,0,0,0,0,,,,,0,0,0,0,,,,,30,0,30,0,488.26862360000086,,,,,,,,,,,,,,,,,,,,,,,,,,,,,,,,,,,,,,,,,,,,,,,,,,,,,,,,,Hemd,4.1057,488.2537680000005,488.25428960000136,488.2543932000008,488.26862360000086,492.38499610000144,492.3693191000002,492.37283130000105,492.38499610000144,492.38499610000144,492.38499610000144,492.38499610000144,494.3693411000004,3,0.7808492999993177,0.2991498999999749,None,494.3850261000007,494.3850261000007,494.3850261000007,494.3850261000007,,,,,,,,,,,,,,,,,,,,,4954,1,2025-07-09_19h00.19.535,sm,2024.2.4,59.98908198687408,2025-07-09 19h00.47.156572 +0200,
31,0,31,,,,,,space,3.999568900000668,None,None,3,1.0504629999995814,0.29938120000042545,None,0,0,0,0,,,,,0,0,0,0,,,,,31,0,31,0,494.3850261000007,,,,,,,,,,,,,,,,,,,,,,,,,,,,,,,,,,,,,,,,,,,,,,,,,,,,,,,,,Kapitel,3.6068,494.36981880000167,494.3703166000014,494.370416400001,494.3850261000007,498.0011759000008,497.9856269000011,497.98948330000167,498.0011759000008,498.0011759000008,498.0011759000008,498.0011759000008,499.98557060000167,3,1.0504629999995814,0.29938120000042545,None,500.00130119999994,500.00130119999994,500.00130119999994,500.00130119999994,,,,,,,,,,,,,,,,,,,,,4954,1,2025-07-09_19h00.19.535,sm,2024.2.4,59.98908198687408,2025-07-09 19h00.47.156572 +0200,
32,0,32,,,,,,space,3.999568900000668,None,None,3,1.0728192000005947,0.2818695000005391,None,0,0,0,0,,,,,0,0,0,0,,,,,32,0,32,0,500.00130119999994,,,,,,,,,,,,,,,,,,,,,,,,,,,,,,,,,,,,,,,,,,,,,,,,,,,,,,,,,Turnerin,2.8201,499.98612100000173,499.9866974000015,499.986803400001,500.00130119999994,502.8341756000009,502.8186203000005,502.82222530000035,502.8341756000009,502.8341756000009,502.8341756000009,502.8341756000009,504.8188160000009,3,1.0728192000005947,0.2818695000005391,None,504.8344063000004,504.8344063000004,504.8344063000004,504.8344063000004,,,,,,,,,,,,,,,,,,,,,4954,1,2025-07-09_19h00.19.535,sm,2024.2.4,59.98908198687408,2025-07-09 19h00.47.156572 +0200,
33,0,33,,,,,,space,3.999568900000668,None,None,3,1.5141149000010046,0.23437879999983124,None,0,0,0,0,,,,,0,0,0,0,,,,,33,0,33,0,504.8344063000004,,,,,,,,,,,,,,,,,,,,,,,,,,,,,,,,,,,,,,,,,,,,,,,,,,,,,,,,,Bürste,3.4226,504.81933560000107,504.819891000001,504.8199966000011,504.8344063000004,508.2671209,508.251447300001,508.2548386000017,508.2671209,508.2671209,508.2671209,508.2671209,510.2517351000006,3,1.5141149000010046,0.23437879999983124,None,510.26768750000156,510.26768750000156,510.26768750000156,510.26768750000156,,,,,,,,,,,,,,,,,,,,,4954,1,2025-07-09_19h00.19.535,sm,2024.2.4,59.98908198687408,2025-07-09 19h00.47.156572 +0200,
34,0,34,,,,,,space,3.999568900000668,None,None,3,1.4375072000002547,0.2651492999993934,None,0,0,0,0,,,,,0,0,0,0,,,,,34,0,34,0,510.26768750000156,,,,,,,,,,,,,,,,,,,,,,,,,,,,,,,,,,,,,,,,,,,,,,,,,,,,,,,,,Blatt,2.6641,510.2522400000016,510.25282900000093,510.2529355000006,510.26768750000156,512.9340435000013,512.9180967000011,512.9229472000006,512.9340435000013,512.9340435000013,512.9340435000013,512.9340435000013,514.9183090000006,3,1.4375072000002547,0.2651492999993934,None,514.9336792000013,514.9336792000013,514.9336792000013,514.9336792000013,,,,,,,,,,,,,,,,,,,,,4954,1,2025-07-09_19h00.19.535,sm,2024.2.4,59.98908198687408,2025-07-09 19h00.47.156572 +0200,
35,0,35,,,,,,space,3.999568900000668,None,None,3,0.9570886999990762,0.30719520000093326,None,0,0,0,0,,,,,0,0,0,0,,,,,35,0,35,0,514.9336792000013,,,,,,,,,,,,,,,,,,,,,,,,,,,,,,,,,,,,,,,,,,,,,,,,,,,,,,,,,Puppe,2.3812,514.9188305000007,514.9193552000015,514.9194617000012,514.9336792000013,517.3166128000012,517.301104600001,517.3078681000006,517.3166128000012,517.3166128000012,517.3166128000012,517.3166128000012,519.3012756000007,3,0.9570886999990762,0.30719520000093326,None,519.3168222000004,519.3168222000004,519.3168222000004,519.3168222000004,,,,,,,,,,,,,,,,,,,,,4954,1,2025-07-09_19h00.19.535,sm,2024.2.4,59.98908198687408,2025-07-09 19h00.47.156572 +0200,
36,0,36,,,,,,space,3.999568900000668,None,None,3,0.8095967999997811,0.28655760000037844,None,0,0,0,0,,,,,0,0,0,0,,,,,36,0,36,0,519.3168222000004,,,,,,,,,,,,,,,,,,,,,,,,,,,,,,,,,,,,,,,,,,,,,,,,,,,,,,,,,Bus,3.2294,519.301803100001,519.3023119000009,519.3024152000016,519.3168222000004,522.5500358000008,522.534560600001,522.5383947000009,522.5500358000008,522.5500358000008,522.5500358000008,522.5500358000008,524.5344528000005,3,0.8095967999997811,0.28655760000037844,None,524.5505422000006,524.5505422000006,524.5505422000006,524.5505422000006,,,,,,,,,,,,,,,,,,,,,4954,1,2025-07-09_19h00.19.535,sm,2024.2.4,59.98908198687408,2025-07-09 19h00.47.156572 +0200,
37,0,37,,,,,,space,3.999568900000668,None,None,3,0.7972298999993654,0.28716130000066187,None,0,0,0,0,,,,,0,0,0,0,,,,,37,0,37,0,524.5505422000006,,,,,,,,,,,,,,,,,,,,,,,,,,,,,,,,,,,,,,,,,,,,,,,,,,,,,,,,,Rolle,2.0869,524.5349611000001,524.5356173,524.5357225000007,524.5505422000006,526.6497937000004,526.6341933000003,526.6378255,526.6497937000004,526.6497937000004,526.6497937000004,526.6497937000004,528.6343941000014,3,0.7972298999993654,0.28716130000066187,None,528.6495754000007,528.6495754000007,528.6495754000007,528.6495754000007,,,,,,,,,,,,,,,,,,,,,4954,1,2025-07-09_19h00.19.535,sm,2024.2.4,59.98908198687408,2025-07-09 19h00.47.156572 +0200,
38,0,38,,,,,,space,3.999568900000668,None,None,3,1.1197696999988693,0.29850030000125116,None,0,0,0,0,,,,,0,0,0,0,,,,,38,0,38,0,528.6495754000007,,,,,,,,,,,,,,,,,,,,,,,,,,,,,,,,,,,,,,,,,,,,,,,,,,,,,,,,,Karton,2.5494,528.6349042000002,528.6355508000015,528.6356555000002,528.6495754000007,531.1992457000015,531.1836628000001,531.1873272000012,531.1992457000015,531.1992457000015,531.1992457000015,531.1992457000015,533.1839825000006,3,1.1197696999988693,0.29850030000125116,None,533.1993970000003,533.1993970000003,533.1993970000003,533.1993970000003,,,,,,,,,,,,,,,,,,,,,4954,1,2025-07-09_19h00.19.535,sm,2024.2.4,59.98908198687408,2025-07-09 19h00.47.156572 +0200,
39,0,39,,,,,,space,3.999568900000668,None,None,3,0.8847094999982801,0.31191540000145324,None,0,0,0,0,,,,,0,0,0,0,,,,,39,0,39,0,533.1993970000003,,,,,,,,,,,,,,,,,,,,,,,,,,,,,,,,,,,,,,,,,,,,,,,,,,,,,,,,,Gesicht,2.1831,533.1845030000004,533.1850857000009,533.1851898000004,533.1993970000003,535.3826050000007,535.3666819000009,535.3701674000004,535.3826050000007,535.3826050000007,535.3826050000007,535.3826050000007,537.3672848000006,3,0.8847094999982801,0.31191540000145324,None,537.382464100001,537.382464100001,537.382464100001,537.382464100001,,,,,,,,,,,,,,,,,,,,,4954,1,2025-07-09_19h00.19.535,sm,2024.2.4,59.98908198687408,2025-07-09 19h00.47.156572 +0200,
40,0,40,,,,,,space,3.999568900000668,None,None,3,1.180702100000417,0.30000359999939974,None,0,0,0,0,,,,,0,0,0,0,,,,,40,0,40,0,537.382464100001,,,,,,,,,,,,,,,,,,,,,,,,,,,,,,,,,,,,,,,,,,,,,,,,,,,,,,,,,Ozean,4.2742,537.3677953000006,537.3683068000009,537.3684104000004,537.382464100001,541.6658014000004,541.6499062000003,541.6543359000007,541.6658014000004,541.6658014000004,541.6658014000004,541.6658014000004,543.6500639000005,3,1.180702100000417,0.30000359999939974,None,543.6653021000002,543.6653021000002,543.6653021000002,543.6653021000002,,,,,,,,,,,,,,,,,,,,,4954,1,2025-07-09_19h00.19.535,sm,2024.2.4,59.98908198687408,2025-07-09 19h00.47.156572 +0200,
41,0,41,,,,,,space,3.999568900000668,None,None,3,1.343216899998879,0.25193209999997634,None,0,0,0,0,,,,,0,0,0,0,,,,,41,0,41,0,543.6653021000002,,,,,,,,,,,,,,,,,,,,,,,,,,,,,,,,,,,,,,,,,,,,,,,,,,,,,,,,,Geschwister,2.0212,543.6505707000015,543.6510736,543.6511787,543.6653021000002,545.6986120000001,545.6830206000013,545.6871578000009,545.6986120000001,545.6986120000001,545.6986120000001,545.6986120000001,547.6829793000015,3,1.343216899998879,0.25193209999997634,None,547.6986239000016,547.6986239000016,547.6986239000016,547.6986239000016,,,,,,,,,,,,,,,,,,,,,4954,1,2025-07-09_19h00.19.535,sm,2024.2.4,59.98908198687408,2025-07-09 19h00.47.156572 +0200,
42,0,42,,,,,,space,3.999568900000668,None,None,3,0.9060793999997259,0.2511357000003045,None,0,0,0,0,,,,,0,0,0,0,,,,,42,0,42,0,547.6986239000016,,,,,,,,,,,,,,,,,,,,,,,,,,,,,,,,,,,,,,,,,,,,,,,,,,,,,,,,,Ehe,2.322,547.6834971000007,547.6840067000012,547.6841143000001,547.6986239000016,550.0319448000009,550.0161621000007,550.0198087000008,550.0319448000009,550.0319448000009,550.0319448000009,550.0319448000009,552.0160583000015,3,0.9060793999997259,0.2511357000003045,None,552.0321107,552.0321107,552.0321107,552.0321107,,,,,,,,,,,,,,,,,,,,,4954,1,2025-07-09_19h00.19.535,sm,2024.2.4,59.98908198687408,2025-07-09 19h00.47.156572 +0200,
43,0,43,,,,,,space,3.999568900000668,None,None,3,1.3688354999994772,0.2905190000001312,None,0,0,0,0,,,,,0,0,0,0,,,,,43,0,43,0,552.0321107,,,,,,,,,,,,,,,,,,,,,,,,,,,,,,,,,,,,,,,,,,,,,,,,,,,,,,,,,Familie,3.0379,552.0165746000002,552.0170888000011,552.017191500001,552.0321107,555.0813349,555.0658857000017,555.0698508000005,555.0813349,555.0813349,555.0813349,555.0813349,557.0656535000016,3,1.3688354999994772,0.2905190000001312,None,557.0814842,557.0814842,557.0814842,557.0814842,,,,,,,,,,,,,,,,,,,,,4954,1,2025-07-09_19h00.19.535,sm,2024.2.4,59.98908198687408,2025-07-09 19h00.47.156572 +0200,
44,0,44,,,,,,space,3.999568900000668,None,None,3,0.8706906000006711,0.2600433999996312,None,0,0,0,0,,,,,0,0,0,0,,,,,44,0,44,0,557.0814842,,,,,,,,,,,,,,,,,,,,,,,,,,,,,,,,,,,,,,,,,,,,,,,,,,,,,,,,,Dunkelheit,2.4054,557.0661325000001,557.0666330000004,557.0667328,557.0814842,559.4978936000007,559.4822225000007,559.4862184000012,559.4978936000007,559.4978936000007,559.4978936000007,559.4978936000007,561.4823190000006,3,0.8706906000006711,0.2600433999996312,None,561.4984396,561.4984396,561.4984396,561.4984396,,,,,,,,,,,,,,,,,,,,,4954,1,2025-07-09_19h00.19.535,sm,2024.2.4,59.98908198687408,2025-07-09 19h00.47.156572 +0200,
45,0,45,,,,,,space,3.999568900000668,None,None,3,0.9362180999996781,0.3410648000008223,None,0,0,0,0,,,,,0,0,0,0,,,,,45,0,45,0,561.4984396,,,,,,,,,,,,,,,,,,,,,,,,,,,,,,,,,,,,,,,,,,,,,,,,,,,,,,,,,Weltraum,2.6406,561.4828282000017,561.4833476000003,561.4834522000001,561.4984396,564.1472576000015,564.1315736000015,564.134895000001,564.1472576000015,564.1472576000015,564.1472576000015,564.1472576000015,566.1317984000016,3,0.9362180999996781,0.3410648000008223,None,566.1478705000009,566.1478705000009,566.1478705000009,566.1478705000009,,,,,,,,,,,,,,,,,,,,,4954,1,2025-07-09_19h00.19.535,sm,2024.2.4,59.98908198687408,2025-07-09 19h00.47.156572 +0200,
46,0,46,,,,,,space,3.999568900000668,None,None,3,0.8273664999996981,0.2891877000001841,None,0,0,0,0,,,,,0,0,0,0,,,,,46,0,46,0,566.1478705000009,,,,,,,,,,,,,,,,,,,,,,,,,,,,,,,,,,,,,,,,,,,,,,,,,,,,,,,,,Schule,2.1004,566.1323052000007,566.1328187000017,566.1329236000001,566.1478705000009,568.2472792000008,568.2317496000014,568.2357151000015,568.2472792000008,568.2472792000008,568.2472792000008,568.2472792000008,570.2318601000006,3,0.8273664999996981,0.2891877000001841,None,570.2473454999999,570.2473454999999,570.2473454999999,570.2473454999999,,,,,,,,,,,,,,,,,,,,,4954,1,2025-07-09_19h00.19.535,sm,2024.2.4,59.98908198687408,2025-07-09 19h00.47.156572 +0200,
47,0,47,,,,,,space,3.999568900000668,None,None,3,1.183294599999499,0.2811712000002444,None,0,0,0,0,,,,,0,0,0,0,,,,,47,0,47,0,570.2473454999999,,,,,,,,,,,,,,,,,,,,,,,,,,,,,,,,,,,,,,,,,,,,,,,,,,,,,,,,,Vampir,3.1659,570.232384500001,570.232919,570.2330363000001,570.2473454999999,573.4136087000006,573.3981504000003,573.4030068000011,573.4136087000006,573.4136087000006,573.4136087000006,573.4136087000006,575.3980500000016,3,1.183294599999499,0.2811712000002444,None,575.4136501000012,575.4136501000012,575.4136501000012,575.4136501000012,,,,,,,,,,,,,,,,,,,,,4954,1,2025-07-09_19h00.19.535,sm,2024.2.4,59.98908198687408,2025-07-09 19h00.47.156572 +0200,
48,0,48,,,,,,space,3.999568900000668,None,None,3,0.9764274999997724,0.35145059999922523,None,0,0,0,0,,,,,0,0,0,0,,,,,48,0,48,0,575.4136501000012,,,,,,,,,,,,,,,,,,,,,,,,,,,,,,,,,,,,,,,,,,,,,,,,,,,,,,,,,Safari,3.2609,575.3985858000015,575.3993459000012,575.3995028000008,575.4136501000012,578.6800628000001,578.6647698000015,578.6681527000001,578.6800628000001,578.6800628000001,578.6800628000001,578.6800628000001,580.6646313000001,3,0.9764274999997724,0.35145059999922523,None,580.6800194000007,580.6800194000007,580.6800194000007,580.6800194000007,,,,,,,,,,,,,,,,,,,,,4954,1,2025-07-09_19h00.19.535,sm,2024.2.4,59.98908198687408,2025-07-09 19h00.47.156572 +0200,
49,0,49,,,,,,space,3.999568900000668,None,None,3,0.8804451000014524,0.29356669999833684,None,0,0,0,0,,,,,0,0,0,0,,,,,49,0,49,0,580.6800194000007,,,,,,,,,,,,,,,,,,,,,,,,,,,,,,,,,,,,,,,,,,,,,,,,,,,,,,,,,Film,2.2389,580.6651604000017,580.6657123000005,580.6658265000005,580.6800194000007,582.9298488000004,582.914177300001,582.9178237000015,582.9298488000004,582.9298488000004,582.9298488000004,582.9298488000004,584.9143245000014,3,0.8804451000014524,0.29356669999833684,None,584.9299002000007,584.9299002000007,584.9299002000007,584.9299002000007,,,,,,,,,,,,,,,,,,,,,4954,1,2025-07-09_19h00.19.535,sm,2024.2.4,59.98908198687408,2025-07-09 19h00.47.156572 +0200,
50,0,50,,,,,,space,3.999568900000668,None,None,3,0.7666735000002518,0.30123400000047695,None,0,0,0,0,,,,,0,0,0,0,,,,,50,0,50,0,584.9299002000007,,,,,,,,,,,,,,,,,,,,,,,,,,,,,,,,,,,,,,,,,,,,,,,,,,,,,,,,,Maske,3.9283,584.9148393000014,584.9153664000005,584.9154717000001,584.9299002000007,588.8625936000008,588.8471267000004,588.8512755000011,588.8625936000008,588.8625936000008,588.8625936000008,588.8625936000008,590.8466402000013,3,0.7666735000002518,0.30123400000047695,None,590.8629384000014,590.8629384000014,590.8629384000014,590.8629384000014,,,,,,,,,,,,,,,,,,,,,4954,1,2025-07-09_19h00.19.535,sm,2024.2.4,59.98908198687408,2025-07-09 19h00.47.156572 +0200,
51,0,51,,,,,,space,3.999568900000668,None,None,3,1.6516827000014018,0.2842453999983263,None,0,0,0,0,,,,,0,0,0,0,,,,,51,0,51,0,590.8629384000014,,,,,,,,,,,,,,,,,,,,,,,,,,,,,,,,,,,,,,,,,,,,,,,,,,,,,,,,,Professor,2.1589,590.8470725000006,590.8475430000017,590.8476334000006,590.8629384000014,593.029061700001,593.0135608,593.0184373000011,593.029061700001,593.029061700001,593.029061700001,593.029061700001,595.0136207000014,3,1.6516827000014018,0.2842453999983263,None,595.0294643000016,595.0294643000016,595.0294643000016,595.0294643000016,,,,,,,,,,,,,,,,,,,,,4954,1,2025-07-09_19h00.19.535,sm,2024.2.4,59.98908198687408,2025-07-09 19h00.47.156572 +0200,
52,0,52,,,,,,space,3.999568900000668,None,None,2,1.0380612999997538,0.3169072000000597,None,0,0,0,0,,,,,0,0,0,0,,,,,52,0,52,0,595.0294643000016,,,,,,,,,,,,,,,,,,,,,,,,,,,,,,,,,,,,,,,,,,,,,,,,,,,,,,,,,Tanne,2.4587,595.0141236,595.0147151000001,595.0148207000002,595.0294643000016,597.4956180000008,597.4799977000002,597.4839629000016,597.4956180000008,597.4956180000008,597.4956180000008,597.4956180000008,599.4801133000001,2,1.0380612999997538,0.3169072000000597,None,599.4954835000008,599.4954835000008,599.4954835000008,599.4954835000008,,,,,,,,,,,,,,,,,,,,,4954,1,2025-07-09_19h00.19.535,sm,2024.2.4,59.98908198687408,2025-07-09 19h00.47.156572 +0200,
53,0,53,,,,,,space,3.999568900000668,None,None,3,0.800190099998872,0.31720660000064527,None,0,0,0,0,,,,,0,0,0,0,,,,,53,0,53,0,599.4954835000008,,,,,,,,,,,,,,,,,,,,,,,,,,,,,,,,,,,,,,,,,,,,,,,,,,,,,,,,,Komödie,3.4026,599.4806258000008,599.4811522,599.4812561000017,599.4954835000008,602.9119724000011,602.8962580000007,602.9005352000004,602.9119724000011,602.9119724000011,602.9119724000011,602.9119724000011,604.8964297000002,3,0.800190099998872,0.31720660000064527,None,604.9118886000015,604.9118886000015,604.9118886000015,604.9118886000015,,,,,,,,,,,,,,,,,,,,,4954,1,2025-07-09_19h00.19.535,sm,2024.2.4,59.98908198687408,2025-07-09 19h00.47.156572 +0200,
54,0,54,,,,,,space,3.999568900000668,None,None,3,0.8430263999998715,0.3140494999988732,None,0,0,0,0,,,,,0,0,0,0,,,,,54,0,54,0,604.9118886000015,,,,,,,,,,,,,,,,,,,,,,,,,,,,,,,,,,,,,,,,,,,,,,,,,,,,,,,,,Geheimnis,2.3445,604.8969826000011,604.8975113000015,604.8976225000006,604.9118886000015,607.2615342000008,607.2460664000009,607.2506483000016,607.2615342000008,607.2615342000008,607.2615342000008,607.2615342000008,609.2459596000008,3,0.8430263999998715,0.3140494999988732,None,609.2616407000005,609.2616407000005,609.2616407000005,609.2616407000005,,,,,,,,,,,,,,,,,,,,,4954,1,2025-07-09_19h00.19.535,sm,2024.2.4,59.98908198687408,2025-07-09 19h00.47.156572 +0200,
55,0,55,,,,,,space,3.999568900000668,None,None,3,0.7985880999985966,0.2981997000006231,None,0,0,0,0,,,,,0,0,0,0,,,,,55,0,55,0,609.2616407000005,,,,,,,,,,,,,,,,,,,,,,,,,,,,,,,,,,,,,,,,,,,,,,,,,,,,,,,,,Schnürsenkel,2.5691,609.2465096000014,609.2470299000015,609.2471332000005,609.2616407000005,611.8443660000012,611.8289409000008,611.8327249000013,611.8443660000012,611.8443660000012,611.8443660000012,611.8443660000012,613.8292360000014,3,0.7985880999985966,0.2981997000006231,None,613.8445655000014,613.8445655000014,613.8445655000014,613.8445655000014,,,,,,,,,,,,,,,,,,,,,4954,1,2025-07-09_19h00.19.535,sm,2024.2.4,59.98908198687408,2025-07-09 19h00.47.156572 +0200,
56,0,56,,,,,,space,3.999568900000668,None,None,3,1.1961418000009871,0.25614069999937783,None,0,0,0,0,,,,,0,0,0,0,,,,,56,0,56,0,613.8445655000014,,,,,,,,,,,,,,,,,,,,,,,,,,,,,,,,,,,,,,,,,,,,,,,,,,,,,,,,,Essen,3.8234,613.8297392000004,613.8303368000015,613.8304419000015,613.8445655000014,617.6777258000002,617.6621508000007,617.6660906000016,617.6777258000002,617.6777258000002,617.6777258000002,617.6777258000002,619.6621698000017,3,1.1961418000009871,0.25614069999937783,None,619.6777692000014,619.6777692000014,619.6777692000014,619.6777692000014,,,,,,,,,,,,,,,,,,,,,4954,1,2025-07-09_19h00.19.535,sm,2024.2.4,59.98908198687408,2025-07-09 19h00.47.156572 +0200,
57,0,57,,,,,,space,3.999568900000668,None,None,3,0.9823914999997214,0.26119570000082604,None,0,0,0,0,,,,,0,0,0,0,,,,,57,0,57,0,619.6777692000014,,,,,,,,,,,,,,,,,,,,,,,,,,,,,,,,,,,,,,,,,,,,,,,,,,,,,,,,,Bild,5.1215,619.6626792000006,619.6632566000008,619.6633613000013,619.6777692000014,624.810274200001,624.7948024000016,624.7978481000009,624.810274200001,624.810274200001,624.810274200001,624.810274200001,626.7950650000002,3,0.9823914999997214,0.26119570000082604,None,626.8105895000008,626.8105895000008,626.8105895000008,626.8105895000008,,,,,,,,,,,,,,,,,,,,,4954,1,2025-07-09_19h00.19.535,sm,2024.2.4,59.98908198687408,2025-07-09 19h00.47.156572 +0200,
58,0,58,,,,,,space,3.999568900000668,None,None,3,1.4527147999997396,0.29920940000010887,None,0,0,0,0,,,,,0,0,0,0,,,,,58,0,58,0,626.8105895000008,,,,,,,,,,,,,,,,,,,,,,,,,,,,,,,,,,,,,,,,,,,,,,,,,,,,,,,,,Konzert,4.9966,626.7955701999999,626.7962480000006,626.796354600001,626.8105895000008,631.8100206000017,631.7945812000016,631.7988321000012,631.8100206000017,631.8100206000017,631.8100206000017,631.8100206000017,633.7945460999999,3,1.4527147999997396,0.29920940000010887,None,633.8100968000017,633.8100968000017,633.8100968000017,633.8100968000017,,,,,,,,,,,,,,,,,,,,,4954,1,2025-07-09_19h00.19.535,sm,2024.2.4,59.98908198687408,2025-07-09 19h00.47.156572 +0200,
59,0,59,,,,,,space,3.999568900000668,None,None,3,1.5400472999990598,0.29816030000074534,None,0,0,0,0,,,,,0,0,0,0,,,,,59,0,59,0,633.8100968000017,,,,,,,,,,,,,,,,,,,,,,,,,,,,,,,,,,,,,,,,,,,,,,,,,,,,,,,,,Diamant,2.9657,633.7950584000009,633.7955751000009,633.7956792000004,633.8100968000017,636.7765918000005,636.7610838,636.7653006,636.7765918000005,636.7765918000005,636.7765918000005,636.7765918000005,638.7608447000002,3,1.5400472999990598,0.29816030000074534,None,638.7765074000017,638.7765074000017,638.7765074000017,638.7765074000017,,,,,,,,,,,,,,,,,,,,,4954,1,2025-07-09_19h00.19.535,sm,2024.2.4,59.98908198687408,2025-07-09 19h00.47.156572 +0200,
60,0,60,,,,,,space,3.999568900000668,None,None,3,0.8810530999999173,0.32501720000072964,None,0,0,0,0,,,,,0,0,0,0,,,,,60,0,60,0,638.7765074000017,,,,,,,,,,,,,,,,,,,,,,,,,,,,,,,,,,,,,,,,,,,,,,,,,,,,,,,,,Kappe,3.3923,638.7613600000004,638.7619284000011,638.7620338000015,638.7765074000017,642.176083100001,642.1602820000007,642.1645111000016,642.176083100001,642.176083100001,642.176083100001,642.176083100001,644.1604823000016,3,0.8810530999999173,0.32501720000072964,None,644.1762186000014,644.1762186000014,644.1762186000014,644.1762186000014,,,,,,,,,,,,,,,,,,,,,4954,1,2025-07-09_19h00.19.535,sm,2024.2.4,59.98908198687408,2025-07-09 19h00.47.156572 +0200,
61,0,61,,,,,,space,3.999568900000668,None,None,3,1.037773300000481,0.3330969999988156,None,0,0,0,0,,,,,0,0,0,0,,,,,61,0,61,0,644.1762186000014,,,,,,,,,,,,,,,,,,,,,,,,,,,,,,,,,,,,,,,,,,,,,,,,,,,,,,,,,Sumpf,2.2997,644.1609879000007,644.1616334000009,644.1617380000007,644.1762186000014,646.4758672000007,646.4604558999999,646.4636186000007,646.4758672000007,646.4758672000007,646.4758672000007,646.4758672000007,648.4603881000003,3,1.037773300000481,0.3330969999988156,None,648.4760333000013,648.4760333000013,648.4760333000013,648.4760333000013,,,,,,,,,,,,,,,,,,,,,4954,1,2025-07-09_19h00.19.535,sm,2024.2.4,59.98908198687408,2025-07-09 19h00.47.156572 +0200,
62,0,62,,,,,,space,3.999568900000668,None,None,3,0.8333770000008371,0.2716122000001633,None,0,0,0,0,,,,,0,0,0,0,,,,,62,0,62,0,648.4760333000013,,,,,,,,,,,,,,,,,,,,,,,,,,,,,,,,,,,,,,,,,,,,,,,,,,,,,,,,,Anruf,2.1163,648.4609239000001,648.4615873000002,648.4617412000007,648.4760333000013,650.5920524000012,650.5766129000003,650.5800942000005,650.5920524000012,650.5920524000012,650.5920524000012,650.5920524000012,652.5767030000006,3,0.8333770000008371,0.2716122000001633,None,652.5922359000015,652.5922359000015,652.5922359000015,652.5922359000015,,,,,,,,,,,,,,,,,,,,,4954,1,2025-07-09_19h00.19.535,sm,2024.2.4,59.98908198687408,2025-07-09 19h00.47.156572 +0200,
63,0,63,,,,,,space,3.999568900000668,None,None,3,1.5059438000007503,0.2876149000003352,None,0,0,0,0,,,,,0,0,0,0,,,,,63,0,63,0,652.5922359000015,,,,,,,,,,,,,,,,,,,,,,,,,,,,,,,,,,,,,,,,,,,,,,,,,,,,,,,,,Schreibtisch,3.9134,652.5772153000016,652.5778173000017,652.5780034,652.5922359000015,656.5089309000014,656.4930966000011,656.4976654000002,656.5089309000014,656.5089309000014,656.5089309000014,656.5089309000014,658.493028500001,3,1.5059438000007503,0.2876149000003352,None,658.5087466000004,658.5087466000004,658.5087466000004,658.5087466000004,,,,,,,,,,,,,,,,,,,,,4954,1,2025-07-09_19h00.19.535,sm,2024.2.4,59.98908198687408,2025-07-09 19h00.47.156572 +0200,
64,0,64,,,,,,space,3.999568900000668,None,None,3,1.0689370999989478,0.3211468999998033,None,0,0,0,0,,,,,0,0,0,0,,,,,64,0,64,0,658.5087466000004,,,,,,,,,,,,,,,,,,,,,,,,,,,,,,,,,,,,,,,,,,,,,,,,,,,,,,,,,Chips,2.2785,658.4934593000016,658.4939190000005,658.4940098000006,658.5087466000004,660.7917842000006,660.7761805000009,660.7830350000004,660.7917842000006,660.7917842000006,660.7917842000006,660.7917842000006,662.7761420000006,3,1.0689370999989478,0.3211468999998033,None,662.7916902000015,662.7916902000015,662.7916902000015,662.7916902000015,,,,,,,,,,,,,,,,,,,,,4954,1,2025-07-09_19h00.19.535,sm,2024.2.4,59.98908198687408,2025-07-09 19h00.47.156572 +0200,
65,0,65,,,,,,space,3.999568900000668,None,None,3,0.5894231999991462,0.2811472000012145,None,0,0,0,0,,,,,0,0,0,0,,,,,65,0,65,0,662.7916902000015,,,,,,,,,,,,,,,,,,,,,,,,,,,,,,,,,,,,,,,,,,,,,,,,,,,,,,,,,Dorn,3.3436,662.7766448000002,662.7771978000001,662.7773003000002,662.7916902000015,666.1414539000016,666.126074400001,666.1298013000014,666.1414539000016,666.1414539000016,666.1414539000016,666.1414539000016,668.1257357000013,3,0.5894231999991462,0.2811472000012145,None,668.1415900000011,668.1415900000011,668.1415900000011,668.1415900000011,,,,,,,,,,,,,,,,,,,,,4954,1,2025-07-09_19h00.19.535,sm,2024.2.4,59.98908198687408,2025-07-09 19h00.47.156572 +0200,
66,0,66,,,,,,space,3.999568900000668,None,None,3,0.8912235000007058,0.20945989999927406,None,0,0,0,0,,,,,0,0,0,0,,,,,66,0,66,0,668.1415900000011,,,,,,,,,,,,,,,,,,,,,,,,,,,,,,,,,,,,,,,,,,,,,,,,,,,,,,,,,Loch,2.0816,668.1261859000006,668.1266542000012,668.1267447000009,668.1415900000011,670.2246432000011,670.208888000001,670.2149344000009,670.2246432000011,670.2246432000011,670.2246432000011,670.2246432000011,672.2090452000011,3,0.8912235000007058,0.20945989999927406,None,672.2244480000008,672.2244480000008,672.2244480000008,672.2244480000008,,,,,,,,,,,,,,,,,,,,,4954,1,2025-07-09_19h00.19.535,sm,2024.2.4,59.98908198687408,2025-07-09 19h00.47.156572 +0200,
67,0,67,,,,,,space,3.999568900000668,None,None,3,0.8874393000005512,0.25232039999900735,None,0,0,0,0,,,,,0,0,0,0,,,,,67,0,67,0,672.2244480000008,,,,,,,,,,,,,,,,,,,,,,,,,,,,,,,,,,,,,,,,,,,,,,,,,,,,,,,,,Netz,2.0981,672.2095627000017,672.210074300001,672.2101772000005,672.2244480000008,674.3243967000017,674.308567600001,674.3119216000014,674.3243967000017,674.3243967000017,674.3243967000017,674.3243967000017,676.3087480000013,3,0.8874393000005512,0.25232039999900735,None,676.3241861000006,676.3241861000006,676.3241861000006,676.3241861000006,,,,,,,,,,,,,,,,,,,,,4954,1,2025-07-09_19h00.19.535,sm,2024.2.4,59.98908198687408,2025-07-09 19h00.47.156572 +0200,
68,0,68,,,,,,space,3.999568900000668,None,None,3,0.768574499999886,0.3154565000004368,None,0,0,0,0,,,,,0,0,0,0,,,,,68,0,68,0,676.3241861000006,,,,,,,,,,,,,,,,,,,,,,,,,,,,,,,,,,,,,,,,,,,,,,,,,,,,,,,,,Wein,2.218,676.3092666000011,676.3097769000015,676.3098803000012,676.3241861000006,678.5575276,678.5419037000011,678.5456302000002,678.5575276,678.5575276,678.5575276,678.5575276,680.5417983000007,3,0.768574499999886,0.3154565000004368,None,680.5574412000005,680.5574412000005,680.5574412000005,680.5574412000005,,,,,,,,,,,,,,,,,,,,,4954,1,2025-07-09_19h00.19.535,sm,2024.2.4,59.98908198687408,2025-07-09 19h00.47.156572 +0200,
69,0,69,,,,,,space,3.999568900000668,None,None,3,0.8156033999985084,0.2831703000010748,None,0,0,0,0,,,,,0,0,0,0,,,,,69,0,69,0,680.5574412000005,,,,,,,,,,,,,,,,,,,,,,,,,,,,,,,,,,,,,,,,,,,,,,,,,,,,,,,,,Service,3.5688,680.5423014000007,680.542820300001,680.5429238000015,680.5574412000005,684.1402125000004,684.1247038000001,684.1286414000006,684.1402125000004,684.1402125000004,684.1402125000004,684.1402125000004,686.1248227000015,3,0.8156033999985084,0.2831703000010748,None,686.1404021000017,686.1404021000017,686.1404021000017,686.1404021000017,,,,,,,,,,,,,,,,,,,,,4954,1,2025-07-09_19h00.19.535,sm,2024.2.4,59.98908198687408,2025-07-09 19h00.47.156572 +0200,
70,0,70,,,,,,space,3.999568900000668,None,None,3,0.9198584000005212,0.2916380000006029,None,0,0,0,0,,,,,0,0,0,0,,,,,70,0,70,0,686.1404021000017,,,,,,,,,,,,,,,,,,,,,,,,,,,,,,,,,,,,,,,,,,,,,,,,,,,,,,,,,Vulkan,2.2556,686.1253327000013,686.125852000001,686.1259578000008,686.1404021000017,688.4069192000006,688.3909957000014,688.3942179000005,688.4069192000006,688.4069192000006,688.4069192000006,688.4069192000006,690.3911171,3,0.9198584000005212,0.2916380000006029,None,690.4067170000017,690.4067170000017,690.4067170000017,690.4067170000017,,,,,,,,,,,,,,,,,,,,,4954,1,2025-07-09_19h00.19.535,sm,2024.2.4,59.98908198687408,2025-07-09 19h00.47.156572 +0200,
71,0,71,,,,,,space,3.999568900000668,None,None,3,0.9559172999997827,0.2393833000005543,None,0,0,0,0,,,,,0,0,0,0,,,,,71,0,71,0,690.4067170000017,,,,,,,,,,,,,,,,,,,,,,,,,,,,,,,,,,,,,,,,,,,,,,,,,,,,,,,,,Schloss,3.1672,690.391638000001,690.3921553,690.3922596000011,690.4067170000017,693.5731153000015,693.5577520000006,693.5614947000013,693.5731153000015,693.5731153000015,693.5731153000015,693.5731153000015,695.5578002000002,3,0.9559172999997827,0.2393833000005543,None,695.5732018000017,695.5732018000017,695.5732018000017,695.5732018000017,,,,,,,,,,,,,,,,,,,,,4954,1,2025-07-09_19h00.19.535,sm,2024.2.4,59.98908198687408,2025-07-09 19h00.47.156572 +0200,
72,0,72,,,,,,space,3.999568900000668,None,None,3,0.8994576000004599,0.2759917999992467,None,0,0,0,0,,,,,0,0,0,0,,,,,72,0,72,0,695.5732018000017,,,,,,,,,,,,,,,,,,,,,,,,,,,,,,,,,,,,,,,,,,,,,,,,,,,,,,,,,Farbe,3.067,695.5583465,695.5590124000009,695.5591768000013,695.5732018000017,698.6393473000007,698.6238329000007,698.6274850000009,698.6393473000007,698.6393473000007,698.6393473000007,698.6393473000007,700.6238013000002,3,0.8994576000004599,0.2759917999992467,None,700.6395783000007,700.6395783000007,700.6395783000007,700.6395783000007,,,,,,,,,,,,,,,,,,,,,4954,1,2025-07-09_19h00.19.535,sm,2024.2.4,59.98908198687408,2025-07-09 19h00.47.156572 +0200,
73,0,73,,,,,,space,3.999568900000668,None,None,3,0.7861429000004136,0.28806950000034703,None,0,0,0,0,,,,,0,0,0,0,,,,,73,0,73,0,700.6395783000007,,,,,,,,,,,,,,,,,,,,,,,,,,,,,,,,,,,,,,,,,,,,,,,,,,,,,,,,,Datei,2.0547,700.6243112000011,700.6248226000007,700.6249272000005,700.6395783000007,702.7061822000014,702.6904314000003,702.6950994000017,702.7061822000014,702.7061822000014,702.7061822000014,702.7061822000014,704.6905351000005,3,0.7861429000004136,0.28806950000034703,None,704.7061453000006,704.7061453000006,704.7061453000006,704.7061453000006,,,,,,,,,,,,,,,,,,,,,4954,1,2025-07-09_19h00.19.535,sm,2024.2.4,59.98908198687408,2025-07-09 19h00.47.156572 +0200,
74,0,74,,,,,,space,3.999568900000668,None,None,3,0.9795653000001039,0.2558685999993031,None,0,0,0,0,,,,,0,0,0,0,,,,,74,0,74,0,704.7061453000006,,,,,,,,,,,,,,,,,,,,,,,,,,,,,,,,,,,,,,,,,,,,,,,,,,,,,,,,,Sauber,2.5861,704.6910523000006,704.6916870000005,704.6917931000007,704.7061453000006,707.3058271000009,707.2903713000014,707.2938859000005,707.3058271000009,707.3058271000009,707.3058271000009,707.3058271000009,709.2902405000004,3,0.9795653000001039,0.2558685999993031,None,709.3056594000009,709.3056594000009,709.3056594000009,709.3056594000009,,,,,,,,,,,,,,,,,,,,,4954,1,2025-07-09_19h00.19.535,sm,2024.2.4,59.98908198687408,2025-07-09 19h00.47.156572 +0200,
75,0,75,,,,,,space,3.999568900000668,None,None,3,1.3844155999995564,0.26310879999982717,None,0,0,0,0,,,,,0,0,0,0,,,,,75,0,75,0,709.3056594000009,,,,,,,,,,,,,,,,,,,,,,,,,,,,,,,,,,,,,,,,,,,,,,,,,,,,,,,,,Sicherheit,2.178,709.2907493000002,709.2913365000004,709.2914416000003,709.3056594000009,711.4888110000011,711.4733979000011,711.4779857000012,711.4888110000011,711.4888110000011,711.4888110000011,711.4888110000011,713.4733429000007,3,1.3844155999995564,0.26310879999982717,None,713.4890242000001,713.4890242000001,713.4890242000001,713.4890242000001,,,,,,,,,,,,,,,,,,,,,4954,1,2025-07-09_19h00.19.535,sm,2024.2.4,59.98908198687408,2025-07-09 19h00.47.156572 +0200,
76,0,76,,,,,,space,3.999568900000668,None,None,3,0.9955482999994274,0.25839859999905457,None,0,0,0,0,,,,,0,0,0,0,,,,,76,0,76,0,713.4890242000001,,,,,,,,,,,,,,,,,,,,,,,,,,,,,,,,,,,,,,,,,,,,,,,,,,,,,,,,,Klippe,2.3128,713.4738538000001,713.4743888000012,713.474494600001,713.4890242000001,715.8052259000015,715.7895597000006,715.793279200001,715.8052259000015,715.8052259000015,715.8052259000015,715.8052259000015,717.7895370000006,3,0.9955482999994274,0.25839859999905457,None,717.8055202000014,717.8055202000014,717.8055202000014,717.8055202000014,,,,,,,,,,,,,,,,,,,,,4954,1,2025-07-09_19h00.19.535,sm,2024.2.4,59.98908198687408,2025-07-09 19h00.47.156572 +0200,
77,0,77,,,,,,space,3.999568900000668,None,None,3,0.7985566000006656,0.24220409999907133,None,0,0,0,0,,,,,0,0,0,0,,,,,77,0,77,0,717.8055202000014,,,,,,,,,,,,,,,,,,,,,,,,,,,,,,,,,,,,,,,,,,,,,,,,,,,,,,,,,Pflege,4.0684,717.7900533000011,717.7905674000012,717.7906720999999,717.8055202000014,721.8880050000007,721.8728927000011,721.8773530000017,721.8880050000007,721.8880050000007,721.8880050000007,721.8880050000007,723.8727192000006,3,0.7985566000006656,0.24220409999907133,None,723.8880795000005,723.8880795000005,723.8880795000005,723.8880795000005,,,,,,,,,,,,,,,,,,,,,4954,1,2025-07-09_19h00.19.535,sm,2024.2.4,59.98908198687408,2025-07-09 19h00.47.156572 +0200,
78,0,78,,,,,,space,3.999568900000668,None,None,3,0.8348831000002974,0.25542029999996885,None,0,0,0,0,,,,,0,0,0,0,,,,,78,0,78,0,723.8880795000005,,,,,,,,,,,,,,,,,,,,,,,,,,,,,,,,,,,,,,,,,,,,,,,,,,,,,,,,,Geschmack,2.6447,723.8732399,723.8737453000012,723.8738505000001,723.8880795000005,726.5378360000013,726.5220964,726.5260619000001,726.5378360000013,726.5378360000013,726.5378360000013,726.5378360000013,728.5225079000011,3,0.8348831000002974,0.25542029999996885,None,728.538155100001,728.538155100001,728.538155100001,728.538155100001,,,,,,,,,,,,,,,,,,,,,4954,1,2025-07-09_19h00.19.535,sm,2024.2.4,59.98908198687408,2025-07-09 19h00.47.156572 +0200,
79,0,79,,,,,,space,3.999568900000668,None,None,3,0.7484500000009575,0.26034729999992123,None,0,0,0,0,,,,,0,0,0,0,,,,,79,0,79,0,728.538155100001,,,,,,,,,,,,,,,,,,,,,,,,,,,,,,,,,,,,,,,,,,,,,,,,,,,,,,,,,Team,4.5361,728.5230084000013,728.5235214000004,728.5236269000015,728.538155100001,733.0874426000009,733.0720777000006,733.0762601000006,733.0874426000009,733.0874426000009,733.0874426000009,733.0874426000009,735.0720282000002,3,0.7484500000009575,0.26034729999992123,None,735.0990623000016,735.0990623000016,735.0990623000016,735.0990623000016,,,,,,,,,,,,,,,,,,,,,4954,1,2025-07-09_19h00.19.535,sm,2024.2.4,59.98908198687408,2025-07-09 19h00.47.156572 +0200,
0,0,0,,,,,2.322,space,4.315143600000738,None,None,None,,,None,0,0,0,0,,,,,1,0,1,0,0,79,79,13,0,0,0,0,782.4013518000011,,,,,,,,,,,,,,,,,,,,,,,,,,,,,,,,,,,,752.9866407000009,752.9869014000014,752.9931718000007,752.9978730000003,752.9978730000003,757.3219187000013,space,4.315143600000738,None,757.3220758000007,757.3363008000015,757.3363008000015,770.3867941000008,None,770.3936493000001,770.4017854000012,770.4021771666669,771.6048035000003,780.4014755666669,781.4050696000013,782.3857377000004,Leute,2.322,782.3871561000014,782.3879827000001,782.3880919000003,782.4013518000011,784.7344142000002,784.7186630000015,784.7221168000015,784.7344142000002,784.7344142000002,784.7344142000002,784.7344142000002,786.718989500001,None,,,None,786.7344025000002,786.7344025000002,786.7344025000002,786.7344025000002,747.0869939000004,747.0870615000003,None,747.0951579000011,747.1029239,751.103438600001,751.103438600001,751.103438600001,752.938346500001,2,1.8205281000009563,None,782.4013518000011,,,,,,,,4954,1,2025-07-09_19h00.19.535,sm,2024.2.4,59.98908198687408,2025-07-09 19h00.47.156572 +0200,
1,0,1,,,,,,space,4.315143600000738,None,None,3,0.9166079000005993,0.2594226000001072,None,0,0,0,0,,,,,1,0,1,0,,,,,1,0,1,0,786.7344025000002,,,,,,,,,,,,,,,,,,,,,,,,,,,,,,,,,,,,,,,,,,,,,,,,,,,,,,,,,Salz,4.5361,786.7194543000005,786.7199927000001,786.7200989000012,786.7344025000002,791.284039600001,791.2684783000004,791.271579100001,791.284039600001,791.284039600001,791.284039600001,791.284039600001,793.2684034000013,3,0.9166079000005993,0.2594226000001072,None,793.2841239000008,793.2841239000008,793.2841239000008,793.2841239000008,,,,,,,,,,,,,,,,,,,,,4954,1,2025-07-09_19h00.19.535,sm,2024.2.4,59.98908198687408,2025-07-09 19h00.47.156572 +0200,
2,0,2,,,,,,space,4.315143600000738,None,None,2,0.8020853999987594,0.291199700001016,None,0,0,0,0,,,,,1,0,1,0,,,,,2,0,2,0,793.2841239000008,,,,,,,,,,,,,,,,,,,,,,,,,,,,,,,,,,,,,,,,,,,,,,,,,,,,,,,,,Hai,2.2934,793.2689166,793.2694291000007,793.2695342000006,793.2841239000008,795.5839456000012,795.5682331000007,795.5717484000015,795.5839456000012,795.5839456000012,795.5839456000012,795.5839456000012,797.5683588000011,2,0.8020853999987594,0.291199700001016,None,797.583947000001,797.583947000001,797.583947000001,797.583947000001,,,,,,,,,,,,,,,,,,,,,4954,1,2025-07-09_19h00.19.535,sm,2024.2.4,59.98908198687408,2025-07-09 19h00.47.156572 +0200,
3,0,3,,,,,,space,4.315143600000738,None,None,3,0.8973100000002887,0.3183085000000574,None,0,0,0,0,,,,,1,0,1,0,,,,,3,0,3,0,797.583947000001,,,,,,,,,,,,,,,,,,,,,,,,,,,,,,,,,,,,,,,,,,,,,,,,,,,,,,,,,Vergangenheit,5.1902,797.5688702000007,797.5693762999999,797.5694797000015,797.583947000001,802.7833217000007,802.767720400001,802.7717759000006,802.7833217000007,802.7833217000007,802.7833217000007,802.7833217000007,804.7676520000005,3,0.8973100000002887,0.3183085000000574,None,804.7832791000001,804.7832791000001,804.7832791000001,804.7832791000001,,,,,,,,,,,,,,,,,,,,,4954,1,2025-07-09_19h00.19.535,sm,2024.2.4,59.98908198687408,2025-07-09 19h00.47.156572 +0200,
4,0,4,,,,,,space,4.315143600000738,None,None,3,0.8999017000005551,0.25807029999850783,None,0,0,0,0,,,,,1,0,1,0,,,,,4,0,4,0,804.7832791000001,,,,,,,,,,,,,,,,,,,,,,,,,,,,,,,,,,,,,,,,,,,,,,,,,,,,,,,,,Telefon,3.6257,804.7681629000017,804.7686852000006,804.7687901000008,804.7832791000001,808.4168257000001,808.4006629000014,808.4050218000011,808.4168257000001,808.4168257000001,808.4168257000001,808.4168257000001,810.4007237000005,3,0.8999017000005551,0.25807029999850783,None,810.4167300000008,810.4167300000008,810.4167300000008,810.4167300000008,,,,,,,,,,,,,,,,,,,,,4954,1,2025-07-09_19h00.19.535,sm,2024.2.4,59.98908198687408,2025-07-09 19h00.47.156572 +0200,
5,0,5,,,,,,space,4.315143600000738,None,None,3,1.4356275999998616,0.2645687000003818,None,0,0,0,0,,,,,1,0,1,0,,,,,5,0,5,0,810.4167300000008,,,,,,,,,,,,,,,,,,,,,,,,,,,,,,,,,,,,,,,,,,,,,,,,,,,,,,,,,Freund,3.4054,810.4012445000008,810.4017571000004,810.4018657000015,810.4167300000008,813.832746,813.8173364000013,813.8211137000017,813.832746,813.832746,813.832746,813.832746,815.8170486000017,3,1.4356275999998616,0.2645687000003818,None,815.8327465000002,815.8327465000002,815.8327465000002,815.8327465000002,,,,,,,,,,,,,,,,,,,,,4954,1,2025-07-09_19h00.19.535,sm,2024.2.4,59.98908198687408,2025-07-09 19h00.47.156572 +0200,
6,0,6,,,,,,space,4.315143600000738,None,None,3,0.6493240999989212,0.2918410000002041,None,0,0,0,0,,,,,1,0,1,0,,,,,6,0,6,0,815.8327465000002,,,,,,,,,,,,,,,,,,,,,,,,,,,,,,,,,,,,,,,,,,,,,,,,,,,,,,,,,Bett,2.0547,815.8175565000001,815.8180698000015,815.8181721000001,815.8327465000002,817.899163,817.8836917000008,817.8866781000015,817.899163,817.899163,817.899163,817.899163,819.8836342000013,3,0.6493240999989212,0.2918410000002041,None,819.8990550000017,819.8990550000017,819.8990550000017,819.8990550000017,,,,,,,,,,,,,,,,,,,,,4954,1,2025-07-09_19h00.19.535,sm,2024.2.4,59.98908198687408,2025-07-09 19h00.47.156572 +0200,
7,0,7,,,,,,space,4.315143600000738,None,None,3,1.3652695000000676,0.2791896999988239,None,0,0,0,0,,,,,1,0,1,0,,,,,7,0,7,0,819.8990550000017,,,,,,,,,,,,,,,,,,,,,,,,,,,,,,,,,,,,,,,,,,,,,,,,,,,,,,,,,Spion,2.6641,819.8841415000006,819.8846522000003,819.8847570000016,819.8990550000017,822.5656586000005,822.5498525000003,822.5533703000001,822.5656586000005,822.5656586000005,822.5656586000005,822.5656586000005,824.5500934000011,3,1.3652695000000676,0.2791896999988239,None,824.5656116000009,824.5656116000009,824.5656116000009,824.5656116000009,,,,,,,,,,,,,,,,,,,,,4954,1,2025-07-09_19h00.19.535,sm,2024.2.4,59.98908198687408,2025-07-09 19h00.47.156572 +0200,
8,0,8,,,,,,space,4.315143600000738,None,None,3,1.0949875000005704,0.27915910000047006,None,0,0,0,0,,,,,1,0,1,0,,,,,8,0,8,0,824.5656116000009,,,,,,,,,,,,,,,,,,,,,,,,,,,,,,,,,,,,,,,,,,,,,,,,,,,,,,,,,Rebe,3.2609,824.5506011000016,824.551130400001,824.5512348000011,824.5656116000009,827.8320543000009,827.8158780000012,827.8187120000002,827.8320543000009,827.8320543000009,827.8320543000009,827.8320543000009,829.8167035000006,3,1.0949875000005704,0.27915910000047006,None,829.8318809000011,829.8318809000011,829.8318809000011,829.8318809000011,,,,,,,,,,,,,,,,,,,,,4954,1,2025-07-09_19h00.19.535,sm,2024.2.4,59.98908198687408,2025-07-09 19h00.47.156572 +0200,
9,0,9,,,,,,space,4.315143600000738,None,None,3,0.8724716000015178,0.3671223999990616,None,0,0,0,0,,,,,1,0,1,0,,,,,9,0,9,0,829.8318809000011,,,,,,,,,,,,,,,,,,,,,,,,,,,,,,,,,,,,,,,,,,,,,,,,,,,,,,,,,Wahrheit,2.2997,829.8172154000004,829.8177349000016,829.8178389000004,829.8318809000011,832.1316659000004,832.1160249000004,832.1196842000008,832.1316659000004,832.1316659000004,832.1316659000004,832.1316659000004,834.1161723000005,3,0.8724716000015178,0.3671223999990616,None,834.1317077000003,834.1317077000003,834.1317077000003,834.1317077000003,,,,,,,,,,,,,,,,,,,,,4954,1,2025-07-09_19h00.19.535,sm,2024.2.4,59.98908198687408,2025-07-09 19h00.47.156572 +0200,
10,0,10,,,,,,space,4.315143600000738,None,None,3,0.9755476999998791,0.28308450000076846,None,0,0,0,0,,,,,1,0,1,0,,,,,10,0,10,0,834.1317077000003,,,,,,,,,,,,,,,,,,,,,,,,,,,,,,,,,,,,,,,,,,,,,,,,,,,,,,,,,Kerzen,2.2785,834.1166839000016,834.1171945000006,834.1173016000012,834.1317077000003,836.4147003000016,836.3990861000002,836.4025220000003,836.4147003000016,836.4147003000016,836.4147003000016,836.4147003000016,838.3991216000013,3,0.9755476999998791,0.28308450000076846,None,838.4149030000008,838.4149030000008,838.4149030000008,838.4149030000008,,,,,,,,,,,,,,,,,,,,,4954,1,2025-07-09_19h00.19.535,sm,2024.2.4,59.98908198687408,2025-07-09 19h00.47.156572 +0200,
11,0,11,,,,,,space,4.315143600000738,None,None,3,1.0075285999992047,0.3331027999993239,None,0,0,0,0,,,,,1,0,1,0,,,,,11,0,11,0,838.4149030000008,,,,,,,,,,,,,,,,,,,,,,,,,,,,,,,,,,,,,,,,,,,,,,,,,,,,,,,,,Tal,2.0212,838.399631100001,838.4002652000017,838.4003697000007,838.4149030000008,840.4478407000006,840.4320444000004,840.4359562000009,840.4478407000006,840.4478407000006,840.4478407000006,840.4478407000006,842.432248000001,3,1.0075285999992047,0.3331027999993239,None,842.4478703000004,842.4478703000004,842.4478703000004,842.4478703000004,,,,,,,,,,,,,,,,,,,,,4954,1,2025-07-09_19h00.19.535,sm,2024.2.4,59.98908198687408,2025-07-09 19h00.47.156572 +0200,
12,0,12,,,,,,space,4.315143600000738,None,None,3,1.2551478999994288,0.3205333000005339,None,0,0,0,0,,,,,1,0,1,0,,,,,12,0,12,0,842.4478703000004,,,,,,,,,,,,,,,,,,,,,,,,,,,,,,,,,,,,,,,,,,,,,,,,,,,,,,,,,Klempner,3.3923,842.4327638000013,842.4333332000006,842.4334373000002,842.4478703000004,845.848477900001,845.8318784000003,845.8364490000004,845.848477900001,845.848477900001,845.848477900001,845.848477900001,847.831898800001,3,1.2551478999994288,0.3205333000005339,None,847.8475204000006,847.8475204000006,847.8475204000006,847.8475204000006,,,,,,,,,,,,,,,,,,,,,4954,1,2025-07-09_19h00.19.535,sm,2024.2.4,59.98908198687408,2025-07-09 19h00.47.156572 +0200,
13,0,13,,,,,,space,4.315143600000738,None,None,3,1.0236819999990985,0.3175731999999698,None,0,0,0,0,,,,,1,0,1,0,,,,,13,0,13,0,847.8475204000006,,,,,,,,,,,,,,,,,,,,,,,,,,,,,,,,,,,,,,,,,,,,,,,,,,,,,,,,,Sendung,2.405,847.8324800000009,847.8329957000005,847.8331085000009,847.8475204000006,850.2637861000003,850.2481603000015,850.2516988000007,850.2637861000003,850.2637861000003,850.2637861000003,850.2637861000003,852.2480574000001,3,1.0236819999990985,0.3175731999999698,None,852.2639201000002,852.2639201000002,852.2639201000002,852.2639201000002,,,,,,,,,,,,,,,,,,,,,4954,1,2025-07-09_19h00.19.535,sm,2024.2.4,59.98908198687408,2025-07-09 19h00.47.156572 +0200,
14,0,14,,,,,,space,4.315143600000738,None,None,3,1.1988320000000385,0.27795750000041153,None,0,0,0,0,,,,,1,0,1,0,,,,,14,0,14,0,852.2639201000002,,,,,,,,,,,,,,,,,,,,,,,,,,,,,,,,,,,,,,,,,,,,,,,,,,,,,,,,,Urlaub,2.6447,852.2485125000003,852.2489910000004,852.2490851000002,852.2639201000002,854.9135055000006,854.8982171000007,854.9053068000012,854.9135055000006,854.9135055000006,854.9135055000006,854.9135055000006,856.8980405000002,3,1.1988320000000385,0.27795750000041153,None,856.9142869000007,856.9142869000007,856.9142869000007,856.9142869000007,,,,,,,,,,,,,,,,,,,,,4954,1,2025-07-09_19h00.19.535,sm,2024.2.4,59.98908198687408,2025-07-09 19h00.47.156572 +0200,
15,0,15,,,,,,space,4.315143600000738,None,None,3,1.3383520000006683,0.2754031999993458,None,0,0,0,0,,,,,1,0,1,0,,,,,15,0,15,0,856.9142869000007,,,,,,,,,,,,,,,,,,,,,,,,,,,,,,,,,,,,,,,,,,,,,,,,,,,,,,,,,Monster,2.4661,856.8985536,856.8992000000017,856.8993062000009,856.9142869000007,859.3801076,859.3644209000013,859.3686179000015,859.3801076,859.3801076,859.3801076,859.3801076,861.3648476000017,3,1.3383520000006683,0.2754031999993458,None,861.3799979000014,861.3799979000014,861.3799979000014,861.3799979000014,,,,,,,,,,,,,,,,,,,,,4954,1,2025-07-09_19h00.19.535,sm,2024.2.4,59.98908198687408,2025-07-09 19h00.47.156572 +0200,
16,0,16,,,,,,space,4.315143600000738,None,None,3,1.08901700000024,0.2781856000001426,None,0,0,0,0,,,,,1,0,1,0,,,,,16,0,16,0,861.3799979000014,,,,,,,,,,,,,,,,,,,,,,,,,,,,,,,,,,,,,,,,,,,,,,,,,,,,,,,,,Beine,2.1004,861.3653560000002,861.365870900001,861.365976000001,861.3799979000014,863.479758200001,863.4640951000001,863.4678798000004,863.479758200001,863.479758200001,863.479758200001,863.479758200001,865.4643570000007,3,1.08901700000024,0.2781856000001426,None,865.4796837000013,865.4796837000013,865.4796837000013,865.4796837000013,,,,,,,,,,,,,,,,,,,,,4954,1,2025-07-09_19h00.19.535,sm,2024.2.4,59.98908198687408,2025-07-09 19h00.47.156572 +0200,
17,0,17,,,,,,space,4.315143600000738,None,None,3,1.2490190000007715,0.24332119999962742,None,0,0,0,0,,,,,1,0,1,0,,,,,17,0,17,0,865.4796837000013,,,,,,,,,,,,,,,,,,,,,,,,,,,,,,,,,,,,,,,,,,,,,,,,,,,,,,,,,Afrika,2.0816,865.4648636000002,865.4656090000008,865.4657116000017,865.4796837000013,867.5627415000017,867.5472071000004,867.5513991000007,867.5627415000017,867.5627415000017,867.5627415000017,867.5627415000017,869.5471429000008,3,1.2490190000007715,0.24332119999962742,None,869.5630682999999,869.5630682999999,869.5630682999999,869.5630682999999,,,,,,,,,,,,,,,,,,,,,4954,1,2025-07-09_19h00.19.535,sm,2024.2.4,59.98908198687408,2025-07-09 19h00.47.156572 +0200,
18,0,18,,,,,,space,4.315143600000738,None,None,2,1.4469994000010047,0.3323205999986385,None,0,0,0,0,,,,,1,0,1,0,,,,,18,0,18,0,869.5630682999999,,,,,,,,,,,,,,,,,,,,,,,,,,,,,,,,,,,,,,,,,,,,,,,,,,,,,,,,,Akrobatin,4.0684,869.5476259000006,869.5481113000005,869.5482133000005,869.5630682999999,873.6457319000001,873.6306188000017,873.6349858000012,873.6457319000001,873.6457319000001,873.6457319000001,873.6457319000001,875.6301275000005,2,1.4469994000010047,0.3323205999986385,None,875.6459815000017,875.6459815000017,875.6459815000017,875.6459815000017,,,,,,,,,,,,,,,,,,,,,4954,1,2025-07-09_19h00.19.535,sm,2024.2.4,59.98908198687408,2025-07-09 19h00.47.156572 +0200,
19,0,19,,,,,,space,4.315143600000738,None,None,3,1.0563719000001583,0.29393249999884574,None,0,0,0,0,,,,,1,0,1,0,,,,,19,0,19,0,875.6459815000017,,,,,,,,,,,,,,,,,,,,,,,,,,,,,,,,,,,,,,,,,,,,,,,,,,,,,,,,,Seife,3.1672,875.6306035000016,875.631179,875.6312789000003,875.6459815000017,878.8123843000012,878.7966455000005,878.8007934000016,878.8123843000012,878.8123843000012,878.8123843000012,878.8123843000012,880.7967638000009,3,1.0563719000001583,0.29393249999884574,None,880.8124209000016,880.8124209000016,880.8124209000016,880.8124209000016,,,,,,,,,,,,,,,,,,,,,4954,1,2025-07-09_19h00.19.535,sm,2024.2.4,59.98908198687408,2025-07-09 19h00.47.156572 +0200,
20,0,20,,,,,,space,4.315143600000738,None,None,2,1.2773298000010982,0.31213129999923694,None,0,0,0,0,,,,,1,0,1,0,,,,,20,0,20,0,880.8124209000016,,,,,,,,,,,,,,,,,,,,,,,,,,,,,,,,,,,,,,,,,,,,,,,,,,,,,,,,,Anwalt,2.2511,880.7972783000005,880.7977895000004,880.7978926000014,880.8124209000016,883.0787456000016,883.0628693000017,883.0665412000017,883.0787456000016,883.0787456000016,883.0787456000016,883.0787456000016,885.0630904000009,2,1.2773298000010982,0.31213129999923694,None,885.0789266000011,885.0789266000011,885.0789266000011,885.0789266000011,,,,,,,,,,,,,,,,,,,,,4954,1,2025-07-09_19h00.19.535,sm,2024.2.4,59.98908198687408,2025-07-09 19h00.47.156572 +0200,
21,0,21,,,,,,space,4.315143600000738,None,None,3,0.8744038000004366,0.2932820999994874,None,0,0,0,0,,,,,1,0,1,0,,,,,21,0,21,0,885.0789266000011,,,,,,,,,,,,,,,,,,,,,,,,,,,,,,,,,,,,,,,,,,,,,,,,,,,,,,,,,Stiefel,3.3436,885.0635982000003,885.0642339000005,885.0643389000015,885.0789266000011,888.4284669000008,888.4126519000001,888.416537000001,888.4284669000008,888.4284669000008,888.4284669000008,888.4284669000008,890.4132766000002,3,0.8744038000004366,0.2932820999994874,None,890.4284162000004,890.4284162000004,890.4284162000004,890.4284162000004,,,,,,,,,,,,,,,,,,,,,4954,1,2025-07-09_19h00.19.535,sm,2024.2.4,59.98908198687408,2025-07-09 19h00.47.156572 +0200,
22,0,22,,,,,,space,4.315143600000738,None,None,2,0.9917472999986785,0.30459110000083456,None,0,0,0,0,,,,,1,0,1,0,,,,,22,0,22,0,890.4284162000004,,,,,,,,,,,,,,,,,,,,,,,,,,,,,,,,,,,,,,,,,,,,,,,,,,,,,,,,,Hase,2.1589,890.4137852000003,890.4142960000008,890.4144006000006,890.4284162000004,892.5948126000003,892.5794028,892.5827787000017,892.5948126000003,892.5948126000003,892.5948126000003,892.5948126000003,894.5791985000014,2,0.9917472999986785,0.30459110000083456,None,894.594688000001,894.594688000001,894.594688000001,894.594688000001,,,,,,,,,,,,,,,,,,,,,4954,1,2025-07-09_19h00.19.535,sm,2024.2.4,59.98908198687408,2025-07-09 19h00.47.156572 +0200,
23,0,23,,,,,,space,4.315143600000738,None,None,3,1.1006550999991305,0.3245063000013033,None,0,0,0,0,,,,,1,0,1,0,,,,,23,0,23,0,894.594688000001,,,,,,,,,,,,,,,,,,,,,,,,,,,,,,,,,,,,,,,,,,,,,,,,,,,,,,,,,Klinge,3.1659,894.5797139000006,894.580226600001,894.5803304000001,894.594688000001,897.761141500001,897.7454055000017,897.7489541000014,897.761141500001,897.761141500001,897.761141500001,897.761141500001,899.7456766000014,3,1.1006550999991305,0.3245063000013033,None,899.7610951000006,899.7610951000006,899.7610951000006,899.7610951000006,,,,,,,,,,,,,,,,,,,,,4954,1,2025-07-09_19h00.19.535,sm,2024.2.4,59.98908198687408,2025-07-09 19h00.47.156572 +0200,
24,0,24,,,,,,space,4.315143600000738,None,None,3,0.8999337999994168,0.31629050000083225,None,0,0,0,0,,,,,1,0,1,0,,,,,24,0,24,0,899.7610951000006,,,,,,,,,,,,,,,,,,,,,,,,,,,,,,,,,,,,,,,,,,,,,,,,,,,,,,,,,Apfel,2.7885,899.7462160000014,899.7467348000009,899.7468420000005,899.7610951000006,902.5604842000012,902.5449897000017,902.5486988000011,902.5604842000012,902.5604842000012,902.5604842000012,902.5604842000012,904.5452203000004,3,0.8999337999994168,0.31629050000083225,None,904.5609140000015,904.5609140000015,904.5609140000015,904.5609140000015,,,,,,,,,,,,,,,,,,,,,4954,1,2025-07-09_19h00.19.535,sm,2024.2.4,59.98908198687408,2025-07-09 19h00.47.156572 +0200,
25,0,25,,,,,,space,4.315143600000738,None,None,3,0.8183934000007866,0.32215370000085386,None,0,0,0,0,,,,,1,0,1,0,,,,,25,0,25,0,904.5609140000015,,,,,,,,,,,,,,,,,,,,,,,,,,,,,,,,,,,,,,,,,,,,,,,,,,,,,,,,,Sack,2.0026,904.5456967000009,904.546321400001,904.5464199000016,904.5609140000015,906.577363800001,906.5616503000001,906.5649821000006,906.577363800001,906.577363800001,906.577363800001,906.577363800001,908.5621771000006,3,0.8183934000007866,0.32215370000085386,None,908.5773293000002,908.5773293000002,908.5773293000002,908.5773293000002,,,,,,,,,,,,,,,,,,,,,4954,1,2025-07-09_19h00.19.535,sm,2024.2.4,59.98908198687408,2025-07-09 19h00.47.156572 +0200,
26,0,26,,,,,,space,4.315143600000738,None,None,3,0.7571969000000536,0.3306780000002618,None,0,0,0,0,,,,,1,0,1,0,,,,,26,0,26,0,908.5773293000002,,,,,,,,,,,,,,,,,,,,,,,,,,,,,,,,,,,,,,,,,,,,,,,,,,,,,,,,,Spaß,3.0379,908.5626890000003,908.5632066000016,908.5633167000015,908.5773293000002,911.6270622000011,911.6116380000003,911.6146681000009,911.6270622000011,911.6270622000011,911.6270622000011,911.6270622000011,913.6117273,3,0.7571969000000536,0.3306780000002618,None,913.6268348000012,913.6268348000012,913.6268348000012,913.6268348000012,,,,,,,,,,,,,,,,,,,,,4954,1,2025-07-09_19h00.19.535,sm,2024.2.4,59.98908198687408,2025-07-09 19h00.47.156572 +0200,
27,0,27,,,,,,space,4.315143600000738,None,None,3,0.7164032000000589,0.29227670000000217,None,0,0,0,0,,,,,1,0,1,0,,,,,27,0,27,0,913.6268348000012,,,,,,,,,,,,,,,,,,,,,,,,,,,,,,,,,,,,,,,,,,,,,,,,,,,,,,,,,Gelenk,3.4135,913.6122317000008,913.6128805000008,913.6129832000006,913.6268348000012,917.0434258000005,917.0276832,917.0314253000015,917.0434258000005,917.0434258000005,917.0434258000005,917.0434258000005,919.0278520000011,3,0.7164032000000589,0.29227670000000217,None,919.0433240000002,919.0433240000002,919.0433240000002,919.0433240000002,,,,,,,,,,,,,,,,,,,,,4954,1,2025-07-09_19h00.19.535,sm,2024.2.4,59.98908198687408,2025-07-09 19h00.47.156572 +0200,
28,0,28,,,,,,space,4.315143600000738,None,None,3,1.1397456000013335,0.3076740999986214,None,0,0,0,0,,,,,1,0,1,0,,,,,28,0,28,0,919.0433240000002,,,,,,,,,,,,,,,,,,,,,,,,,,,,,,,,,,,,,,,,,,,,,,,,,,,,,,,,,Anhänger,2.3445,919.0283658000008,919.0288757000017,919.0289797000005,919.0433240000002,921.3929711000001,921.3774956000016,921.3816929000004,921.3929711000001,921.3929711000001,921.3929711000001,921.3929711000001,923.3775269000016,3,1.1397456000013335,0.3076740999986214,None,923.3931719000011,923.3931719000011,923.3931719000011,923.3931719000011,,,,,,,,,,,,,,,,,,,,,4954,1,2025-07-09_19h00.19.535,sm,2024.2.4,59.98908198687408,2025-07-09 19h00.47.156572 +0200,
29,0,29,,,,,,space,4.315143600000738,None,None,3,0.8386408999995183,0.28764199999932316,None,0,0,0,0,,,,,1,0,1,0,,,,,29,0,29,0,923.3931719000011,,,,,,,,,,,,,,,,,,,,,,,,,,,,,,,,,,,,,,,,,,,,,,,,,,,,,,,,,Harmonie,2.9276,923.3780321000013,923.3786841000001,923.3787884000012,923.3931719000011,926.3278698000013,926.3104428000006,926.3142028000002,926.3278698000013,926.3278698000013,926.3278698000013,926.3278698000013,928.3266170000006,3,0.8386408999995183,0.28764199999932316,None,,,,,,,,,,,,,,,,,,,,,,,,,4954,1,2025-07-09_19h00.19.535,sm,2024.2.4,59.98908198687408,2025-07-09 19h00.47.156572 +0200,
30,0,30,,,,,,space,4.315143600000738,None,None,3,0.919053100000383,0.2338618999983737,None,0,0,0,0,,,,,1,0,1,0,,,,,30,0,30,0,928.3428209000012,,,,,,,,,,,,,,,,,,,,,,,,,,,,,,,,,,,,,,,,,,,,,,,,,,,,,,,,,Schwimmen,4.1057,928.3271317000017,928.3277735000011,928.327886000001,928.3428209000012,932.4590680000001,932.4434433000006,932.4473092000007,932.4590680000001,932.4590680000001,932.4590680000001,932.4590680000001,934.4433310000004,3,0.919053100000383,0.2338618999983737,None,934.459130700001,934.459130700001,934.459130700001,934.459130700001,,,,,,,,,,,,,,,,,,,,,4954,1,2025-07-09_19h00.19.535,sm,2024.2.4,59.98908198687408,2025-07-09 19h00.47.156572 +0200,
31,0,31,,,,,,space,4.315143600000738,None,None,2,0.9655686999994941,0.2911619000005885,None,0,0,0,0,,,,,1,0,1,0,,,,,31,0,31,0,934.459130700001,,,,,,,,,,,,,,,,,,,,,,,,,,,,,,,,,,,,,,,,,,,,,,,,,,,,,,,,,Schaf,2.0196,934.4438088000006,934.4444597000002,934.4445581,934.459130700001,936.4920478000004,936.4768220000005,936.4830372000015,936.4920478000004,936.4920478000004,936.4920478000004,936.4920478000004,938.4767239000012,2,0.9655686999994941,0.2911619000005885,None,938.4921211000001,938.4921211000001,938.4921211000001,938.4921211000001,,,,,,,,,,,,,,,,,,,,,4954,1,2025-07-09_19h00.19.535,sm,2024.2.4,59.98908198687408,2025-07-09 19h00.47.156572 +0200,
32,0,32,,,,,,space,4.315143600000738,None,None,2,0.7224928000014188,0.28922009999951115,None,0,0,0,0,,,,,1,0,1,0,,,,,32,0,32,0,938.4921211000001,,,,,,,,,,,,,,,,,,,,,,,,,,,,,,,,,,,,,,,,,,,,,,,,,,,,,,,,,Eule,2.3307,938.4772324000005,938.4777553000004,938.4778618,938.4921211000001,940.8251693000002,940.8100626000014,940.8137856000012,940.8251693000002,940.8251693000002,940.8251693000002,940.8251693000002,942.8096022000009,2,0.7224928000014188,0.28922009999951115,None,942.8257896000014,942.8257896000014,942.8257896000014,942.8257896000014,,,,,,,,,,,,,,,,,,,,,4954,1,2025-07-09_19h00.19.535,sm,2024.2.4,59.98908198687408,2025-07-09 19h00.47.156572 +0200,
33,0,33,,,,,,space,4.315143600000738,None,None,3,0.8808188000002701,0.28223049999905925,None,0,0,0,0,,,,,1,0,1,0,,,,,33,0,33,0,942.8257896000014,,,,,,,,,,,,,,,,,,,,,,,,,,,,,,,,,,,,,,,,,,,,,,,,,,,,,,,,,Kino,3.0866,942.8101177000008,942.8106334000004,942.810736200001,942.8257896000014,945.9250561000008,945.9096458000004,945.9131095000012,945.9250561000008,945.9250561000008,945.9250561000008,945.9250561000008,947.9094821000017,3,0.8808188000002701,0.28223049999905925,None,947.9251108000008,947.9251108000008,947.9251108000008,947.9251108000008,,,,,,,,,,,,,,,,,,,,,4954,1,2025-07-09_19h00.19.535,sm,2024.2.4,59.98908198687408,2025-07-09 19h00.47.156572 +0200,
34,0,34,,,,,,space,4.315143600000738,None,None,3,0.7788824999988719,0.32133130000147503,None,0,0,0,0,,,,,1,0,1,0,,,,,34,0,34,0,947.9251108000008,,,,,,,,,,,,,,,,,,,,,,,,,,,,,,,,,,,,,,,,,,,,,,,,,,,,,,,,,Zigarette,5.0544,947.9099879000005,947.9105079000001,947.9106122000012,947.9251108000008,952.9912177000006,952.9757117000008,952.9799146000005,952.9912177000006,952.9912177000006,952.9912177000006,952.9912177000006,954.9755195000016,3,0.7788824999988719,0.32133130000147503,None,954.9911951000013,954.9911951000013,954.9911951000013,954.9911951000013,,,,,,,,,,,,,,,,,,,,,4954,1,2025-07-09_19h00.19.535,sm,2024.2.4,59.98908198687408,2025-07-09 19h00.47.156572 +0200,
35,0,35,,,,,,space,4.315143600000738,None,None,3,0.83902339999986,0.2595627999999124,None,0,0,0,0,,,,,1,0,1,0,,,,,35,0,35,0,954.9911951000013,,,,,,,,,,,,,,,,,,,,,,,,,,,,,,,,,,,,,,,,,,,,,,,,,,,,,,,,,Glück,2.5691,954.9759943000008,954.9766194000003,954.9767154000001,954.9911951000013,957.5742888000004,957.5585186000008,957.5621874000008,957.5742888000004,957.5742888000004,957.5742888000004,957.5742888000004,959.5585816000003,3,0.83902339999986,0.2595627999999124,None,959.5743242000008,959.5743242000008,959.5743242000008,959.5743242000008,,,,,,,,,,,,,,,,,,,,,4954,1,2025-07-09_19h00.19.535,sm,2024.2.4,59.98908198687408,2025-07-09 19h00.47.156572 +0200,
36,0,36,,,,,,space,4.315143600000738,None,None,3,0.8113642999996955,0.3081326999999874,None,0,0,0,0,,,,,1,0,1,0,,,,,36,0,36,0,959.5743242000008,,,,,,,,,,,,,,,,,,,,,,,,,,,,,,,,,,,,,,,,,,,,,,,,,,,,,,,,,Lava,2.4587,959.5590981000005,959.5596157,959.5597181000012,959.5743242000008,962.0407196000015,962.025190100001,962.0289106,962.0407196000015,962.0407196000015,962.0407196000015,962.0407196000015,964.0250171000007,3,0.8113642999996955,0.3081326999999874,None,964.0406146000005,964.0406146000005,964.0406146000005,964.0406146000005,,,,,,,,,,,,,,,,,,,,,4954,1,2025-07-09_19h00.19.535,sm,2024.2.4,59.98908198687408,2025-07-09 19h00.47.156572 +0200,
37,0,37,,,,,,space,4.315143600000738,None,None,3,0.8656210000008286,0.2722147999993467,None,0,0,0,0,,,,,1,0,1,0,,,,,37,0,37,0,964.0406146000005,,,,,,,,,,,,,,,,,,,,,,,,,,,,,,,,,,,,,,,,,,,,,,,,,,,,,,,,,Winter,3.391,964.0255449000015,964.0261805000009,964.0262868000009,964.0406146000005,967.4404302000003,967.4249970000001,967.429009200001,967.4404302000003,967.4404302000003,967.4404302000003,967.4404302000003,969.4247403000008,3,0.8656210000008286,0.2722147999993467,None,969.4408110000004,969.4408110000004,969.4408110000004,969.4408110000004,,,,,,,,,,,,,,,,,,,,,4954,1,2025-07-09_19h00.19.535,sm,2024.2.4,59.98908198687408,2025-07-09 19h00.47.156572 +0200,
38,0,38,,,,,,space,4.315143600000738,None,None,3,0.9373536999992211,0.23928650000016205,None,0,0,0,0,,,,,1,0,1,0,,,,,38,0,38,0,969.4408110000004,,,,,,,,,,,,,,,,,,,,,,,,,,,,,,,,,,,,,,,,,,,,,,,,,,,,,,,,,Schulter,2.6406,969.4252484000008,969.4258879000008,969.4259903000002,969.4408110000004,972.0902488000011,972.0743519000007,972.0786582000001,972.0902488000011,972.0902488000011,972.0902488000011,972.0902488000011,974.0744468000012,3,0.9373536999992211,0.23928650000016205,None,974.0900178000011,974.0900178000011,974.0900178000011,974.0900178000011,,,,,,,,,,,,,,,,,,,,,4954,1,2025-07-09_19h00.19.535,sm,2024.2.4,59.98908198687408,2025-07-09 19h00.47.156572 +0200,
39,0,39,,,,,,space,4.315143600000738,None,None,3,1.1043263999999908,0.27458040000055917,None,0,0,0,0,,,,,1,0,1,0,,,,,39,0,39,0,974.0900178000011,,,,,,,,,,,,,,,,,,,,,,,,,,,,,,,,,,,,,,,,,,,,,,,,,,,,,,,,,Zimt,2.178,974.0749532000009,974.075599400001,974.0757012000013,974.0900178000011,976.2731353000017,976.2575848000015,976.2606173000004,976.2731353000017,976.2731353000017,976.2731353000017,976.2731353000017,978.2576497000009,3,1.1043263999999908,0.27458040000055917,None,978.2732262000009,978.2732262000009,978.2732262000009,978.2732262000009,,,,,,,,,,,,,,,,,,,,,4954,1,2025-07-09_19h00.19.535,sm,2024.2.4,59.98908198687408,2025-07-09 19h00.47.156572 +0200,
40,0,40,,,,,,space,4.315143600000738,None,None,3,1.0436205999994854,0.22997079999913694,None,0,0,0,0,,,,,1,0,1,0,,,,,40,0,40,0,978.2732262000009,,,,,,,,,,,,,,,,,,,,,,,,,,,,,,,,,,,,,,,,,,,,,,,,,,,,,,,,,Nase,3.9283,978.2581588000012,978.2588114000009,978.258914,978.2732262000009,982.2064427000005,982.1904060000015,982.1934836,982.2064427000005,982.2064427000005,982.2064427000005,982.2064427000005,984.1907977999999,3,1.0436205999994854,0.22997079999913694,None,984.2063515000009,984.2063515000009,984.2063515000009,984.2063515000009,,,,,,,,,,,,,,,,,,,,,4954,1,2025-07-09_19h00.19.535,sm,2024.2.4,59.98908198687408,2025-07-09 19h00.47.156572 +0200,
41,0,41,,,,,,space,4.315143600000738,None,None,3,0.7650628000010329,0.26068800000030024,None,0,0,0,0,,,,,1,0,1,0,,,,,41,0,41,0,984.2063515000009,,,,,,,,,,,,,,,,,,,,,,,,,,,,,,,,,,,,,,,,,,,,,,,,,,,,,,,,,Kamera,2.8201,984.1913187000009,984.1919985000004,984.1921114000015,984.2063515000009,987.0392878000002,987.0236276000014,987.0276296000011,987.0392878000002,987.0392878000002,987.0392878000002,987.0392878000002,989.0236983000013,3,0.7650628000010329,0.26068800000030024,None,989.0392127000014,989.0392127000014,989.0392127000014,989.0392127000014,,,,,,,,,,,,,,,,,,,,,4954,1,2025-07-09_19h00.19.535,sm,2024.2.4,59.98908198687408,2025-07-09 19h00.47.156572 +0200,
42,0,42,,,,,,space,4.315143600000738,None,None,3,0.9638418000013189,0.24290219999966212,None,0,0,0,0,,,,,1,0,1,0,,,,,42,0,42,0,989.0392127000014,,,,,,,,,,,,,,,,,,,,,,,,,,,,,,,,,,,,,,,,,,,,,,,,,,,,,,,,,Hose,2.3237,989.0241801000011,989.0246712000007,989.0247681000001,989.0392127000014,991.3721589000015,991.3567010000006,991.3604490000016,991.3721589000015,991.3721589000015,991.3721589000015,991.3721589000015,993.356766500001,3,0.9638418000013189,0.24290219999966212,None,993.3727996000016,993.3727996000016,993.3727996000016,993.3727996000016,,,,,,,,,,,,,,,,,,,,,4954,1,2025-07-09_19h00.19.535,sm,2024.2.4,59.98908198687408,2025-07-09 19h00.47.156572 +0200,
43,0,43,,,,,,space,4.315143600000738,None,None,3,0.801628699999128,0.229774900000848,None,0,0,0,0,,,,,1,0,1,0,,,,,43,0,43,0,993.3727996000016,,,,,,,,,,,,,,,,,,,,,,,,,,,,,,,,,,,,,,,,,,,,,,,,,,,,,,,,,Auto,2.2556,993.3572840000015,993.3578070000003,993.3579125000015,993.3727996000016,995.6386755000003,995.6235792000007,995.6271748000017,995.6386755000003,995.6386755000003,995.6386755000003,995.6386755000003,997.6230020000003,3,0.801628699999128,0.229774900000848,None,997.6386380000004,997.6386380000004,997.6386380000004,997.6386380000004,,,,,,,,,,,,,,,,,,,,,4954,1,2025-07-09_19h00.19.535,sm,2024.2.4,59.98908198687408,2025-07-09 19h00.47.156572 +0200,
44,0,44,,,,,,space,4.315143600000738,None,None,3,0.6883235000004788,0.24499540000033448,None,0,0,0,0,,,,,1,0,1,0,,,,,44,0,44,0,997.6386380000004,,,,,,,,,,,,,,,,,,,,,,,,,,,,,,,,,,,,,,,,,,,,,,,,,,,,,,,,,Teller,3.067,997.6234515000015,997.6240201,997.6241145000004,997.6386380000004,1000.7051484000003,1000.6898112000017,1000.6940210000012,1000.7051484000003,1000.7051484000003,1000.7051484000003,1000.7051484000003,1002.6900353000001,3,0.6883235000004788,0.24499540000033448,None,1002.7050705000001,1002.7050705000001,1002.7050705000001,1002.7050705000001,,,,,,,,,,,,,,,,,,,,,4954,1,2025-07-09_19h00.19.535,sm,2024.2.4,59.98908198687408,2025-07-09 19h00.47.156572 +0200,
45,0,45,,,,,,space,4.315143600000738,None,None,3,0.8977820000000065,0.24030510000011418,None,0,0,0,0,,,,,1,0,1,0,,,,,45,0,45,0,1002.7050705000001,,,,,,,,,,,,,,,,,,,,,,,,,,,,,,,,,,,,,,,,,,,,,,,,,,,,,,,,,Waschbecken,2.1831,1002.6905473000006,1002.6910697000003,1002.6911786000001,1002.7050705000001,1004.8879115,1004.8722435,1004.8765682000012,1004.8879115,1004.8879115,1004.8879115,1004.8879115,1006.8725502000016,3,0.8977820000000065,0.24030510000011418,None,1006.8881754000013,1006.8881754000013,1006.8881754000013,1006.8881754000013,,,,,,,,,,,,,,,,,,,,,4954,1,2025-07-09_19h00.19.535,sm,2024.2.4,59.98908198687408,2025-07-09 19h00.47.156572 +0200,
46,0,46,,,,,,space,4.315143600000738,None,None,3,0.9138335000006919,0.23340959999950428,None,0,0,0,0,,,,,1,0,1,0,,,,,46,0,46,0,1006.8881754000013,,,,,,,,,,,,,,,,,,,,,,,,,,,,,,,,,,,,,,,,,,,,,,,,,,,,,,,,,Brille,2.218,1006.8730598000002,1006.8736809000002,1006.8737846000004,1006.8881754000013,1009.1212300000007,1009.1054708000011,1009.1088517000007,1009.1212300000007,1009.1212300000007,1009.1212300000007,1009.1212300000007,1011.1055933000007,3,0.9138335000006919,0.23340959999950428,None,1011.1212669000015,1011.1212669000015,1011.1212669000015,1011.1212669000015,,,,,,,,,,,,,,,,,,,,,4954,1,2025-07-09_19h00.19.535,sm,2024.2.4,59.98908198687408,2025-07-09 19h00.47.156572 +0200,
47,0,47,,,,,,space,4.315143600000738,None,None,3,0.6104686000016954,0.2685247999997955,None,0,0,0,0,,,,,1,0,1,0,,,,,47,0,47,0,1011.1212669000015,,,,,,,,,,,,,,,,,,,,,,,,,,,,,,,,,,,,,,,,,,,,,,,,,,,,,,,,,Statue,4.8014,1011.106102400001,1011.1066058000015,1011.1067147000012,1011.1212669000015,1015.9373718000006,1015.9218117,1015.9253326000016,1015.9373718000006,1015.9373718000006,1015.9373718000006,1015.9373718000006,1017.9219131000009,3,0.6104686000016954,0.2685247999997955,None,1017.9375212000014,1017.9375212000014,1017.9375212000014,1017.9375212000014,,,,,,,,,,,,,,,,,,,,,4954,1,2025-07-09_19h00.19.535,sm,2024.2.4,59.98908198687408,2025-07-09 19h00.47.156572 +0200,
48,0,48,,,,,,space,4.315143600000738,None,None,3,0.9450544000010268,0.25399149999975634,None,0,0,0,0,,,,,1,0,1,0,,,,,48,0,48,0,1017.9375212000014,,,,,,,,,,,,,,,,,,,,,,,,,,,,,,,,,,,,,,,,,,,,,,,,,,,,,,,,,Papier,2.2763,1017.9224278000002,1017.9229341000009,1017.9230365000003,1017.9375212000014,1020.2207419000006,1020.2050250000011,1020.2090242000013,1020.2207419000006,1020.2207419000006,1020.2207419000006,1020.2207419000006,1022.2050395000006,3,0.9450544000010268,0.25399149999975634,None,1022.2205509000014,1022.2205509000014,1022.2205509000014,1022.2205509000014,,,,,,,,,,,,,,,,,,,,,4954,1,2025-07-09_19h00.19.535,sm,2024.2.4,59.98908198687408,2025-07-09 19h00.47.156572 +0200,
49,0,49,,,,,,space,4.315143600000738,None,None,3,0.7462653999991744,0.2639266999995016,None,0,0,0,0,,,,,1,0,1,0,,,,,49,0,49,0,1022.2205509000014,,,,,,,,,,,,,,,,,,,,,,,,,,,,,,,,,,,,,,,,,,,,,,,,,,,,,,,,,Wind,3.6092,1022.2055419000008,1022.2061837000001,1022.2062861000013,1022.2205509000014,1025.8366798000006,1025.8211065000014,1025.8240109000017,1025.8366798000006,1025.8366798000006,1025.8366798000006,1025.8366798000006,1027.8212393000013,3,0.7462653999991744,0.2639266999995016,None,1027.8372162000014,1027.8372162000014,1027.8372162000014,1027.8372162000014,,,,,,,,,,,,,,,,,,,,,4954,1,2025-07-09_19h00.19.535,sm,2024.2.4,59.98908198687408,2025-07-09 19h00.47.156572 +0200,
50,0,50,,,,,,space,4.315143600000738,None,None,3,0.7136387999998988,0.28823129999909725,None,0,0,0,0,,,,,1,0,1,0,,,,,50,0,50,0,1027.8372162000014,,,,,,,,,,,,,,,,,,,,,,,,,,,,,,,,,,,,,,,,,,,,,,,,,,,,,,,,,Lokomotive,2.1163,1027.8216770000017,1027.8221385000015,1027.8222311000009,1027.8372162000014,1029.9534468000002,1029.937727800001,1029.9418583000006,1029.9534468000002,1029.9534468000002,1029.9534468000002,1029.9534468000002,1031.9375333000007,3,0.7136387999998988,0.28823129999909725,None,1031.9532292000004,1031.9532292000004,1031.9532292000004,1031.9532292000004,,,,,,,,,,,,,,,,,,,,,4954,1,2025-07-09_19h00.19.535,sm,2024.2.4,59.98908198687408,2025-07-09 19h00.47.156572 +0200,
51,0,51,,,,,,space,4.315143600000738,None,None,3,0.6257802999989508,0.26965259999997215,None,0,0,0,0,,,,,1,0,1,0,,,,,51,0,51,0,1031.9532292000004,,,,,,,,,,,,,,,,,,,,,,,,,,,,,,,,,,,,,,,,,,,,,,,,,,,,,,,,,Schläger,2.3128,1031.9379833000003,1031.9384674000012,1031.9385623000016,1031.9532292000004,1034.2697786000008,1034.2542779000014,1034.2594741000012,1034.2697786000008,1034.2697786000008,1034.2697786000008,1034.2697786000008,1036.2542644000005,3,0.6257802999989508,0.26965259999997215,None,1036.2698617000005,1036.2698617000005,1036.2698617000005,1036.2698617000005,,,,,,,,,,,,,,,,,,,,,4954,1,2025-07-09_19h00.19.535,sm,2024.2.4,59.98908198687408,2025-07-09 19h00.47.156572 +0200,
52,0,52,,,,,,space,4.315143600000738,None,None,3,0.7765090000011696,0.23149149999881047,None,0,0,0,0,,,,,1,0,1,0,,,,,52,0,52,0,1036.2698617000005,,,,,,,,,,,,,,,,,,,,,,,,,,,,,,,,,,,,,,,,,,,,,,,,,,,,,,,,,Mäher,3.3688,1036.2547727,1036.2554392000002,1036.2555446000006,1036.2698617000005,1039.6525784000005,1039.6371923000006,1039.6408801000016,1039.6525784000005,1039.6525784000005,1039.6525784000005,1039.6525784000005,1041.6373218000008,3,0.7765090000011696,0.23149149999881047,None,1041.6527121000017,1041.6527121000017,1041.6527121000017,1041.6527121000017,,,,,,,,,,,,,,,,,,,,,4954,1,2025-07-09_19h00.19.535,sm,2024.2.4,59.98908198687408,2025-07-09 19h00.47.156572 +0200,
53,0,53,,,,,,space,4.315143600000738,None,None,3,1.0755291000004945,0.23849699999846052,None,0,0,0,0,,,,,1,0,1,0,,,,,53,0,53,0,1041.6527121000017,,,,,,,,,,,,,,,,,,,,,,,,,,,,,,,,,,,,,,,,,,,,,,,,,,,,,,,,,Zeigen,2.9657,1041.637840700001,1041.6383537000002,1041.6384641000004,1041.6527121000017,1044.6193187000008,1044.6034338000009,1044.6073835000007,1044.6193187000008,1044.6193187000008,1044.6193187000008,1044.6193187000008,1046.6032180000002,3,1.0755291000004945,0.23849699999846052,None,1046.6190837000013,1046.6190837000013,1046.6190837000013,1046.6190837000013,,,,,,,,,,,,,,,,,,,,,4954,1,2025-07-09_19h00.19.535,sm,2024.2.4,59.98908198687408,2025-07-09 19h00.47.156572 +0200,
54,0,54,,,,,,space,4.315143600000738,None,None,2,1.048187999998845,0.28523350000068604,None,0,0,0,0,,,,,1,0,1,0,,,,,54,0,54,0,1046.6190837000013,,,,,,,,,,,,,,,,,,,,,,,,,,,,,,,,,,,,,,,,,,,,,,,,,,,,,,,,,Baum,4.9966,1046.6036081000002,1046.6040632000004,1046.6041431000012,1046.6190837000013,1051.6187061,1051.6032974000009,1051.6063994000015,1051.6187061,1051.6187061,1051.6187061,1051.6187061,1053.6033290000014,2,1.048187999998845,0.28523350000068604,None,1053.6192128000002,1053.6192128000002,1053.6192128000002,1053.6192128000002,,,,,,,,,,,,,,,,,,,,,4954,1,2025-07-09_19h00.19.535,sm,2024.2.4,59.98908198687408,2025-07-09 19h00.47.156572 +0200,
55,0,55,,,,,,space,4.315143600000738,None,None,3,0.6799549000006664,0.2872657000007166,None,0,0,0,0,,,,,1,0,1,0,,,,,55,0,55,0,1053.6192128000002,,,,,,,,,,,,,,,,,,,,,,,,,,,,,,,,,,,,,,,,,,,,,,,,,,,,,,,,,Hilfe,2.131,1053.6038548000015,1053.6044988000012,1053.6046037000015,1053.6192128000002,1055.7518765000004,1055.7361953,1055.7397224000015,1055.7518765000004,1055.7518765000004,1055.7518765000004,1055.7518765000004,1057.7364258000016,3,0.6799549000006664,0.2872657000007166,None,1057.7516775000004,1057.7516775000004,1057.7516775000004,1057.7516775000004,,,,,,,,,,,,,,,,,,,,,4954,1,2025-07-09_19h00.19.535,sm,2024.2.4,59.98908198687408,2025-07-09 19h00.47.156572 +0200,
56,0,56,,,,,,space,4.315143600000738,None,None,3,1.7470820999988064,None,None,0,0,0,0,,,,,1,0,1,0,,,,,56,0,56,0,1057.7516775000004,,,,,,,,,,,,,,,,,,,,,,,,,,,,,,,,,,,,,,,,,,,,,,,,,,,,,,,,,Bruder,5.1215,1057.7369430000017,1057.7374981000012,1057.7376031000003,1057.7516775000004,1062.8847720000012,1062.8691364000006,1062.8727767,1062.8847720000012,1062.8847720000012,1062.8847720000012,1062.8847720000012,1064.8693563000015,3,1.7470820999988064,None,None,1064.8849506000006,1064.8849506000006,1064.8849506000006,1064.8849506000006,,,,,,,,,,,,,,,,,,,,,4954,1,2025-07-09_19h00.19.535,sm,2024.2.4,59.98908198687408,2025-07-09 19h00.47.156572 +0200,
57,0,57,,,,,,space,4.315143600000738,None,None,3,0.8830949000002875,0.2615334999991319,None,0,0,0,0,,,,,1,0,1,0,,,,,57,0,57,0,1064.8849506000006,,,,,,,,,,,,,,,,,,,,,,,,,,,,,,,,,,,,,,,,,,,,,,,,,,,,,,,,,Büro,3.9134,1064.8698608000013,1064.870380800001,1064.8704886000014,1064.8849506000006,1068.8010749000005,1068.785542900001,1068.789178000001,1068.8010749000005,1068.8010749000005,1068.8010749000005,1068.8010749000005,1070.785420100001,3,0.8830949000002875,0.2615334999991319,None,1070.8013288000002,1070.8013288000002,1070.8013288000002,1070.8013288000002,,,,,,,,,,,,,,,,,,,,,4954,1,2025-07-09_19h00.19.535,sm,2024.2.4,59.98908198687408,2025-07-09 19h00.47.156572 +0200,
58,0,58,,,,,,space,4.315143600000738,None,None,3,0.860147199999119,0.2493188000007649,None,0,0,0,0,,,,,1,0,1,0,,,,,58,0,58,0,1070.8013288000002,,,,,,,,,,,,,,,,,,,,,,,,,,,,,,,,,,,,,,,,,,,,,,,,,,,,,,,,,Spaghetti,2.8017,1070.7859285000013,1070.7865834000004,1070.7866884000014,1070.8013288000002,1073.617516100001,1073.6021570000012,1073.6072615000012,1073.617516100001,1073.617516100001,1073.617516100001,1073.617516100001,1075.6019948000012,3,0.860147199999119,0.2493188000007649,None,1075.6175514000006,1075.6175514000006,1075.6175514000006,1075.6175514000006,,,,,,,,,,,,,,,,,,,,,4954,1,2025-07-09_19h00.19.535,sm,2024.2.4,59.98908198687408,2025-07-09 19h00.47.156572 +0200,
59,0,59,,,,,,space,4.315143600000738,None,None,3,0.6034729000002699,0.23477169999932812,None,0,0,0,0,,,,,1,0,1,0,,,,,59,0,59,0,1075.6175514000006,,,,,,,,,,,,,,,,,,,,,,,,,,,,,,,,,,,,,,,,,,,,,,,,,,,,,,,,,Skizze,3.8234,1075.6025107000005,1075.6030256000013,1075.6031351000001,1075.6175514000006,1079.4503542000002,1079.4348512000015,1079.4390280000007,1079.4503542000002,1079.4503542000002,1079.4503542000002,1079.4503542000002,1081.434897000001,3,0.6034729000002699,0.23477169999932812,None,1081.4505051000015,1081.4505051000015,1081.4505051000015,1081.4505051000015,,,,,,,,,,,,,,,,,,,,,4954,1,2025-07-09_19h00.19.535,sm,2024.2.4,59.98908198687408,2025-07-09 19h00.47.156572 +0200,
60,0,60,,,,,,space,4.315143600000738,None,None,3,0.7214783999988867,0.3251571000000695,None,0,0,0,0,,,,,1,0,1,0,,,,,60,0,60,0,1081.4505051000015,,,,,,,,,,,,,,,,,,,,,,,,,,,,,,,,,,,,,,,,,,,,,,,,,,,,,,,,,Weihnachten,2.5494,1081.4354071000016,1081.4359190000014,1081.4360246000015,1081.4505051000015,1084.0002100000002,1083.9842417,1083.9877476000001,1084.0002100000002,1084.0002100000002,1084.0002100000002,1084.0002100000002,1085.9846406000015,3,0.7214783999988867,0.3251571000000695,None,1086.0002117000004,1086.0002117000004,1086.0002117000004,1086.0002117000004,,,,,,,,,,,,,,,,,,,,,4954,1,2025-07-09_19h00.19.535,sm,2024.2.4,59.98908198687408,2025-07-09 19h00.47.156572 +0200,
61,0,61,,,,,,space,4.315143600000738,None,None,3,0.8292978999998013,0.2483078999994177,None,0,0,0,0,,,,,1,0,1,0,,,,,61,0,61,0,1086.0002117000004,,,,,,,,,,,,,,,,,,,,,,,,,,,,,,,,,,,,,,,,,,,,,,,,,,,,,,,,,Teleskop,3.6068,1085.9851481000005,1085.9858878000014,1085.9859945000007,1086.0002117000004,1089.6164969000001,1089.6011242000004,1089.6054767000005,1089.6164969000001,1089.6164969000001,1089.6164969000001,1089.6164969000001,1091.6010607000007,3,0.8292978999998013,0.2483078999994177,None,1091.6166267000008,1091.6166267000008,1091.6166267000008,1091.6166267000008,,,,,,,,,,,,,,,,,,,,,4954,1,2025-07-09_19h00.19.535,sm,2024.2.4,59.98908198687408,2025-07-09 19h00.47.156572 +0200,
62,0,62,,,,,,space,4.315143600000738,None,None,3,0.9602103999986866,0.2862607000006392,None,0,0,0,0,,,,,1,0,1,0,,,,,62,0,62,0,1091.6166267000008,,,,,,,,,,,,,,,,,,,,,,,,,,,,,,,,,,,,,,,,,,,,,,,,,,,,,,,,,Bad,2.5507,1091.6015682000016,1091.6021481000007,1091.6022517000001,1091.6166267000008,1094.1665015000017,1094.151129400001,1094.153912400001,1094.1665015000017,1094.1665015000017,1094.1665015000017,1094.1665015000017,1096.1504034000009,3,0.9602103999986866,0.2862607000006392,None,1096.1662155000013,1096.1662155000013,1096.1662155000013,1096.1662155000013,,,,,,,,,,,,,,,,,,,,,4954,1,2025-07-09_19h00.19.535,sm,2024.2.4,59.98908198687408,2025-07-09 19h00.47.156572 +0200,
