thisN,thisTrialN,thisRepN,Cue,Target,Mediator1,Mediator2,iti,scanner_ready_press.keys,scanner_ready_press.rt,scanner_ready_press.duration,skip_trigger.keys,living_nonliving.keys,end_mapping.keys,living_nonliving.rt,living_nonliving.duration,blocks.thisRepN,blocks.thisTrialN,blocks.thisN,blocks.thisIndex,load_and_shuffle.thisRepN,load_and_shuffle.thisTrialN,load_and_shuffle.thisN,load_and_shuffle.thisIndex,runs.thisRepN,runs.thisTrialN,runs.thisN,runs.thisIndex,iti_loading_loop.thisRepN,iti_loading_loop.thisTrialN,iti_loading_loop.thisN,iti_loading_loop.thisIndex,semantic_mapping_run.thisRepN,semantic_mapping_run.thisTrialN,semantic_mapping_run.thisN,semantic_mapping_run.thisIndex,thisRow.t,notes,welcome.started,welcome_text.started,key_resp__welcome.started,welcome.stopped,key_resp__welcome.keys,key_resp__welcome.rt,key_resp__welcome.duration,scout.started,scout_text.started,key_resp.started,scout.stopped,key_resp.keys,key_resp.rt,key_resp.duration,instructions_semantic_mapping1.started,sm_instructions1_text.started,sm_instructions1_key.started,instructions_semantic_mapping1.stopped,sm_instructions1_key.keys,sm_instructions1_key.rt,sm_instructions1_key.duration,instructions_semantic_mapping2.started,sm_instructions2_text.started,sm_instructions2_key.started,instructions_semantic_mapping2.stopped,sm_instructions2_key.keys,sm_instructions2_key.rt,sm_instructions2_key.duration,reset_run.started,reset_run.stopped,shuffle_items.started,shuffle_items.stopped,set_up_runs.started,set_up_runs.stopped,load_iti.started,load_iti.stopped,prep_scanner.started,scanner_ready_press.started,ready_set_text.started,prep_scanner.stopped,runs.scanner_ready_press.keys,runs.scanner_ready_press.rt,runs.scanner_ready_press.duration,wait_for_trigger.started,starting_soon.started,skip_trigger.started,wait_for_trigger.stopped,runs.skip_trigger.keys,blank.started,begin_end_run_cross.started,sound_1.started,sound_1.stopped,sound_2.started,sound_2.stopped,begin_end_run_cross.stopped,blank.stopped,CurrentItem,CurrentITI,set_up_trial.started,set_up_trial.stopped,sm_iti.started,iti_cross.started,iti_cross.stopped,sm_iti.stopped,item.started,living_nonliving.started,end_mapping.started,living_nonliving_text.started,semantic_map_item.started,living_nonliving.stopped,end_mapping.stopped,living_nonliving_text.stopped,semantic_map_item.stopped,item.stopped,semantic_mapping_run.living_nonliving.keys,semantic_mapping_run.end_mapping.keys,semantic_mapping_run.living_nonliving.rt,semantic_mapping_run.living_nonliving.duration,fieldmap.started,fieldmap.stopped,runs.fm_key.keys,task_break.started,feeback_text.started,task_break_text.started,task_break_resp.started,feeback_text.stopped,task_break.stopped,runs.task_break_resp.keys,runs.task_break_resp.rt,runs.task_break_resp.duration,fm_text.started,fm_key.started,runs.fm_key.rt,runs.fm_key.duration,thanks.started,thanks_text.started,thanks_text.stopped,thanks.stopped,PID,MRI,date,expName,psychopyVersion,frameRate,expStart,
,,,,,,,,,,,,,,,,,,,,,,,,,,,,,,,,,,,,,,0.0034908000016002916,0.017872000000352273,0.017872000000352273,120.05295699999988,space,120.01335019999897,None,,,,,,,,,,,,,,,,,,,,,,,,,,,,,,,,,,,,,,,,,,,,,,,,,,,,,,,,,,,,,,,,,,,,,,,,,,,,,,,,,,,,,,,,,,,,6896,1,2025-10-23_20h33.52.531,sm,2024.2.4,59.96850454157337,2025-10-23 20h34.07.122200 +0200,
,,,,,,,,,,,,,,,,,,,,,,,,,,,,,,,,,,,,,,,,,,,,,120.05309879999913,120.06277060000139,120.06277060000139,210.20810300000085,space,90.12808670000231,None,,,,,,,,,,,,,,,,,,,,,,,,,,,,,,,,,,,,,,,,,,,,,,,,,,,,,,,,,,,,,,,,,,,,,,,,,,,,,,,,,,,,,6896,1,2025-10-23_20h33.52.531,sm,2024.2.4,59.96850454157337,2025-10-23 20h34.07.122200 +0200,
,,,,,,,,,,,,,,,,,,,,,,,,,,,,,,,,,,,,,,,,,,,,,,,,,,,,210.20821770000111,210.22281660000226,210.22281660000226,217.75733120000223,2,7.521440000000439,None,,,,,,,,,,,,,,,,,,,,,,,,,,,,,,,,,,,,,,,,,,,,,,,,,,,,,,,,,,,,,,,,,,,,,,,,,,,,,,6896,1,2025-10-23_20h33.52.531,sm,2024.2.4,59.96850454157337,2025-10-23 20h34.07.122200 +0200,
,,,,,,,,,,,,,,,,,,,,,,,,,,,,,,,,,,,,,,,,,,,,,,,,,,,,,,,,,,,217.75744979999945,217.77243950000047,217.77243950000047,239.02320379999946,2,21.249062299997604,None,,,,,,,,,,,,,,,,,,,,,,,,,,,,,,,,,,,,,,,,,,,,,,,,,,,,,,,,,,,,,,,,,,,,,,,6896,1,2025-10-23_20h33.52.531,sm,2024.2.4,59.96850454157337,2025-10-23 20h34.07.122200 +0200,
0,0,0,Rasen,Pflege,Mäher,Gras,2.3517,space,12.858856599999854,None,None,None,None,,,0,0,0,0,0,79,79,77,0,0,0,0,0,79,79,36,0,0,0,0,311.1166283999992,,,,,,,,,,,,,,,,,,,,,,,,,,,,,,239.02413570000135,239.02492859999984,239.09529020000264,239.09554330000174,239.1000731000022,239.10038820000045,239.12938349999968,239.12958010000148,239.13619430000108,239.1410582999997,239.1410582999997,252.00349930000084,space,12.858856599999854,None,252.00363950000246,252.0204694999993,252.0204694999993,299.1006226000027,None,299.1099606000025,299.11737540000104,299.1159856666675,300.32674079999924,309.10050396666725,310.1074154000016,311.1166283999992,311.1012069000026,Lachen,2.3517,311.10264400000233,311.10341640000115,311.1065462000006,311.1166283999992,313.4833040000012,313.46752969999943,313.4710570000025,313.4833040000012,313.4833040000012,313.4833040000012,313.4833040000012,315.4839197000001,315.4839197000001,315.4839197000001,315.4839197000001,315.4679515000025,None,None,,,,,,,,,,,,,,,,,,,,,,,6896,1,2025-10-23_20h33.52.531,sm,2024.2.4,59.96850454157337,2025-10-23 20h34.07.122200 +0200,
1,0,1,,,,,,space,12.858856599999854,None,None,2,None,0.9697075000003679,0.356973799996922,0,0,0,0,,,,,0,0,0,0,,,,,1,0,1,0,315.4839197000001,,,,,,,,,,,,,,,,,,,,,,,,,,,,,,,,,,,,,,,,,,,,,,,,,,,,,,,,,,Zeigen,2.9398,315.4684393000025,315.46900970000206,315.46911700000055,315.4839197000001,318.4327067000013,318.41747509999914,318.4243535000023,318.4327067000013,318.4327067000013,318.4327067000013,318.4327067000013,320.4332469000001,320.4332469000001,320.4332469000001,320.4332469000001,320.4173035999993,2,None,0.9697075000003679,0.356973799996922,,,,,,,,,,,,,,,,,,,,,6896,1,2025-10-23_20h33.52.531,sm,2024.2.4,59.96850454157337,2025-10-23 20h34.07.122200 +0200,
2,0,2,,,,,,space,12.858856599999854,None,None,3,None,1.0584282000017993,0.2188815000008617,0,0,0,0,,,,,0,0,0,0,,,,,2,0,2,0,320.4332469000001,,,,,,,,,,,,,,,,,,,,,,,,,,,,,,,,,,,,,,,,,,,,,,,,,,,,,,,,,,Fakt,3.246,320.41779710000264,320.41844050000145,320.4185490000018,320.4332469000001,323.68263600000137,323.6671564999997,323.67269410000154,323.68263600000137,323.68263600000137,323.68263600000137,323.68263600000137,325.68288870000106,325.68288870000106,325.68288870000106,325.68288870000106,325.6672338999997,3,None,1.0584282000017993,0.2188815000008617,,,,,,,,,,,,,,,,,,,,,6896,1,2025-10-23_20h33.52.531,sm,2024.2.4,59.96850454157337,2025-10-23 20h34.07.122200 +0200,
3,0,3,,,,,,space,12.858856599999854,None,None,3,None,1.819305400000303,None,0,0,0,0,,,,,0,0,0,0,,,,,3,0,3,0,325.68288870000106,,,,,,,,,,,,,,,,,,,,,,,,,,,,,,,,,,,,,,,,,,,,,,,,,,,,,,,,,,Sack,2.9899,325.66775269999926,325.6682918000006,325.66840109999976,325.68288870000106,328.6823454000005,328.6670649000007,328.6702332999994,328.6823454000005,328.6823454000005,328.6823454000005,328.6823454000005,330.6824256,330.6824256,330.6824256,330.6824256,330.66716350000206,3,None,1.819305400000303,None,,,,,,,,,,,,,,,,,,,,,6896,1,2025-10-23_20h33.52.531,sm,2024.2.4,59.96850454157337,2025-10-23 20h34.07.122200 +0200,
4,0,4,,,,,,space,12.858856599999854,None,None,3,None,1.407896400000027,0.20239489999949,0,0,0,0,,,,,0,0,0,0,,,,,4,0,4,0,330.6824256,,,,,,,,,,,,,,,,,,,,,,,,,,,,,,,,,,,,,,,,,,,,,,,,,,,,,,,,,,Golf,3.6011,330.66768140000204,330.66822859999957,330.6683363000011,330.6824256,334.28221660000054,334.2667576999993,334.27022560000114,334.28221660000054,334.28221660000054,334.28221660000054,334.28221660000054,336.28215470000214,336.28215470000214,336.28215470000214,336.28215470000214,336.26665050000156,3,None,1.407896400000027,0.20239489999949,,,,,,,,,,,,,,,,,,,,,6896,1,2025-10-23_20h33.52.531,sm,2024.2.4,59.96850454157337,2025-10-23 20h34.07.122200 +0200,
5,0,5,,,,,,space,12.858856599999854,None,None,2,None,0.926449099999445,0.3184106000007887,0,0,0,0,,,,,0,0,0,0,,,,,5,0,5,0,336.28215470000214,,,,,,,,,,,,,,,,,,,,,,,,,,,,,,,,,,,,,,,,,,,,,,,,,,,,,,,,,,Elephant,2.59,336.2671642999994,336.26767680000194,336.2677898000002,336.28215470000214,338.88231710000036,338.8665132000024,338.87081860000035,338.88231710000036,338.88231710000036,338.88231710000036,338.88231710000036,340.88195629999973,340.88195629999973,340.88195629999973,340.88195629999973,340.86662960000103,2,None,0.926449099999445,0.3184106000007887,,,,,,,,,,,,,,,,,,,,,6896,1,2025-10-23_20h33.52.531,sm,2024.2.4,59.96850454157337,2025-10-23 20h34.07.122200 +0200,
6,0,6,,,,,,space,12.858856599999854,None,None,2,None,0.8137034999999742,0.22632140000132495,0,0,0,0,,,,,0,0,0,0,,,,,6,0,6,0,340.88195629999973,,,,,,,,,,,,,,,,,,,,,,,,,,,,,,,,,,,,,,,,,,,,,,,,,,,,,,,,,,Autorin,2.2697,340.8671537000009,340.86781150000024,340.8679293000023,340.88195629999973,343.1653694000015,343.14961630000107,343.1538916000027,343.1653694000015,343.1653694000015,343.1653694000015,343.1653694000015,345.1651268000023,345.1651268000023,345.1651268000023,345.1651268000023,345.1496681999997,2,None,0.8137034999999742,0.22632140000132495,,,,,,,,,,,,,,,,,,,,,6896,1,2025-10-23_20h33.52.531,sm,2024.2.4,59.96850454157337,2025-10-23 20h34.07.122200 +0200,
7,0,7,,,,,,space,12.858856599999854,None,None,3,None,1.18322889999763,0.32661910000024363,0,0,0,0,,,,,0,0,0,0,,,,,7,0,7,0,345.1651268000023,,,,,,,,,,,,,,,,,,,,,,,,,,,,,,,,,,,,,,,,,,,,,,,,,,,,,,,,,,Sendung,2.7453,345.15020990000266,345.15086789999987,345.15101979999963,345.1651268000023,347.91508220000105,347.8992639999997,347.9033367000011,347.91508220000105,347.91508220000105,347.91508220000105,347.91508220000105,349.915048400002,349.915048400002,349.915048400002,349.915048400002,349.8995141000014,3,None,1.18322889999763,0.32661910000024363,,,,,,,,,,,,,,,,,,,,,6896,1,2025-10-23_20h33.52.531,sm,2024.2.4,59.96850454157337,2025-10-23 20h34.07.122200 +0200,
8,0,8,,,,,,space,12.858856599999854,None,None,3,None,0.8694734999990033,0.19642920000114827,0,0,0,0,,,,,0,0,0,0,,,,,8,0,8,0,349.915048400002,,,,,,,,,,,,,,,,,,,,,,,,,,,,,,,,,,,,,,,,,,,,,,,,,,,,,,,,,,Büro,2.1453,349.9000202999996,349.9005431000005,349.90065040000263,349.915048400002,352.06428869999945,352.04931090000173,352.0535557000003,352.06428869999945,352.06428869999945,352.06428869999945,352.06428869999945,354.06448920000184,354.06448920000184,354.06448920000184,354.06448920000184,354.04910120000204,3,None,0.8694734999990033,0.19642920000114827,,,,,,,,,,,,,,,,,,,,,6896,1,2025-10-23_20h33.52.531,sm,2024.2.4,59.96850454157337,2025-10-23 20h34.07.122200 +0200,
9,0,9,,,,,,space,12.858856599999854,None,None,2,None,0.9764706999994814,0.19050100000094972,0,0,0,0,,,,,0,0,0,0,,,,,9,0,9,0,354.06448920000184,,,,,,,,,,,,,,,,,,,,,,,,,,,,,,,,,,,,,,,,,,,,,,,,,,,,,,,,,,Brise,2.8379,354.0496201999995,354.0501421000008,354.05025340000066,354.06448920000184,356.9139772000017,356.89861329999985,356.90191680000135,356.9139772000017,356.9139772000017,356.9139772000017,356.9139772000017,358.91427530000146,358.91427530000146,358.91427530000146,358.91427530000146,358.89877850000266,2,None,0.9764706999994814,0.19050100000094972,,,,,,,,,,,,,,,,,,,,,6896,1,2025-10-23_20h33.52.531,sm,2024.2.4,59.96850454157337,2025-10-23 20h34.07.122200 +0200,
10,0,10,,,,,,space,12.858856599999854,None,None,3,None,0.834590999998909,0.20619190000070375,0,0,0,0,,,,,0,0,0,0,,,,,10,0,10,0,358.91427530000146,,,,,,,,,,,,,,,,,,,,,,,,,,,,,,,,,,,,,,,,,,,,,,,,,,,,,,,,,,Ecke,2.1239,358.8992908,358.8998234999999,358.8999332000021,358.91427530000146,361.04719450000266,361.03167870000107,361.0350237999992,361.04719450000266,361.04719450000266,361.04719450000266,361.04719450000266,363.0466368000016,363.0466368000016,363.0466368000016,363.0466368000016,363.03124240000034,3,None,0.834590999998909,0.20619190000070375,,,,,,,,,,,,,,,,,,,,,6896,1,2025-10-23_20h33.52.531,sm,2024.2.4,59.96850454157337,2025-10-23 20h34.07.122200 +0200,
11,0,11,,,,,,space,12.858856599999854,None,None,3,None,1.8113393999992695,None,0,0,0,0,,,,,0,0,0,0,,,,,11,0,11,0,363.0466368000016,,,,,,,,,,,,,,,,,,,,,,,,,,,,,,,,,,,,,,,,,,,,,,,,,,,,,,,,,,Knie,2.9402,363.0316292000025,363.03214110000044,363.03222000000096,363.0466368000016,365.9967249000001,365.9800972000012,365.98242980000214,365.9967249000001,365.9967249000001,365.9967249000001,365.9967249000001,367.99584949999917,367.99584949999917,367.99584949999917,367.99584949999917,367.9800436000005,3,None,1.8113393999992695,None,,,,,,,,,,,,,,,,,,,,,6896,1,2025-10-23_20h33.52.531,sm,2024.2.4,59.96850454157337,2025-10-23 20h34.07.122200 +0200,
12,0,12,,,,,,space,12.858856599999854,None,None,3,None,1.6007376000015938,0.1776955999994243,0,0,0,0,,,,,0,0,0,0,,,,,12,0,12,0,367.99584949999917,,,,,,,,,,,,,,,,,,,,,,,,,,,,,,,,,,,,,,,,,,,,,,,,,,,,,,,,,,Bus,2.8861,367.98025509999934,367.9805258000015,367.9805804000025,367.99584949999917,370.89690130000236,370.8815938000007,370.8853540000018,370.89690130000236,370.89690130000236,370.89690130000236,370.89690130000236,372.8969418000015,372.8969418000015,372.8969418000015,372.8969418000015,372.88131200000134,3,None,1.6007376000015938,0.1776955999994243,,,,,,,,,,,,,,,,,,,,,6896,1,2025-10-23_20h33.52.531,sm,2024.2.4,59.96850454157337,2025-10-23 20h34.07.122200 +0200,
13,0,13,,,,,,space,12.858856599999854,None,None,3,None,0.9018509999987145,0.1966048000031151,0,0,0,0,,,,,0,0,0,0,,,,,13,0,13,0,372.8969418000015,,,,,,,,,,,,,,,,,,,,,,,,,,,,,,,,,,,,,,,,,,,,,,,,,,,,,,,,,,Diamant,2.5467,372.88182190000225,372.8823865000013,372.8824932000025,372.8969418000015,375.44636940000055,375.4308821000013,375.4346460000015,375.44636940000055,375.44636940000055,375.44636940000055,375.44636940000055,377.44666080000025,377.44666080000025,377.44666080000025,377.44666080000025,377.43121280000196,3,None,0.9018509999987145,0.1966048000031151,,,,,,,,,,,,,,,,,,,,,6896,1,2025-10-23_20h33.52.531,sm,2024.2.4,59.96850454157337,2025-10-23 20h34.07.122200 +0200,
14,0,14,,,,,,space,12.858856599999854,None,None,3,None,0.9314743999966595,0.16670300000259886,0,0,0,0,,,,,0,0,0,0,,,,,14,0,14,0,377.44666080000025,,,,,,,,,,,,,,,,,,,,,,,,,,,,,,,,,,,,,,,,,,,,,,,,,,,,,,,,,,Ordner,3.3501,377.43172290000075,377.43233610000243,377.43244640000194,377.44666080000025,380.7969919999996,380.78059249999933,380.7869896000011,380.7969919999996,380.7969919999996,380.7969919999996,380.7969919999996,382.79616100000203,382.79616100000203,382.79616100000203,382.79616100000203,382.7806421999994,3,None,0.9314743999966595,0.16670300000259886,,,,,,,,,,,,,,,,,,,,,6896,1,2025-10-23_20h33.52.531,sm,2024.2.4,59.96850454157337,2025-10-23 20h34.07.122200 +0200,
15,0,15,,,,,,space,12.858856599999854,None,None,3,None,1.070414300000266,0.17801569999937783,0,0,0,0,,,,,0,0,0,0,,,,,15,0,15,0,382.79616100000203,,,,,,,,,,,,,,,,,,,,,,,,,,,,,,,,,,,,,,,,,,,,,,,,,,,,,,,,,,Ostern,3.6774,382.78115629999957,382.7816660000026,382.78177420000065,382.79616100000203,386.4796767000007,386.4634933000016,386.4671137000005,386.4796767000007,386.4796767000007,386.4796767000007,386.4796767000007,388.4794395000026,388.4794395000026,388.4794395000026,388.4794395000026,388.46375570000237,3,None,1.070414300000266,0.17801569999937783,,,,,,,,,,,,,,,,,,,,,6896,1,2025-10-23_20h33.52.531,sm,2024.2.4,59.96850454157337,2025-10-23 20h34.07.122200 +0200,
16,0,16,,,,,,space,12.858856599999854,None,None,3,None,1.5987774999994144,0.19836539999960223,0,0,0,0,,,,,0,0,0,0,,,,,16,0,16,0,388.4794395000026,,,,,,,,,,,,,,,,,,,,,,,,,,,,,,,,,,,,,,,,,,,,,,,,,,,,,,,,,,Bluse,2.4818,388.46426900000006,388.4647865000006,388.4648933000026,388.4794395000026,390.96235140000135,390.94662750000134,390.95026979999966,390.96235140000135,390.96235140000135,390.96235140000135,390.96235140000135,392.962254500002,392.962254500002,392.962254500002,392.962254500002,392.9468476000002,3,None,1.5987774999994144,0.19836539999960223,,,,,,,,,,,,,,,,,,,,,6896,1,2025-10-23_20h33.52.531,sm,2024.2.4,59.96850454157337,2025-10-23 20h34.07.122200 +0200,
17,0,17,,,,,,space,12.858856599999854,None,None,2,None,0.9699748000020918,0.19567039999674307,0,0,0,0,,,,,0,0,0,0,,,,,17,0,17,0,392.962254500002,,,,,,,,,,,,,,,,,,,,,,,,,,,,,,,,,,,,,,,,,,,,,,,,,,,,,,,,,,Party,2.6159,392.94735760000185,392.9479109999993,392.94801890000235,392.962254500002,395.57824090000213,395.56313410000075,395.5703194000016,395.57824090000213,395.57824090000213,395.57824090000213,395.57824090000213,397.57877270000245,397.57877270000245,397.57877270000245,397.57877270000245,397.5630851999995,2,None,0.9699748000020918,0.19567039999674307,,,,,,,,,,,,,,,,,,,,,6896,1,2025-10-23_20h33.52.531,sm,2024.2.4,59.96850454157337,2025-10-23 20h34.07.122200 +0200,
18,0,18,,,,,,space,12.858856599999854,None,None,2,None,1.348221199998079,0.1872527000014088,0,0,0,0,,,,,0,0,0,0,,,,,18,0,18,0,397.57877270000245,,,,,,,,,,,,,,,,,,,,,,,,,,,,,,,,,,,,,,,,,,,,,,,,,,,,,,,,,,Arm,2.0317,397.5635942000008,397.56426270000156,397.56436920000124,397.57877270000245,399.6119331000009,399.59642010000243,399.59993340000074,399.6119331000009,399.6119331000009,399.6119331000009,399.6119331000009,401.61188760000005,401.61188760000005,401.61188760000005,401.61188760000005,401.59636460000183,2,None,1.348221199998079,0.1872527000014088,,,,,,,,,,,,,,,,,,,,,6896,1,2025-10-23_20h33.52.531,sm,2024.2.4,59.96850454157337,2025-10-23 20h34.07.122200 +0200,
19,0,19,,,,,,space,12.858856599999854,None,None,3,None,1.7458540000006906,None,0,0,0,0,,,,,0,0,0,0,,,,,19,0,19,0,401.61188760000005,,,,,,,,,,,,,,,,,,,,,,,,,,,,,,,,,,,,,,,,,,,,,,,,,,,,,,,,,,Monument,2.6105,401.59687340000164,401.59746000000086,401.59756840000045,401.61188760000005,404.2282931000009,404.2128625000005,404.21706840000115,404.2282931000009,404.2282931000009,404.2282931000009,404.2282931000009,406.2282171000006,406.2282171000006,406.2282171000006,406.2282171000006,406.21275620000233,3,None,1.7458540000006906,None,,,,,,,,,,,,,,,,,,,,,6896,1,2025-10-23_20h33.52.531,sm,2024.2.4,59.96850454157337,2025-10-23 20h34.07.122200 +0200,
20,0,20,,,,,,space,12.858856599999854,None,None,3,None,1.6979563999993843,0.15276300000186893,0,0,0,0,,,,,0,0,0,0,,,,,20,0,20,0,406.2282171000006,,,,,,,,,,,,,,,,,,,,,,,,,,,,,,,,,,,,,,,,,,,,,,,,,,,,,,,,,,Sitzgurt,2.164,406.2132044000027,406.2138414000001,406.2139418000006,406.2282171000006,408.39440260000265,408.37888170000224,408.38325199999963,408.39440260000265,408.39440260000265,408.39440260000265,408.39440260000265,410.39467370000057,410.39467370000057,410.39467370000057,410.39467370000057,410.3789878000025,3,None,1.6979563999993843,0.15276300000186893,,,,,,,,,,,,,,,,,,,,,6896,1,2025-10-23_20h33.52.531,sm,2024.2.4,59.96850454157337,2025-10-23 20h34.07.122200 +0200,
21,0,21,,,,,,space,12.858856599999854,None,None,2,None,1.2129876999970293,0.17612510000253678,0,0,0,0,,,,,0,0,0,0,,,,,21,0,21,0,410.39467370000057,,,,,,,,,,,,,,,,,,,,,,,,,,,,,,,,,,,,,,,,,,,,,,,,,,,,,,,,,,Service,2.3709,410.37949890000164,410.38009769999917,410.38020550000147,410.39467370000057,412.77768540000034,412.7622575000023,412.76643980000154,412.77768540000034,412.77768540000034,412.77768540000034,412.77768540000034,414.7777136000004,414.7777136000004,414.7777136000004,414.7777136000004,414.7625150999993,2,None,1.2129876999970293,0.17612510000253678,,,,,,,,,,,,,,,,,,,,,6896,1,2025-10-23_20h33.52.531,sm,2024.2.4,59.96850454157337,2025-10-23 20h34.07.122200 +0200,
22,0,22,,,,,,space,12.858856599999854,None,None,3,None,1.815180000001419,None,0,0,0,0,,,,,0,0,0,0,,,,,22,0,22,0,414.7777136000004,,,,,,,,,,,,,,,,,,,,,,,,,,,,,,,,,,,,,,,,,,,,,,,,,,,,,,,,,,Seife,4.5695,414.7630089000013,414.76351179999983,414.76362080000035,414.7777136000004,419.36066610000125,419.3450965000011,419.3491983000022,419.36066610000125,419.36066610000125,419.36066610000125,419.36066610000125,421.3607718000021,421.3607718000021,421.3607718000021,421.3607718000021,421.3449400000027,3,None,1.815180000001419,None,,,,,,,,,,,,,,,,,,,,,6896,1,2025-10-23_20h33.52.531,sm,2024.2.4,59.96850454157337,2025-10-23 20h34.07.122200 +0200,
23,0,23,,,,,,space,12.858856599999854,None,None,2,None,1.4420714000007138,0.17277910000120755,0,0,0,0,,,,,0,0,0,0,,,,,23,0,23,0,421.3607718000021,,,,,,,,,,,,,,,,,,,,,,,,,,,,,,,,,,,,,,,,,,,,,,,,,,,,,,,,,,Vulkan,2.4779,421.34538950000206,421.3459124000001,421.34600879999925,421.3607718000021,423.84353080000074,423.82836250000037,423.8318455000008,423.84353080000074,423.84353080000074,423.84353080000074,423.84353080000074,425.84388780000154,425.84388780000154,425.84388780000154,425.84388780000154,425.8282919000012,2,None,1.4420714000007138,0.17277910000120755,,,,,,,,,,,,,,,,,,,,,6896,1,2025-10-23_20h33.52.531,sm,2024.2.4,59.96850454157337,2025-10-23 20h34.07.122200 +0200,
24,0,24,,,,,,space,12.858856599999854,None,None,3,None,0.989183800000319,0.1774801000028674,0,0,0,0,,,,,0,0,0,0,,,,,24,0,24,0,425.84388780000154,,,,,,,,,,,,,,,,,,,,,,,,,,,,,,,,,,,,,,,,,,,,,,,,,,,,,,,,,,Rebe,2.9946,425.8288042999993,425.8293064999998,425.8294134000025,425.84388780000154,428.8433091000006,428.8278484000002,428.8308240000006,428.8433091000006,428.8433091000006,428.8433091000006,428.8433091000006,430.8435429000019,430.8435429000019,430.8435429000019,430.8435429000019,430.827898800002,3,None,0.989183800000319,0.1774801000028674,,,,,,,,,,,,,,,,,,,,,6896,1,2025-10-23_20h33.52.531,sm,2024.2.4,59.96850454157337,2025-10-23 20h34.07.122200 +0200,
25,0,25,,,,,,space,12.858856599999854,None,None,2,None,0.8741230000014184,0.22134649999861722,0,0,0,0,,,,,0,0,0,0,,,,,25,0,25,0,430.8435429000019,,,,,,,,,,,,,,,,,,,,,,,,,,,,,,,,,,,,,,,,,,,,,,,,,,,,,,,,,,Wurm,2.2079,430.8284084000006,430.82891890000246,430.82902470000045,430.8435429000019,433.05999560000055,433.04438270000173,433.04806400000234,433.05999560000055,433.05999560000055,433.05999560000055,433.05999560000055,435.0601779000026,435.0601779000026,435.0601779000026,435.0601779000026,435.0445032000025,2,None,0.8741230000014184,0.22134649999861722,,,,,,,,,,,,,,,,,,,,,6896,1,2025-10-23_20h33.52.531,sm,2024.2.4,59.96850454157337,2025-10-23 20h34.07.122200 +0200,
26,0,26,,,,,,space,12.858856599999854,None,None,3,None,0.854319599999144,0.2737221999996109,0,0,0,0,,,,,0,0,0,0,,,,,26,0,26,0,435.0601779000026,,,,,,,,,,,,,,,,,,,,,,,,,,,,,,,,,,,,,,,,,,,,,,,,,,,,,,,,,,Waschbecken,2.325,435.0449523999996,435.0454406000026,435.04553410000153,435.0601779000026,437.3929425999995,437.37722660000145,437.3811127000008,437.3929425999995,437.3929425999995,437.3929425999995,437.3929425999995,439.39284469999984,439.39284469999984,439.39284469999984,439.39284469999984,439.3775803000026,3,None,0.854319599999144,0.2737221999996109,,,,,,,,,,,,,,,,,,,,,6896,1,2025-10-23_20h33.52.531,sm,2024.2.4,59.96850454157337,2025-10-23 20h34.07.122200 +0200,
27,0,27,,,,,,space,12.858856599999854,None,None,2,None,0.8632944000019052,0.20550469999943743,0,0,0,0,,,,,0,0,0,0,,,,,27,0,27,0,439.39284469999984,,,,,,,,,,,,,,,,,,,,,,,,,,,,,,,,,,,,,,,,,,,,,,,,,,,,,,,,,,Fahrrad,2.7485,439.37809290000223,439.3786016000013,439.37871409999934,439.39284469999984,442.1428188000027,442.1271799000024,442.1322091000002,442.1428188000027,442.1428188000027,442.1428188000027,442.1428188000027,444.14277109999966,444.14277109999966,444.14277109999966,444.14277109999966,444.1271450000022,2,None,0.8632944000019052,0.20550469999943743,,,,,,,,,,,,,,,,,,,,,6896,1,2025-10-23_20h33.52.531,sm,2024.2.4,59.96850454157337,2025-10-23 20h34.07.122200 +0200,
28,0,28,,,,,,space,12.858856599999854,None,None,2,None,1.4005431000005046,0.18950039999981527,0,0,0,0,,,,,0,0,0,0,,,,,28,0,28,0,444.14277109999966,,,,,,,,,,,,,,,,,,,,,,,,,,,,,,,,,,,,,,,,,,,,,,,,,,,,,,,,,,Moor,2.2461,444.1276641000004,444.12818170000173,444.1282887000016,444.14277109999966,446.3923108000017,446.37697540000227,446.3801717999995,446.3923108000017,446.3923108000017,446.3923108000017,446.3923108000017,448.3926261000015,448.3926261000015,448.3926261000015,448.3926261000015,448.37704289999965,2,None,1.4005431000005046,0.18950039999981527,,,,,,,,,,,,,,,,,,,,,6896,1,2025-10-23_20h33.52.531,sm,2024.2.4,59.96850454157337,2025-10-23 20h34.07.122200 +0200,
29,0,29,,,,,,space,12.858856599999854,None,None,2,None,0.8456469000011566,0.18917850000070757,0,0,0,0,,,,,0,0,0,0,,,,,29,0,29,0,448.3926261000015,,,,,,,,,,,,,,,,,,,,,,,,,,,,,,,,,,,,,,,,,,,,,,,,,,,,,,,,,,Publikum,2.5607,448.3775487999992,448.3781022000003,448.3782100999997,448.3926261000015,450.95878970000194,450.9431070999999,450.9467012999994,450.95878970000194,450.95878970000194,450.95878970000194,450.95878970000194,452.95915199999945,452.95915199999945,452.95915199999945,452.95915199999945,452.9431923000011,2,None,0.8456469000011566,0.18917850000070757,,,,,,,,,,,,,,,,,,,,,6896,1,2025-10-23_20h33.52.531,sm,2024.2.4,59.96850454157337,2025-10-23 20h34.07.122200 +0200,
30,0,30,,,,,,space,12.858856599999854,None,None,3,None,1.2902625999995507,0.20855720000326983,0,0,0,0,,,,,0,0,0,0,,,,,30,0,30,0,452.95915199999945,,,,,,,,,,,,,,,,,,,,,,,,,,,,,,,,,,,,,,,,,,,,,,,,,,,,,,,,,,Karton,3.9275,452.94370379999964,452.944220100002,452.94432860000234,452.95915199999945,456.8918085000005,456.8762158999998,456.8801482000017,456.8918085000005,456.8918085000005,456.8918085000005,456.8918085000005,458.8923214000024,458.8923214000024,458.8923214000024,458.8923214000024,458.87636120000025,3,None,1.2902625999995507,0.20855720000326983,,,,,,,,,,,,,,,,,,,,,6896,1,2025-10-23_20h33.52.531,sm,2024.2.4,59.96850454157337,2025-10-23 20h34.07.122200 +0200,
31,0,31,,,,,,space,12.858856599999854,None,None,2,None,0.9505195999990974,0.18247859999974025,0,0,0,0,,,,,0,0,0,0,,,,,31,0,31,0,458.8923214000024,,,,,,,,,,,,,,,,,,,,,,,,,,,,,,,,,,,,,,,,,,,,,,,,,,,,,,,,,,Trennung,2.1519,458.8769336000005,458.8774479999993,458.87755710000056,458.8923214000024,461.05831410000246,461.0425604000011,461.046037600001,461.05831410000246,461.05831410000246,461.05831410000246,461.05831410000246,463.05828610000026,463.05828610000026,463.05828610000026,463.05828610000026,463.0427421000022,2,None,0.9505195999990974,0.18247859999974025,,,,,,,,,,,,,,,,,,,,,6896,1,2025-10-23_20h33.52.531,sm,2024.2.4,59.96850454157337,2025-10-23 20h34.07.122200 +0200,
32,0,32,,,,,,space,12.858856599999854,None,None,3,None,0.8881536000008055,0.20484969999961322,0,0,0,0,,,,,0,0,0,0,,,,,32,0,32,0,463.05828610000026,,,,,,,,,,,,,,,,,,,,,,,,,,,,,,,,,,,,,,,,,,,,,,,,,,,,,,,,,,Keller,2.674,463.04325860000245,463.04390290000083,463.0440077000021,463.05828610000026,465.74138479999965,465.7262262000004,465.7301391000001,465.74138479999965,465.74138479999965,465.74138479999965,465.74138479999965,467.74148090000017,467.74148090000017,467.74148090000017,467.74148090000017,467.7261585000015,3,None,0.8881536000008055,0.20484969999961322,,,,,,,,,,,,,,,,,,,,,6896,1,2025-10-23_20h33.52.531,sm,2024.2.4,59.96850454157337,2025-10-23 20h34.07.122200 +0200,
33,0,33,,,,,,space,12.858856599999854,None,None,3,None,0.9637079000021913,0.2454061999997066,0,0,0,0,,,,,0,0,0,0,,,,,33,0,33,0,467.74148090000017,,,,,,,,,,,,,,,,,,,,,,,,,,,,,,,,,,,,,,,,,,,,,,,,,,,,,,,,,,Gabel,2.7002,467.72668949999934,467.7272458000007,467.72735680000187,467.74148090000017,470.4412166000002,470.42554440000094,470.42899229999966,470.4412166000002,470.4412166000002,470.4412166000002,470.4412166000002,472.44092459999956,472.44092459999956,472.44092459999956,472.44092459999956,472.4259975999994,3,None,0.9637079000021913,0.2454061999997066,,,,,,,,,,,,,,,,,,,,,6896,1,2025-10-23_20h33.52.531,sm,2024.2.4,59.96850454157337,2025-10-23 20h34.07.122200 +0200,
34,0,34,,,,,,space,12.858856599999854,None,None,2,None,1.0360756999980367,0.17548630000237608,0,0,0,0,,,,,0,0,0,0,,,,,34,0,34,0,472.44092459999956,,,,,,,,,,,,,,,,,,,,,,,,,,,,,,,,,,,,,,,,,,,,,,,,,,,,,,,,,,Pflege,2.2464,472.42651970000225,472.4272224000015,472.4273381999992,472.44092459999956,474.6909196000015,474.67577710000114,474.6805846999996,474.6909196000015,474.6909196000015,474.6909196000015,474.6909196000015,476.690931000001,476.690931000001,476.690931000001,476.690931000001,476.6753234000025,2,None,1.0360756999980367,0.17548630000237608,,,,,,,,,,,,,,,,,,,,,6896,1,2025-10-23_20h33.52.531,sm,2024.2.4,59.96850454157337,2025-10-23 20h34.07.122200 +0200,
35,0,35,,,,,,space,12.858856599999854,None,None,2,None,0.8688547999990988,0.16156069999851752,0,0,0,0,,,,,0,0,0,0,,,,,35,0,35,0,476.690931000001,,,,,,,,,,,,,,,,,,,,,,,,,,,,,,,,,,,,,,,,,,,,,,,,,,,,,,,,,,Kälte,2.1221,476.6758292000013,476.6763501000023,476.67645880000055,476.690931000001,478.8241780999997,478.8087751999992,478.8127863000009,478.8241780999997,478.8241780999997,478.8241780999997,478.8241780999997,480.8240074999994,480.8240074999994,480.8240074999994,480.8240074999994,480.8084090000011,2,None,0.8688547999990988,0.16156069999851752,,,,,,,,,,,,,,,,,,,,,6896,1,2025-10-23_20h33.52.531,sm,2024.2.4,59.96850454157337,2025-10-23 20h34.07.122200 +0200,
36,0,36,,,,,,space,12.858856599999854,None,None,3,None,1.1652669999966747,0.1653935000031197,0,0,0,0,,,,,0,0,0,0,,,,,36,0,36,0,480.8240074999994,,,,,,,,,,,,,,,,,,,,,,,,,,,,,,,,,,,,,,,,,,,,,,,,,,,,,,,,,,Universität,3.867,480.80892680000034,480.8094372000014,480.8095484000005,480.8240074999994,484.6902494999995,484.67470350000076,484.6813939999993,484.6902494999995,484.6902494999995,484.6902494999995,484.6902494999995,486.69030620000194,486.69030620000194,486.69030620000194,486.69030620000194,486.67525860000023,3,None,1.1652669999966747,0.1653935000031197,,,,,,,,,,,,,,,,,,,,,6896,1,2025-10-23_20h33.52.531,sm,2024.2.4,59.96850454157337,2025-10-23 20h34.07.122200 +0200,
37,0,37,,,,,,space,12.858856599999854,None,None,2,None,0.9403636999995797,0.1568985000012617,0,0,0,0,,,,,0,0,0,0,,,,,37,0,37,0,486.69030620000194,,,,,,,,,,,,,,,,,,,,,,,,,,,,,,,,,,,,,,,,,,,,,,,,,,,,,,,,,,Geschmack,3.4292,486.67577320000055,486.6762904000025,486.67639650000274,486.69030620000194,490.1233433000016,490.1078770000022,490.1120540000011,490.1233433000016,490.1233433000016,490.1233433000016,490.1233433000016,492.1234390999998,492.1234390999998,492.1234390999998,492.1234390999998,492.1079709000005,2,None,0.9403636999995797,0.1568985000012617,,,,,,,,,,,,,,,,,,,,,6896,1,2025-10-23_20h33.52.531,sm,2024.2.4,59.96850454157337,2025-10-23 20h34.07.122200 +0200,
38,0,38,,,,,,space,12.858856599999854,None,None,2,None,1.3231812999983958,0.18251710000185994,0,0,0,0,,,,,0,0,0,0,,,,,38,0,38,0,492.1234390999998,,,,,,,,,,,,,,,,,,,,,,,,,,,,,,,,,,,,,,,,,,,,,,,,,,,,,,,,,,Zwerg,5.5539,492.1085082999998,492.10905520000233,492.10917600000175,492.1234390999998,497.68934880000234,497.6738241999992,497.6770037999995,497.68934880000234,497.68934880000234,497.68934880000234,497.68934880000234,499.68945200000235,499.68945200000235,499.68945200000235,499.68945200000235,499.6741398000013,2,None,1.3231812999983958,0.18251710000185994,,,,,,,,,,,,,,,,,,,,,6896,1,2025-10-23_20h33.52.531,sm,2024.2.4,59.96850454157337,2025-10-23 20h34.07.122200 +0200,
39,0,39,,,,,,space,12.858856599999854,None,None,3,None,1.6636807000031695,None,0,0,0,0,,,,,0,0,0,0,,,,,39,0,39,0,499.68945200000235,,,,,,,,,,,,,,,,,,,,,,,,,,,,,,,,,,,,,,,,,,,,,,,,,,,,,,,,,,Gel,3.7553,499.6746536999999,499.6751746000009,499.67531840000083,499.68945200000235,503.4558500999992,503.4403831000018,503.44382659999974,503.4558500999992,503.4558500999992,503.4558500999992,503.4558500999992,505.4559603000016,505.4559603000016,505.4559603000016,505.4559603000016,505.44072249999954,3,None,1.6636807000031695,None,,,,,,,,,,,,,,,,,,,,,6896,1,2025-10-23_20h33.52.531,sm,2024.2.4,59.96850454157337,2025-10-23 20h34.07.122200 +0200,
40,0,40,,,,,,space,12.858856599999854,None,None,2,None,0.7115121999995608,0.17264260000229115,0,0,0,0,,,,,0,0,0,0,,,,,40,0,40,0,505.4559603000016,,,,,,,,,,,,,,,,,,,,,,,,,,,,,,,,,,,,,,,,,,,,,,,,,,,,,,,,,,Theater,2.1219,505.441229,505.44195500000205,505.44206100000156,505.4559603000016,507.5889352000013,507.5736223999993,507.5787115000021,507.5889352000013,507.5889352000013,507.5889352000013,507.5889352000013,509.58920320000107,509.58920320000107,509.58920320000107,509.58920320000107,509.57333909999943,2,None,0.7115121999995608,0.17264260000229115,,,,,,,,,,,,,,,,,,,,,6896,1,2025-10-23_20h33.52.531,sm,2024.2.4,59.96850454157337,2025-10-23 20h34.07.122200 +0200,
41,0,41,,,,,,space,12.858856599999854,None,None,3,None,1.4628656999993837,0.17513350000081118,0,0,0,0,,,,,0,0,0,0,,,,,41,0,41,0,509.58920320000107,,,,,,,,,,,,,,,,,,,,,,,,,,,,,,,,,,,,,,,,,,,,,,,,,,,,,,,,,,Poesie,2.9569,509.5738526000023,509.5743626000003,509.5744670000022,509.58920320000107,512.5553387,512.5397757999999,512.5437998000016,512.5553387,512.5553387,512.5553387,512.5553387,514.555445500002,514.555445500002,514.555445500002,514.555445500002,514.5399137000022,3,None,1.4628656999993837,0.17513350000081118,,,,,,,,,,,,,,,,,,,,,6896,1,2025-10-23_20h33.52.531,sm,2024.2.4,59.96850454157337,2025-10-23 20h34.07.122200 +0200,
42,0,42,,,,,,space,12.858856599999854,None,None,2,None,1.1187002999977267,0.15793820000180858,0,0,0,0,,,,,0,0,0,0,,,,,42,0,42,0,514.555445500002,,,,,,,,,,,,,,,,,,,,,,,,,,,,,,,,,,,,,,,,,,,,,,,,,,,,,,,,,,Spinne,3.3162,514.5404200000012,514.5409947000007,514.5411029999996,514.555445500002,517.8714532000013,517.8561489000022,517.8596158,517.8714532000013,517.8714532000013,517.8714532000013,517.8714532000013,519.8715821000005,519.8715821000005,519.8715821000005,519.8715821000005,519.8562251000003,2,None,1.1187002999977267,0.15793820000180858,,,,,,,,,,,,,,,,,,,,,6896,1,2025-10-23_20h33.52.531,sm,2024.2.4,59.96850454157337,2025-10-23 20h34.07.122200 +0200,
43,0,43,,,,,,space,12.858856599999854,None,None,None,None,,,0,0,0,0,,,,,0,0,0,0,,,,,43,0,43,0,519.8715821000005,,,,,,,,,,,,,,,,,,,,,,,,,,,,,,,,,,,,,,,,,,,,,,,,,,,,,,,,,,Urlaub,4.1435,519.8567414999998,519.8572582000015,519.8573657000015,519.8715821000005,524.0213373000006,524.0060113,524.0100850000017,524.0213373000006,524.0213373000006,524.0213373000006,524.0213373000006,526.0213322000018,526.0213322000018,526.0213322000018,526.0213322000018,526.0058728000004,None,None,,,,,,,,,,,,,,,,,,,,,,,6896,1,2025-10-23_20h33.52.531,sm,2024.2.4,59.96850454157337,2025-10-23 20h34.07.122200 +0200,
44,0,44,,,,,,space,12.858856599999854,None,None,3,None,0.8248443000011321,0.1757339999967371,0,0,0,0,,,,,0,0,0,0,,,,,44,0,44,0,526.0213322000018,,,,,,,,,,,,,,,,,,,,,,,,,,,,,,,,,,,,,,,,,,,,,,,,,,,,,,,,,,Bücher,3.6638,526.006348400002,526.0068476000015,526.0069538000025,526.0213322000018,529.6875505000025,529.6719045000027,529.6752535000014,529.6875505000025,529.6875505000025,529.6875505000025,529.6875505000025,531.6879611000004,531.6879611000004,531.6879611000004,531.6879611000004,531.6720913999998,3,None,0.8248443000011321,0.1757339999967371,,,,,,,,,,,,,,,,,,,,,6896,1,2025-10-23_20h33.52.531,sm,2024.2.4,59.96850454157337,2025-10-23 20h34.07.122200 +0200,
45,0,45,,,,,,space,12.858856599999854,None,None,3,None,0.9017731999992975,0.17976650000127847,0,0,0,0,,,,,0,0,0,0,,,,,45,0,45,0,531.6879611000004,,,,,,,,,,,,,,,,,,,,,,,,,,,,,,,,,,,,,,,,,,,,,,,,,,,,,,,,,,Geschichte,3.0167,531.6725979000003,531.6731078000012,531.6732116000021,531.6879611000004,534.7043410000006,534.6887874999993,534.6932094000003,534.7043410000006,534.7043410000006,534.7043410000006,534.7043410000006,536.7041379000002,536.7041379000002,536.7041379000002,536.7041379000002,536.6884964000019,3,None,0.9017731999992975,0.17976650000127847,,,,,,,,,,,,,,,,,,,,,6896,1,2025-10-23_20h33.52.531,sm,2024.2.4,59.96850454157337,2025-10-23 20h34.07.122200 +0200,
46,0,46,,,,,,space,12.858856599999854,None,None,3,None,0.8270393999991938,0.2010446000022057,0,0,0,0,,,,,0,0,0,0,,,,,46,0,46,0,536.7041379000002,,,,,,,,,,,,,,,,,,,,,,,,,,,,,,,,,,,,,,,,,,,,,,,,,,,,,,,,,,Wohnung,3.5046,536.6890120000025,536.6896305000009,536.6898084999993,536.7041379000002,540.2203426000015,540.2048171999995,540.2092675000022,540.2203426000015,540.2203426000015,540.2203426000015,540.2203426000015,542.2205348000025,542.2205348000025,542.2205348000025,542.2205348000025,542.2050254999995,3,None,0.8270393999991938,0.2010446000022057,,,,,,,,,,,,,,,,,,,,,6896,1,2025-10-23_20h33.52.531,sm,2024.2.4,59.96850454157337,2025-10-23 20h34.07.122200 +0200,
47,0,47,,,,,,space,12.858856599999854,None,None,3,None,0.8444892999978038,0.15465509999921778,0,0,0,0,,,,,0,0,0,0,,,,,47,0,47,0,542.2205348000025,,,,,,,,,,,,,,,,,,,,,,,,,,,,,,,,,,,,,,,,,,,,,,,,,,,,,,,,,,Kartoffel,2.3104,542.2055359000005,542.206055300001,542.206161500002,542.2205348000025,544.5366875,544.5212281000022,544.5252097000011,544.5366875,544.5366875,544.5366875,544.5366875,546.5369090000022,546.5369090000022,546.5369090000022,546.5369090000022,546.521340700001,3,None,0.8444892999978038,0.15465509999921778,,,,,,,,,,,,,,,,,,,,,6896,1,2025-10-23_20h33.52.531,sm,2024.2.4,59.96850454157337,2025-10-23 20h34.07.122200 +0200,
48,0,48,,,,,,space,12.858856599999854,None,None,2,None,1.6520266000006814,0.16277239999908488,0,0,0,0,,,,,0,0,0,0,,,,,48,0,48,0,546.5369090000022,,,,,,,,,,,,,,,,,,,,,,,,,,,,,,,,,,,,,,,,,,,,,,,,,,,,,,,,,,Fliegen,3.4765,546.5218440999997,546.5224364000023,546.5225414000015,546.5369090000022,550.0199423000013,550.0044737000026,550.0088299000017,550.0199423000013,550.0199423000013,550.0199423000013,550.0199423000013,552.0199726999999,552.0199726999999,552.0199726999999,552.0199726999999,552.0042869999997,2,None,1.6520266000006814,0.16277239999908488,,,,,,,,,,,,,,,,,,,,,6896,1,2025-10-23_20h33.52.531,sm,2024.2.4,59.96850454157337,2025-10-23 20h34.07.122200 +0200,
49,0,49,,,,,,space,12.858856599999854,None,None,3,None,1.0704826000001049,0.35208369999963907,0,0,0,0,,,,,0,0,0,0,,,,,49,0,49,0,552.0199726999999,,,,,,,,,,,,,,,,,,,,,,,,,,,,,,,,,,,,,,,,,,,,,,,,,,,,,,,,,,Blatt,2.7006,552.0048038000023,552.0053025000016,552.0054090000012,552.0199726999999,554.7196049000013,554.7040247000004,554.7079756000021,554.7196049000013,554.7196049000013,554.7196049000013,554.7196049000013,556.7197645000015,556.7197645000015,556.7197645000015,556.7197645000015,556.7041557000011,3,None,1.0704826000001049,0.35208369999963907,,,,,,,,,,,,,,,,,,,,,6896,1,2025-10-23_20h33.52.531,sm,2024.2.4,59.96850454157337,2025-10-23 20h34.07.122200 +0200,
50,0,50,,,,,,space,12.858856599999854,None,None,3,None,0.9704473999991023,0.16400739999880898,0,0,0,0,,,,,0,0,0,0,,,,,50,0,50,0,556.7197645000015,,,,,,,,,,,,,,,,,,,,,,,,,,,,,,,,,,,,,,,,,,,,,,,,,,,,,,,,,,Schlüssel,2.6721,556.7046614999999,556.705170600002,556.705275700002,556.7197645000015,559.4025425,559.3872164000022,559.3911257,559.4025425,559.4025425,559.4025425,559.4025425,561.4029507000014,561.4029507000014,561.4029507000014,561.4029507000014,561.3871290000025,3,None,0.9704473999991023,0.16400739999880898,,,,,,,,,,,,,,,,,,,,,6896,1,2025-10-23_20h33.52.531,sm,2024.2.4,59.96850454157337,2025-10-23 20h34.07.122200 +0200,
51,0,51,,,,,,space,12.858856599999854,None,None,2,None,0.7217865999991773,0.19185120000111056,0,0,0,0,,,,,0,0,0,0,,,,,51,0,51,0,561.4029507000014,,,,,,,,,,,,,,,,,,,,,,,,,,,,,,,,,,,,,,,,,,,,,,,,,,,,,,,,,,Eule,2.4355,561.3876415000013,561.3883115999997,561.3884208000018,561.4029507000014,563.8525709999994,563.8370359,563.8405931000016,563.8525709999994,563.8525709999994,563.8525709999994,563.8525709999994,565.8525491,565.8525491,565.8525491,565.8525491,565.8369944000005,2,None,0.7217865999991773,0.19185120000111056,,,,,,,,,,,,,,,,,,,,,6896,1,2025-10-23_20h33.52.531,sm,2024.2.4,59.96850454157337,2025-10-23 20h34.07.122200 +0200,
52,0,52,,,,,,space,12.858856599999854,None,None,2,None,1.004221499999403,0.18311850000100094,0,0,0,0,,,,,0,0,0,0,,,,,52,0,52,0,565.8525491,,,,,,,,,,,,,,,,,,,,,,,,,,,,,,,,,,,,,,,,,,,,,,,,,,,,,,,,,,Dusche,3.3617,565.837513800001,565.8380655000001,565.838169900002,565.8525491,569.2189223999994,569.2035708000003,569.2076611000011,569.2189223999994,569.2189223999994,569.2189223999994,569.2189223999994,571.2188812000022,571.2188812000022,571.2188812000022,571.2188812000022,571.2032333999996,2,None,1.004221499999403,0.18311850000100094,,,,,,,,,,,,,,,,,,,,,6896,1,2025-10-23_20h33.52.531,sm,2024.2.4,59.96850454157337,2025-10-23 20h34.07.122200 +0200,
53,0,53,,,,,,space,12.858856599999854,None,None,3,None,1.0816321999991487,0.16873120000309427,0,0,0,0,,,,,0,0,0,0,,,,,53,0,53,0,571.2188812000022,,,,,,,,,,,,,,,,,,,,,,,,,,,,,,,,,,,,,,,,,,,,,,,,,,,,,,,,,,Medaille,3.4491,571.2037530000016,571.2042656000012,571.2043707000012,571.2188812000022,574.668358400002,574.653226800001,574.6577953000015,574.668358400002,574.668358400002,574.668358400002,574.668358400002,576.6688060000015,576.6688060000015,576.6688060000015,576.6688060000015,576.6526384999997,3,None,1.0816321999991487,0.16873120000309427,,,,,,,,,,,,,,,,,,,,,6896,1,2025-10-23_20h33.52.531,sm,2024.2.4,59.96850454157337,2025-10-23 20h34.07.122200 +0200,
54,0,54,,,,,,space,12.858856599999854,None,None,None,None,,,0,0,0,0,,,,,0,0,0,0,,,,,54,0,54,0,576.6688060000015,,,,,,,,,,,,,,,,,,,,,,,,,,,,,,,,,,,,,,,,,,,,,,,,,,,,,,,,,,Spaghetti,2.0793,576.6530920000005,576.653577000001,576.6536758000002,576.6688060000015,578.7514647000025,578.7359761000007,578.739541400002,578.7514647000025,578.7514647000025,578.7514647000025,578.7514647000025,580.7517036000027,580.7517036000027,580.7517036000027,580.7517036000027,580.7361955000015,None,None,,,,,,,,,,,,,,,,,,,,,,,6896,1,2025-10-23_20h33.52.531,sm,2024.2.4,59.96850454157337,2025-10-23 20h34.07.122200 +0200,
55,0,55,,,,,,space,12.858856599999854,None,None,3,None,0.8002177000016673,0.23039309999876423,0,0,0,0,,,,,0,0,0,0,,,,,55,0,55,0,580.7517036000027,,,,,,,,,,,,,,,,,,,,,,,,,,,,,,,,,,,,,,,,,,,,,,,,,,,,,,,,,,Zähne,3.7157,580.736671300001,580.737368500002,580.7374801000005,580.7517036000027,584.4678128000014,584.4523786999998,584.4557743000005,584.4678128000014,584.4678128000014,584.4678128000014,584.4678128000014,586.4679471000018,586.4679471000018,586.4679471000018,586.4679471000018,586.4525673000026,3,None,0.8002177000016673,0.23039309999876423,,,,,,,,,,,,,,,,,,,,,6896,1,2025-10-23_20h33.52.531,sm,2024.2.4,59.96850454157337,2025-10-23 20h34.07.122200 +0200,
56,0,56,,,,,,space,12.858856599999854,None,None,3,None,1.0094798999998602,0.16757489999872632,0,0,0,0,,,,,0,0,0,0,,,,,56,0,56,0,586.4679471000018,,,,,,,,,,,,,,,,,,,,,,,,,,,,,,,,,,,,,,,,,,,,,,,,,,,,,,,,,,Fuß,3.2167,586.4530758000001,586.453726300002,586.4538319999992,586.4679471000018,589.6841886000002,589.6686215000009,589.6716694000024,589.6841886000002,589.6841886000002,589.6841886000002,589.6841886000002,591.6844385000004,591.6844385000004,591.6844385000004,591.6844385000004,591.6687773000012,3,None,1.0094798999998602,0.16757489999872632,,,,,,,,,,,,,,,,,,,,,6896,1,2025-10-23_20h33.52.531,sm,2024.2.4,59.96850454157337,2025-10-23 20h34.07.122200 +0200,
57,0,57,,,,,,space,12.858856599999854,None,None,2,None,0.8149382999981754,0.20258390000162763,0,0,0,0,,,,,0,0,0,0,,,,,57,0,57,0,591.6844385000004,,,,,,,,,,,,,,,,,,,,,,,,,,,,,,,,,,,,,,,,,,,,,,,,,,,,,,,,,,Besucher,2.9357,591.6692913000006,591.6698094999992,591.669914500002,591.6844385000004,594.6343010000019,594.6185175999999,594.6222529000006,594.6343010000019,594.6343010000019,594.6343010000019,594.6343010000019,596.6342777000027,596.6342777000027,596.6342777000027,596.6342777000027,596.6184207000006,2,None,0.8149382999981754,0.20258390000162763,,,,,,,,,,,,,,,,,,,,,6896,1,2025-10-23_20h33.52.531,sm,2024.2.4,59.96850454157337,2025-10-23 20h34.07.122200 +0200,
58,0,58,,,,,,space,12.858856599999854,None,None,2,None,0.632994300001883,0.21251379999739584,0,0,0,0,,,,,0,0,0,0,,,,,58,0,58,0,596.6342777000027,,,,,,,,,,,,,,,,,,,,,,,,,,,,,,,,,,,,,,,,,,,,,,,,,,,,,,,,,,Spion,3.2549,596.6189328,596.6194467000023,596.6195511000005,596.6342777000027,599.9004330000025,599.8847753000009,599.8887326000004,599.9004330000025,599.9004330000025,599.9004330000025,599.9004330000025,601.9006088000024,601.9006088000024,601.9006088000024,601.9006088000024,601.8849435000011,2,None,0.632994300001883,0.21251379999739584,,,,,,,,,,,,,,,,,,,,,6896,1,2025-10-23_20h33.52.531,sm,2024.2.4,59.96850454157337,2025-10-23 20h34.07.122200 +0200,
59,0,59,,,,,,space,12.858856599999854,None,None,2,None,1.2707126999994216,0.209840700001223,0,0,0,0,,,,,0,0,0,0,,,,,59,0,59,0,601.9006088000024,,,,,,,,,,,,,,,,,,,,,,,,,,,,,,,,,,,,,,,,,,,,,,,,,,,,,,,,,,Anhänger,2.7543,601.8854494000007,601.8861945999997,601.8863003000006,601.9006088000024,604.6664994000021,604.6513177000015,604.6551163000004,604.6664994000021,604.6664994000021,604.6664994000021,604.6664994000021,606.6669048000003,606.6669048000003,606.6669048000003,606.6669048000003,606.6511343999991,2,None,1.2707126999994216,0.209840700001223,,,,,,,,,,,,,,,,,,,,,6896,1,2025-10-23_20h33.52.531,sm,2024.2.4,59.96850454157337,2025-10-23 20h34.07.122200 +0200,
60,0,60,,,,,,space,12.858856599999854,None,None,3,None,1.4044887999989442,0.15001780000238796,0,0,0,0,,,,,0,0,0,0,,,,,60,0,60,0,606.6669048000003,,,,,,,,,,,,,,,,,,,,,,,,,,,,,,,,,,,,,,,,,,,,,,,,,,,,,,,,,,Blätter,2.2074,606.6516143000008,606.6521031000011,606.6522049000014,606.6669048000003,608.8834543000012,608.8673979000014,608.8717147999996,608.8834543000012,608.8834543000012,608.8834543000012,608.8834543000012,610.8833575999997,610.8833575999997,610.8833575999997,610.8833575999997,610.8677491000017,3,None,1.4044887999989442,0.15001780000238796,,,,,,,,,,,,,,,,,,,,,6896,1,2025-10-23_20h33.52.531,sm,2024.2.4,59.96850454157337,2025-10-23 20h34.07.122200 +0200,
61,0,61,,,,,,space,12.858856599999854,None,None,3,None,1.1506961999984924,0.18349339999986114,0,0,0,0,,,,,0,0,0,0,,,,,61,0,61,0,610.8833575999997,,,,,,,,,,,,,,,,,,,,,,,,,,,,,,,,,,,,,,,,,,,,,,,,,,,,,,,,,,Tradition,2.307,610.8682618000021,610.8687812999997,610.8688911000027,610.8833575999997,613.1995309000013,613.1841103000006,613.1884237000013,613.1995309000013,613.1995309000013,613.1995309000013,613.1995309000013,615.2000875000012,615.2000875000012,615.2000875000012,615.2000875000012,615.1840081000009,3,None,1.1506961999984924,0.18349339999986114,,,,,,,,,,,,,,,,,,,,,6896,1,2025-10-23_20h33.52.531,sm,2024.2.4,59.96850454157337,2025-10-23 20h34.07.122200 +0200,
62,0,62,,,,,,space,12.858856599999854,None,None,3,None,0.9917859000015596,0.17351189999681083,0,0,0,0,,,,,0,0,0,0,,,,,62,0,62,0,615.2000875000012,,,,,,,,,,,,,,,,,,,,,,,,,,,,,,,,,,,,,,,,,,,,,,,,,,,,,,,,,,Hammer,2.4375,615.1844918000024,615.1850006999994,615.1850998000009,615.2000875000012,617.6492564,617.6339178000017,617.6405992,617.6492564,617.6492564,617.6492564,617.6492564,619.6495026000011,619.6495026000011,619.6495026000011,619.6495026000011,619.6336050000027,3,None,0.9917859000015596,0.17351189999681083,,,,,,,,,,,,,,,,,,,,,6896,1,2025-10-23_20h33.52.531,sm,2024.2.4,59.96850454157337,2025-10-23 20h34.07.122200 +0200,
63,0,63,,,,,,space,12.858856599999854,None,None,2,None,0.769487499997922,0.1855677999992622,0,0,0,0,,,,,0,0,0,0,,,,,63,0,63,0,619.6495026000011,,,,,,,,,,,,,,,,,,,,,,,,,,,,,,,,,,,,,,,,,,,,,,,,,,,,,,,,,,Monster,2.166,619.6341245000003,619.634773400001,619.6348787999996,619.6495026000011,621.8157652000009,621.8005231999996,621.8047832000011,621.8157652000009,621.8157652000009,621.8157652000009,621.8157652000009,623.8157962000005,623.8157962000005,623.8157962000005,623.8157962000005,623.8003715000013,2,None,0.769487499997922,0.1855677999992622,,,,,,,,,,,,,,,,,,,,,6896,1,2025-10-23_20h33.52.531,sm,2024.2.4,59.96850454157337,2025-10-23 20h34.07.122200 +0200,
64,0,64,,,,,,space,12.858856599999854,None,None,3,None,1.2524647999998706,0.15858099999968545,0,0,0,0,,,,,0,0,0,0,,,,,64,0,64,0,623.8157962000005,,,,,,,,,,,,,,,,,,,,,,,,,,,,,,,,,,,,,,,,,,,,,,,,,,,,,,,,,,Nase,4.0455,623.8008793000008,623.8015364999992,623.8016443000015,623.8157962000005,627.8655230000004,627.8497620000016,627.8527818000002,627.8655230000004,627.8655230000004,627.8655230000004,627.8655230000004,629.8655838000013,629.8655838000013,629.8655838000013,629.8655838000013,629.8498813000006,3,None,1.2524647999998706,0.15858099999968545,,,,,,,,,,,,,,,,,,,,,6896,1,2025-10-23_20h33.52.531,sm,2024.2.4,59.96850454157337,2025-10-23 20h34.07.122200 +0200,
65,0,65,,,,,,space,12.858856599999854,None,None,3,None,1.1990455999984988,0.1784674000009545,0,0,0,0,,,,,0,0,0,0,,,,,65,0,65,0,629.8655838000013,,,,,,,,,,,,,,,,,,,,,,,,,,,,,,,,,,,,,,,,,,,,,,,,,,,,,,,,,,Zapfen,2.3878,629.8503920000003,629.8508970000003,629.8510021000002,629.8655838000013,632.2651917000003,632.2496214000021,632.2532568000024,632.2651917000003,632.2651917000003,632.2651917000003,632.2651917000003,634.2652435000018,634.2652435000018,634.2652435000018,634.2652435000018,634.2496758000016,3,None,1.1990455999984988,0.1784674000009545,,,,,,,,,,,,,,,,,,,,,6896,1,2025-10-23_20h33.52.531,sm,2024.2.4,59.96850454157337,2025-10-23 20h34.07.122200 +0200,
66,0,66,,,,,,space,12.858856599999854,None,None,2,None,1.4195255000013276,0.1855680000007851,0,0,0,0,,,,,0,0,0,0,,,,,66,0,66,0,634.2652435000018,,,,,,,,,,,,,,,,,,,,,,,,,,,,,,,,,,,,,,,,,,,,,,,,,,,,,,,,,,Nebel,4.1858,634.2502119000019,634.2509876000004,634.2511440000017,634.2652435000018,638.4649185000017,638.4493414000026,638.4549867000023,638.4649185000017,638.4649185000017,638.4649185000017,638.4649185000017,640.464757400001,640.464757400001,640.464757400001,640.464757400001,640.4494976000024,2,None,1.4195255000013276,0.1855680000007851,,,,,,,,,,,,,,,,,,,,,6896,1,2025-10-23_20h33.52.531,sm,2024.2.4,59.96850454157337,2025-10-23 20h34.07.122200 +0200,
67,0,67,,,,,,space,12.858856599999854,None,None,3,None,1.2565505999991728,0.20948979999957373,0,0,0,0,,,,,0,0,0,0,,,,,67,0,67,0,640.464757400001,,,,,,,,,,,,,,,,,,,,,,,,,,,,,,,,,,,,,,,,,,,,,,,,,,,,,,,,,,Frieden,2.372,640.4500069999995,640.4507620000004,640.4508701000013,640.464757400001,642.8479717000009,642.8325277000004,642.836616200002,642.8479717000009,642.8479717000009,642.8479717000009,642.8479717000009,644.8480072999992,644.8480072999992,644.8480072999992,644.8480072999992,644.8322057000005,3,None,1.2565505999991728,0.20948979999957373,,,,,,,,,,,,,,,,,,,,,6896,1,2025-10-23_20h33.52.531,sm,2024.2.4,59.96850454157337,2025-10-23 20h34.07.122200 +0200,
68,0,68,,,,,,space,12.858856599999854,None,None,2,None,0.9579787000002398,0.183230899998307,0,0,0,0,,,,,0,0,0,0,,,,,68,0,68,0,644.8480072999992,,,,,,,,,,,,,,,,,,,,,,,,,,,,,,,,,,,,,,,,,,,,,,,,,,,,,,,,,,Rolle,2.6253,644.8326616000013,644.8331608000008,644.8332573000007,644.8480072999992,647.4810926999999,647.4650594000013,647.4683664000004,647.4810926999999,647.4810926999999,647.4810926999999,647.4810926999999,649.4809118000012,649.4809118000012,649.4809118000012,649.4809118000012,649.4656242000019,2,None,0.9579787000002398,0.183230899998307,,,,,,,,,,,,,,,,,,,,,6896,1,2025-10-23_20h33.52.531,sm,2024.2.4,59.96850454157337,2025-10-23 20h34.07.122200 +0200,
69,0,69,,,,,,space,12.858856599999854,None,None,2,None,0.8057283999987703,0.2307327999988047,0,0,0,0,,,,,0,0,0,0,,,,,69,0,69,0,649.4809118000012,,,,,,,,,,,,,,,,,,,,,,,,,,,,,,,,,,,,,,,,,,,,,,,,,,,,,,,,,,Geburtstag,3.8152,649.4661350999995,649.4667903000009,649.4668969000013,649.4809118000012,653.2975067000007,653.2818125000013,653.2861274999996,653.2975067000007,653.2975067000007,653.2975067000007,653.2975067000007,655.2974581000017,655.2974581000017,655.2974581000017,655.2974581000017,655.2819258000018,2,None,0.8057283999987703,0.2307327999988047,,,,,,,,,,,,,,,,,,,,,6896,1,2025-10-23_20h33.52.531,sm,2024.2.4,59.96850454157337,2025-10-23 20h34.07.122200 +0200,
70,0,70,,,,,,space,12.858856599999854,None,None,2,None,0.742374599998584,0.18854650000139372,0,0,0,0,,,,,0,0,0,0,,,,,70,0,70,0,655.2974581000017,,,,,,,,,,,,,,,,,,,,,,,,,,,,,,,,,,,,,,,,,,,,,,,,,,,,,,,,,,Sturm,3.259,655.2824365000015,655.2831789000011,655.2832868000005,655.2974581000017,658.5637112000004,658.5482620000002,658.5522229000017,658.5637112000004,658.5637112000004,658.5637112000004,658.5637112000004,660.5639403000023,660.5639403000023,660.5639403000023,660.5639403000023,660.5486000000019,2,None,0.742374599998584,0.18854650000139372,,,,,,,,,,,,,,,,,,,,,6896,1,2025-10-23_20h33.52.531,sm,2024.2.4,59.96850454157337,2025-10-23 20h34.07.122200 +0200,
71,0,71,,,,,,space,12.858856599999854,None,None,3,None,0.8305602000000363,0.18186229999992065,0,0,0,0,,,,,0,0,0,0,,,,,71,0,71,0,660.5639403000023,,,,,,,,,,,,,,,,,,,,,,,,,,,,,,,,,,,,,,,,,,,,,,,,,,,,,,,,,,Hügel,2.0417,660.5491239000003,660.5496495000007,660.5497596999994,660.5639403000023,662.6136108999999,662.5976942000016,662.6012636000014,662.6136108999999,662.6136108999999,662.6136108999999,662.6136108999999,664.6134980000024,664.6134980000024,664.6134980000024,664.6134980000024,664.5980101999994,3,None,0.8305602000000363,0.18186229999992065,,,,,,,,,,,,,,,,,,,,,6896,1,2025-10-23_20h33.52.531,sm,2024.2.4,59.96850454157337,2025-10-23 20h34.07.122200 +0200,
72,0,72,,,,,,space,12.858856599999854,None,None,3,None,1.0167349000003014,0.2620569999999134,0,0,0,0,,,,,0,0,0,0,,,,,72,0,72,0,664.6134980000024,,,,,,,,,,,,,,,,,,,,,,,,,,,,,,,,,,,,,,,,,,,,,,,,,,,,,,,,,,Bart,5.03,664.5985237999994,664.5990268000023,664.5991348000025,664.6134980000024,669.6462855999998,669.6309093000018,669.6354004000023,669.6462855999998,669.6462855999998,669.6462855999998,669.6462855999998,671.6466464000005,671.6466464000005,671.6466464000005,671.6466464000005,671.6307689999994,3,None,1.0167349000003014,0.2620569999999134,,,,,,,,,,,,,,,,,,,,,6896,1,2025-10-23_20h33.52.531,sm,2024.2.4,59.96850454157337,2025-10-23 20h34.07.122200 +0200,
73,0,73,,,,,,space,12.858856599999854,None,None,None,None,,,0,0,0,0,,,,,0,0,0,0,,,,,73,0,73,0,671.6466464000005,,,,,,,,,,,,,,,,,,,,,,,,,,,,,,,,,,,,,,,,,,,,,,,,,,,,,,,,,,Maske,4.9481,671.6312161999995,671.6316880000013,671.631781600001,671.6466464000005,676.5960113000001,676.5801644999992,676.5835426000012,676.5960113000001,676.5960113000001,676.5960113000001,676.5960113000001,678.5958286999994,678.5958286999994,678.5958286999994,678.5958286999994,678.580586,None,None,,,,,,,,,,,,,,,,,,,,,,,6896,1,2025-10-23_20h33.52.531,sm,2024.2.4,59.96850454157337,2025-10-23 20h34.07.122200 +0200,
74,0,74,,,,,,space,12.858856599999854,None,None,3,None,1.1770792000024812,0.17509079999945243,0,0,0,0,,,,,0,0,0,0,,,,,74,0,74,0,678.5958286999994,,,,,,,,,,,,,,,,,,,,,,,,,,,,,,,,,,,,,,,,,,,,,,,,,,,,,,,,,,Dorn,3.1223,678.5810775000027,678.5815889000005,678.581694200002,678.5958286999994,681.7290513000007,681.7135629000004,681.7171321000023,681.7290513000007,681.7290513000007,681.7290513000007,681.7290513000007,683.7290998000026,683.7290998000026,683.7290998000026,683.7290998000026,683.7134050999994,3,None,1.1770792000024812,0.17509079999945243,,,,,,,,,,,,,,,,,,,,,6896,1,2025-10-23_20h33.52.531,sm,2024.2.4,59.96850454157337,2025-10-23 20h34.07.122200 +0200,
75,0,75,,,,,,space,12.858856599999854,None,None,3,None,0.8472546000011789,0.19490769999902113,0,0,0,0,,,,,0,0,0,0,,,,,75,0,75,0,683.7290998000026,,,,,,,,,,,,,,,,,,,,,,,,,,,,,,,,,,,,,,,,,,,,,,,,,,,,,,,,,,Bild,2.3549,683.7139196999997,683.7144186000005,683.7145299000003,683.7290998000026,686.0957352000005,686.0799055999996,686.0830735000018,686.0957352000005,686.0957352000005,686.0957352000005,686.0957352000005,688.0956044000013,688.0956044000013,688.0956044000013,688.0956044000013,688.0798697999999,3,None,0.8472546000011789,0.19490769999902113,,,,,,,,,,,,,,,,,,,,,6896,1,2025-10-23_20h33.52.531,sm,2024.2.4,59.96850454157337,2025-10-23 20h34.07.122200 +0200,
76,0,76,,,,,,space,12.858856599999854,None,None,3,None,1.0310779999999795,0.1958688999984588,0,0,0,0,,,,,0,0,0,0,,,,,76,0,76,0,688.0956044000013,,,,,,,,,,,,,,,,,,,,,,,,,,,,,,,,,,,,,,,,,,,,,,,,,,,,,,,,,,Eltern,3.4242,688.0803852999998,688.0809064000023,688.081011000002,688.0956044000013,691.5283173000025,691.5126166000009,691.5162756999998,691.5283173000025,691.5283173000025,691.5283173000025,691.5283173000025,693.5285102000016,693.5285102000016,693.5285102000016,693.5285102000016,693.5129546000026,3,None,1.0310779999999795,0.1958688999984588,,,,,,,,,,,,,,,,,,,,,6896,1,2025-10-23_20h33.52.531,sm,2024.2.4,59.96850454157337,2025-10-23 20h34.07.122200 +0200,
77,0,77,,,,,,space,12.858856599999854,None,None,3,None,0.8132800999992469,0.18252030000076047,0,0,0,0,,,,,0,0,0,0,,,,,77,0,77,0,693.5285102000016,,,,,,,,,,,,,,,,,,,,,,,,,,,,,,,,,,,,,,,,,,,,,,,,,,,,,,,,,,Nummer,5.5502,693.5135014000007,693.5140112000008,693.5141180999999,693.5285102000016,699.0782128999999,699.0626950000005,699.0666920000003,699.0782128999999,699.0782128999999,699.0782128999999,699.0782128999999,701.0781105000024,701.0781105000024,701.0781105000024,701.0781105000024,701.0624814000003,3,None,0.8132800999992469,0.18252030000076047,,,,,,,,,,,,,,,,,,,,,6896,1,2025-10-23_20h33.52.531,sm,2024.2.4,59.96850454157337,2025-10-23 20h34.07.122200 +0200,
78,0,78,,,,,,space,12.858856599999854,None,None,2,None,0.7669872999977088,0.1779911000012362,0,0,0,0,,,,,0,0,0,0,,,,,78,0,78,0,701.0781105000024,,,,,,,,,,,,,,,,,,,,,,,,,,,,,,,,,,,,,,,,,,,,,,,,,,,,,,,,,,Skizze,2.8314,701.0630019000018,701.0636565000023,701.0637601000017,701.0781105000024,703.9112486000013,703.8953743999991,703.8988344000027,703.9112486000013,703.9112486000013,703.9112486000013,703.9112486000013,705.9111546000022,705.9111546000022,705.9111546000022,705.9111546000022,705.8953146999993,2,None,0.7669872999977088,0.1779911000012362,,,,,,,,,,,,,,,,,,,,,6896,1,2025-10-23_20h33.52.531,sm,2024.2.4,59.96850454157337,2025-10-23 20h34.07.122200 +0200,
79,0,79,,,,,,space,12.858856599999854,None,None,2,None,0.890200999998342,0.1675232000015967,0,0,0,0,,,,,0,0,0,0,,,,,79,0,79,0,705.9111546000022,,,,,,,,,,,,,,,,,,,,,,,,,,,,,,,,,,,,,,,,,,,,,,,,,,,,,,,,,,Weltraum,2.6645,705.8958230999997,705.8963848000021,705.8964911000003,705.9111546000022,708.5774796000005,708.5618147000023,708.5663998000018,708.5774796000005,708.5774796000005,708.5774796000005,708.5774796000005,710.5898827000019,710.5898827000019,710.5898827000019,710.5898827000019,710.5620147000009,2,None,0.890200999998342,0.1675232000015967,,,,,,,,,,,,,,,,,,,,,6896,1,2025-10-23_20h33.52.531,sm,2024.2.4,59.96850454157337,2025-10-23 20h34.07.122200 +0200,
0,0,0,,,,,2.307,space,1.609184400000231,None,None,3,None,1.6149134000006597,0.17786469999919063,0,0,0,0,,,,,1,0,1,0,0,79,79,77,0,0,0,0,761.2248484000011,,,,,,,,,,,,,,,,,,,,,,,,,,,,,,,,,,,,735.0037804999993,735.0040255999993,735.0102603000014,735.0139462000006,735.0139462000006,736.6278936000017,space,1.609184400000231,None,736.6280461000024,736.6427621000003,736.6427621000003,749.208234400001,None,749.2155989999992,749.2254427000007,749.2236544666669,750.426384800001,759.2080504666667,760.2167251999999,761.2248484000011,761.2090420999994,Rauch,2.307,761.2104780000009,761.2111461000022,761.2112500000003,761.2248484000011,763.5413939000027,763.5258028000026,763.5299521000015,763.5413939000027,763.5413939000027,763.5413939000027,763.5413939000027,765.5411211999999,765.5411211999999,765.5411211999999,765.5411211999999,765.5254478000024,3,None,1.6149134000006597,0.17786469999919063,722.5772467000024,722.5773233,None,722.5860630000025,722.5943480999995,726.5933079000024,726.5933079000024,726.5933079000024,734.9591970000001,2,8.360888699997304,None,,,,,,,,,6896,1,2025-10-23_20h33.52.531,sm,2024.2.4,59.96850454157337,2025-10-23 20h34.07.122200 +0200,
1,0,1,,,,,,space,1.609184400000231,None,None,3,None,1.0342338000009477,0.19189750000077765,0,0,0,0,,,,,1,0,1,0,,,,,1,0,1,0,765.5411211999999,,,,,,,,,,,,,,,,,,,,,,,,,,,,,,,,,,,,,,,,,,,,,,,,,,,,,,,,,,Datei,3.2549,765.5259657000024,765.5264726000023,765.5265789000005,765.5411211999999,768.8074439000011,768.7921391000018,768.7962829000026,768.8074439000011,768.8074439000011,768.8074439000011,768.8074439000011,770.8075499000006,770.8075499000006,770.8075499000006,770.8075499000006,770.7918514000012,3,None,1.0342338000009477,0.19189750000077765,,,,,,,,,,,,,,,,,,,,,6896,1,2025-10-23_20h33.52.531,sm,2024.2.4,59.96850454157337,2025-10-23 20h34.07.122200 +0200,
2,0,2,,,,,,space,1.609184400000231,None,None,2,None,0.7383099000035145,0.3055696999981592,0,0,0,0,,,,,1,0,1,0,,,,,2,0,2,0,770.8075499000006,,,,,,,,,,,,,,,,,,,,,,,,,,,,,,,,,,,,,,,,,,,,,,,,,,,,,,,,,,Farbe,3.867,770.7923627000018,770.7929303000019,770.7930388000023,770.8075499000006,774.6737673999996,774.6579973000007,774.6614088000024,774.6737673999996,774.6737673999996,774.6737673999996,774.6737673999996,776.6738053000008,776.6738053000008,776.6738053000008,776.6738053000008,776.6582632000027,2,None,0.7383099000035145,0.3055696999981592,,,,,,,,,,,,,,,,,,,,,6896,1,2025-10-23_20h33.52.531,sm,2024.2.4,59.96850454157337,2025-10-23 20h34.07.122200 +0200,
3,0,3,,,,,,space,1.609184400000231,None,None,2,None,0.7097998999997799,0.1853889000012714,0,0,0,0,,,,,1,0,1,0,,,,,3,0,3,0,776.6738053000008,,,,,,,,,,,,,,,,,,,,,,,,,,,,,,,,,,,,,,,,,,,,,,,,,,,,,,,,,,Konzert,2.8379,776.6587841,776.6592987000004,776.6594222999993,776.6738053000008,779.5233735000002,779.5080205000013,779.5117754000021,779.5233735000002,779.5233735000002,779.5233735000002,779.5233735000002,781.5234960000016,781.5234960000016,781.5234960000016,781.5234960000016,781.5079384000019,2,None,0.7097998999997799,0.1853889000012714,,,,,,,,,,,,,,,,,,,,,6896,1,2025-10-23_20h33.52.531,sm,2024.2.4,59.96850454157337,2025-10-23 20h34.07.122200 +0200,
4,0,4,,,,,,space,1.609184400000231,None,None,2,None,0.6209780999997747,0.18848050000087824,0,0,0,0,,,,,1,0,1,0,,,,,4,0,4,0,781.5234960000016,,,,,,,,,,,,,,,,,,,,,,,,,,,,,,,,,,,,,,,,,,,,,,,,,,,,,,,,,,Musik,3.1223,781.5084568999991,781.5090017000002,781.5091059000006,781.5234960000016,784.6565513999994,784.6411786000026,784.6461229000015,784.6565513999994,784.6565513999994,784.6565513999994,784.6565513999994,786.6566583000022,786.6566583000022,786.6566583000022,786.6566583000022,786.6409041000006,2,None,0.6209780999997747,0.18848050000087824,,,,,,,,,,,,,,,,,,,,,6896,1,2025-10-23_20h33.52.531,sm,2024.2.4,59.96850454157337,2025-10-23 20h34.07.122200 +0200,
5,0,5,,,,,,space,1.609184400000231,None,None,2,None,0.7049435000008089,0.3069569999970554,0,0,0,0,,,,,1,0,1,0,,,,,5,0,5,0,786.6566583000022,,,,,,,,,,,,,,,,,,,,,,,,,,,,,,,,,,,,,,,,,,,,,,,,,,,,,,,,,,Kamera,3.9275,786.6413644999993,786.641848700001,786.6419438000012,786.6566583000022,790.5892717999996,790.5738926000013,790.5775040000008,790.5892717999996,790.5892717999996,790.5892717999996,790.5892717999996,792.5897480999993,792.5897480999993,792.5897480999993,792.5897480999993,792.574158200001,2,None,0.7049435000008089,0.3069569999970554,,,,,,,,,,,,,,,,,,,,,6896,1,2025-10-23_20h33.52.531,sm,2024.2.4,59.96850454157337,2025-10-23 20h34.07.122200 +0200,
6,0,6,,,,,,space,1.609184400000231,None,None,2,None,1.3208831000010832,0.1781368999982078,0,0,0,0,,,,,1,0,1,0,,,,,6,0,6,0,792.5897480999993,,,,,,,,,,,,,,,,,,,,,,,,,,,,,,,,,,,,,,,,,,,,,,,,,,,,,,,,,,Mäher,2.7002,792.5746682000026,792.5751937999994,792.5752992000016,792.5897480999993,795.2892054000004,795.273616800001,795.2772876000017,795.2892054000004,795.2892054000004,795.2892054000004,795.2892054000004,797.2894321999993,797.2894321999993,797.2894321999993,797.2894321999993,797.2737310000011,2,None,1.3208831000010832,0.1781368999982078,,,,,,,,,,,,,,,,,,,,,6896,1,2025-10-23_20h33.52.531,sm,2024.2.4,59.96850454157337,2025-10-23 20h34.07.122200 +0200,
7,0,7,,,,,,space,1.609184400000231,None,None,2,None,0.693455399999948,0.1778766000024916,0,0,0,0,,,,,1,0,1,0,,,,,7,0,7,0,797.2894321999993,,,,,,,,,,,,,,,,,,,,,,,,,,,,,,,,,,,,,,,,,,,,,,,,,,,,,,,,,,Alligator,2.3549,797.2742443000025,797.2747974000013,797.2749038000002,797.2894321999993,799.6556412999998,799.6400329000026,799.643783200001,799.6556412999998,799.6556412999998,799.6556412999998,799.6556412999998,801.6556955000015,801.6556955000015,801.6556955000015,801.6556955000015,801.6402318,2,None,0.693455399999948,0.1778766000024916,,,,,,,,,,,,,,,,,,,,,6896,1,2025-10-23_20h33.52.531,sm,2024.2.4,59.96850454157337,2025-10-23 20h34.07.122200 +0200,
8,0,8,,,,,,space,1.609184400000231,None,None,3,None,0.7632760000014969,0.15214600000035716,0,0,0,0,,,,,1,0,1,0,,,,,8,0,8,0,801.6556955000015,,,,,,,,,,,,,,,,,,,,,,,,,,,,,,,,,,,,,,,,,,,,,,,,,,,,,,,,,,Garten,2.6253,801.6407438999995,801.6415078999999,801.6416114000021,801.6556955000015,804.2891146000002,804.2733611000003,804.2774336000002,804.2891146000002,804.2891146000002,804.2891146000002,804.2891146000002,806.2890193999992,806.2890193999992,806.2890193999992,806.2890193999992,806.2730292000015,3,None,0.7632760000014969,0.15214600000035716,,,,,,,,,,,,,,,,,,,,,6896,1,2025-10-23_20h33.52.531,sm,2024.2.4,59.96850454157337,2025-10-23 20h34.07.122200 +0200,
9,0,9,,,,,,space,1.609184400000231,None,None,3,None,0.9745192999980645,0.16897349999999278,0,0,0,0,,,,,1,0,1,0,,,,,9,0,9,0,806.2890193999992,,,,,,,,,,,,,,,,,,,,,,,,,,,,,,,,,,,,,,,,,,,,,,,,,,,,,,,,,,Nudeln,2.2461,806.2735466000013,806.2740636000017,806.2741744000014,806.2890193999992,808.5386378000003,808.5230167000009,808.5269485999997,808.5386378000003,808.5386378000003,808.5386378000003,808.5386378000003,810.5384052000009,810.5384052000009,810.5384052000009,810.5384052000009,810.5229505000025,3,None,0.9745192999980645,0.16897349999999278,,,,,,,,,,,,,,,,,,,,,6896,1,2025-10-23_20h33.52.531,sm,2024.2.4,59.96850454157337,2025-10-23 20h34.07.122200 +0200,
10,0,10,,,,,,space,1.609184400000231,None,None,2,None,1.1434489999992365,0.1923547000005783,0,0,0,0,,,,,1,0,1,0,,,,,10,0,10,0,810.5384052000009,,,,,,,,,,,,,,,,,,,,,,,,,,,,,,,,,,,,,,,,,,,,,,,,,,,,,,,,,,Strand,2.7543,810.5234651999999,810.5239815999994,810.5240890999994,810.5384052000009,813.3050275999994,813.2892541000001,813.292665500001,813.3050275999994,813.3050275999994,813.3050275999994,813.3050275999994,815.3049573999997,815.3049573999997,815.3049573999997,815.3049573999997,815.2891722000022,2,None,1.1434489999992365,0.1923547000005783,,,,,,,,,,,,,,,,,,,,,6896,1,2025-10-23_20h33.52.531,sm,2024.2.4,59.96850454157337,2025-10-23 20h34.07.122200 +0200,
11,0,11,,,,,,space,1.609184400000231,None,None,3,None,1.20336739999766,0.16653210000004037,0,0,0,0,,,,,1,0,1,0,,,,,11,0,11,0,815.3049573999997,,,,,,,,,,,,,,,,,,,,,,,,,,,,,,,,,,,,,,,,,,,,,,,,,,,,,,,,,,Fiktion,4.9481,815.2897456999999,815.2902701000021,815.2903879000005,815.3049573999997,820.2547431000021,820.2391382999995,820.2440992000011,820.2547431000021,820.2547431000021,820.2547431000021,820.2547431000021,822.2545917000025,822.2545917000025,822.2545917000025,822.2545917000025,822.2390645000014,3,None,1.20336739999766,0.16653210000004037,,,,,,,,,,,,,,,,,,,,,6896,1,2025-10-23_20h33.52.531,sm,2024.2.4,59.96850454157337,2025-10-23 20h34.07.122200 +0200,
12,0,12,,,,,,space,1.609184400000231,None,None,3,None,0.926917599997978,0.15731400000004214,0,0,0,0,,,,,1,0,1,0,,,,,12,0,12,0,822.2545917000025,,,,,,,,,,,,,,,,,,,,,,,,,,,,,,,,,,,,,,,,,,,,,,,,,,,,,,,,,,Schloss,2.5607,822.2395806000022,822.2401104000019,822.2402170000023,822.2545917000025,824.8209764000021,824.8055486000012,824.8097949000003,824.8209764000021,824.8209764000021,824.8209764000021,824.8209764000021,826.8210266999995,826.8210266999995,826.8210266999995,826.8210266999995,826.8052336000001,3,None,0.926917599997978,0.15731400000004214,,,,,,,,,,,,,,,,,,,,,6896,1,2025-10-23_20h33.52.531,sm,2024.2.4,59.96850454157337,2025-10-23 20h34.07.122200 +0200,
13,0,13,,,,,,space,1.609184400000231,None,None,2,None,0.9919541999988724,0.16855990000112797,0,0,0,0,,,,,1,0,1,0,,,,,13,0,13,0,826.8210266999995,,,,,,,,,,,,,,,,,,,,,,,,,,,,,,,,,,,,,,,,,,,,,,,,,,,,,,,,,,Turnerin,3.6011,826.8057469000014,826.8064878000005,826.8065940000015,826.8210266999995,830.4372293000015,830.4215848999993,830.4253673999992,830.4372293000015,830.4372293000015,830.4372293000015,830.4372293000015,832.4375480000017,832.4375480000017,832.4375480000017,832.4375480000017,832.4217955999993,2,None,0.9919541999988724,0.16855990000112797,,,,,,,,,,,,,,,,,,,,,6896,1,2025-10-23_20h33.52.531,sm,2024.2.4,59.96850454157337,2025-10-23 20h34.07.122200 +0200,
14,0,14,,,,,,space,1.609184400000231,None,None,3,None,0.9311463000012736,0.18487390000154846,0,0,0,0,,,,,1,0,1,0,,,,,14,0,14,0,832.4375480000017,,,,,,,,,,,,,,,,,,,,,,,,,,,,,,,,,,,,,,,,,,,,,,,,,,,,,,,,,,Teller,2.2079,832.4223071000015,832.4228325000004,832.4229382000012,832.4375480000017,834.6534337000012,834.6383610000012,834.6417696000026,834.6534337000012,834.6534337000012,834.6534337000012,834.6534337000012,836.6536102999999,836.6536102999999,836.6536102999999,836.6536102999999,836.6381251999992,3,None,0.9311463000012736,0.18487390000154846,,,,,,,,,,,,,,,,,,,,,6896,1,2025-10-23_20h33.52.531,sm,2024.2.4,59.96850454157337,2025-10-23 20h34.07.122200 +0200,
15,0,15,,,,,,space,1.609184400000231,None,None,3,None,0.9009250000017346,0.19900799999959418,0,0,0,0,,,,,1,0,1,0,,,,,15,0,15,0,836.6536102999999,,,,,,,,,,,,,,,,,,,,,,,,,,,,,,,,,,,,,,,,,,,,,,,,,,,,,,,,,,Gegenwart,3.4765,836.6386354000024,836.6392894000019,836.6393975999999,836.6536102999999,840.1370382999994,840.1213045000004,840.1255741999994,840.1370382999994,840.1370382999994,840.1370382999994,840.1370382999994,842.1368688000002,842.1368688000002,842.1368688000002,842.1368688000002,842.1213129000025,3,None,0.9009250000017346,0.19900799999959418,,,,,,,,,,,,,,,,,,,,,6896,1,2025-10-23_20h33.52.531,sm,2024.2.4,59.96850454157337,2025-10-23 20h34.07.122200 +0200,
16,0,16,,,,,,space,1.609184400000231,None,None,3,None,1.3262461999984225,0.16945420000047307,0,0,0,0,,,,,1,0,1,0,,,,,16,0,16,0,842.1368688000002,,,,,,,,,,,,,,,,,,,,,,,,,,,,,,,,,,,,,,,,,,,,,,,,,,,,,,,,,,Team,5.5502,842.1218193000022,842.1223342000012,842.1224399000021,842.1368688000002,847.6862588000004,847.6707860999995,847.6741529999999,847.6862588000004,847.6862588000004,847.6862588000004,847.6862588000004,849.6862183000012,849.6862183000012,849.6862183000012,849.6862183000012,849.6707462000013,3,None,1.3262461999984225,0.16945420000047307,,,,,,,,,,,,,,,,,,,,,6896,1,2025-10-23_20h33.52.531,sm,2024.2.4,59.96850454157337,2025-10-23 20h34.07.122200 +0200,
17,0,17,,,,,,space,1.609184400000231,None,None,2,None,1.8487156000010145,None,0,0,0,0,,,,,1,0,1,0,,,,,17,0,17,0,849.6862183000012,,,,,,,,,,,,,,,,,,,,,,,,,,,,,,,,,,,,,,,,,,,,,,,,,,,,,,,,,,Komödie,3.4242,849.6712561999993,849.6719057000009,849.6720110999995,849.6862183000012,853.1192770000016,853.103771500002,853.1074542000024,853.1192770000016,853.1192770000016,853.1192770000016,853.1192770000016,855.1193492999992,855.1193492999992,855.1193492999992,855.1193492999992,855.103655400002,2,None,1.8487156000010145,None,,,,,,,,,,,,,,,,,,,,,6896,1,2025-10-23_20h33.52.531,sm,2024.2.4,59.96850454157337,2025-10-23 20h34.07.122200 +0200,
18,0,18,,,,,,space,1.609184400000231,None,None,2,None,1.8192768000008073,0.14060130000143545,0,0,0,0,,,,,1,0,1,0,,,,,18,0,18,0,855.1193492999992,,,,,,,,,,,,,,,,,,,,,,,,,,,,,,,,,,,,,,,,,,,,,,,,,,,,,,,,,,Ball,2.4779,855.1041648999999,855.1047089999993,855.1048140999992,855.1193492999992,857.6022295000002,857.5866733000003,857.5905138000016,857.6022295000002,857.6022295000002,857.6022295000002,857.6022295000002,859.6024991000013,859.6024991000013,859.6024991000013,859.6024991000013,859.5869170000005,2,None,1.8192768000008073,0.14060130000143545,,,,,,,,,,,,,,,,,,,,,6896,1,2025-10-23_20h33.52.531,sm,2024.2.4,59.96850454157337,2025-10-23 20h34.07.122200 +0200,
19,0,19,,,,,,space,1.609184400000231,None,None,3,None,1.6710624000006646,0.14407330000176444,0,0,0,0,,,,,1,0,1,0,,,,,19,0,19,0,859.6024991000013,,,,,,,,,,,,,,,,,,,,,,,,,,,,,,,,,,,,,,,,,,,,,,,,,,,,,,,,,,Bruder,4.1858,859.5874312000014,859.5879998000019,859.5881052000004,859.6024991000013,863.8021595999999,863.7867172000006,863.7909022999993,863.8021595999999,863.8021595999999,863.8021595999999,863.8021595999999,865.8020178000006,865.8020178000006,865.8020178000006,865.8020178000006,865.7864709000023,3,None,1.6710624000006646,0.14407330000176444,,,,,,,,,,,,,,,,,,,,,6896,1,2025-10-23_20h33.52.531,sm,2024.2.4,59.96850454157337,2025-10-23 20h34.07.122200 +0200,
20,0,20,,,,,,space,1.609184400000231,None,None,3,None,0.7490012000016577,0.18843059999926481,0,0,0,0,,,,,1,0,1,0,,,,,20,0,20,0,865.8020178000006,,,,,,,,,,,,,,,,,,,,,,,,,,,,,,,,,,,,,,,,,,,,,,,,,,,,,,,,,,Shampoo,2.0417,865.7869799,865.787632800002,865.7877388000015,865.8020178000006,867.8517756000001,867.8364237999995,867.8401698000016,867.8517756000001,867.8517756000001,867.8517756000001,867.8517756000001,869.8517667000015,869.8517667000015,869.8517667000015,869.8517667000015,869.8363229000024,3,None,0.7490012000016577,0.18843059999926481,,,,,,,,,,,,,,,,,,,,,6896,1,2025-10-23_20h33.52.531,sm,2024.2.4,59.96850454157337,2025-10-23 20h34.07.122200 +0200,
21,0,21,,,,,,space,1.609184400000231,None,None,2,None,0.7322254999999132,0.16347240000322927,0,0,0,0,,,,,1,0,1,0,,,,,21,0,21,0,869.8517667000015,,,,,,,,,,,,,,,,,,,,,,,,,,,,,,,,,,,,,,,,,,,,,,,,,,,,,,,,,,Mund,2.59,869.836831200002,869.8373374000003,869.8374437999992,869.8517667000015,872.4513296000005,872.4359040000018,872.4391501000027,872.4513296000005,872.4513296000005,872.4513296000005,872.4513296000005,874.4514402999994,874.4514402999994,874.4514402999994,874.4514402999994,874.4359944000025,2,None,0.7322254999999132,0.16347240000322927,,,,,,,,,,,,,,,,,,,,,6896,1,2025-10-23_20h33.52.531,sm,2024.2.4,59.96850454157337,2025-10-23 20h34.07.122200 +0200,
22,0,22,,,,,,space,1.609184400000231,None,None,2,None,1.167444599999726,0.17039560000193887,0,0,0,0,,,,,1,0,1,0,,,,,22,0,22,0,874.4514402999994,,,,,,,,,,,,,,,,,,,,,,,,,,,,,,,,,,,,,,,,,,,,,,,,,,,,,,,,,,Riechen,3.3501,874.4365069000014,874.4370272000015,874.4371358999997,874.4514402999994,877.8012261000003,877.7860108999994,877.7898411000024,877.8012261000003,877.8012261000003,877.8012261000003,877.8012261000003,879.8012811000008,879.8012811000008,879.8012811000008,879.8012811000008,879.7857208000023,2,None,1.167444599999726,0.17039560000193887,,,,,,,,,,,,,,,,,,,,,6896,1,2025-10-23_20h33.52.531,sm,2024.2.4,59.96850454157337,2025-10-23 20h34.07.122200 +0200,
23,0,23,,,,,,space,1.609184400000231,None,None,3,None,0.7154438999968988,0.18526380000184872,0,0,0,0,,,,,1,0,1,0,,,,,23,0,23,0,879.8012811000008,,,,,,,,,,,,,,,,,,,,,,,,,,,,,,,,,,,,,,,,,,,,,,,,,,,,,,,,,,Tee,2.2464,879.7862290000012,879.7868025999996,879.7869081999997,879.8012811000008,882.0511626000007,882.0355096000021,882.0390373000009,882.0511626000007,882.0511626000007,882.0511626000007,882.0511626000007,884.0509851000024,884.0509851000024,884.0509851000024,884.0509851000024,884.0354269000018,3,None,0.7154438999968988,0.18526380000184872,,,,,,,,,,,,,,,,,,,,,6896,1,2025-10-23_20h33.52.531,sm,2024.2.4,59.96850454157337,2025-10-23 20h34.07.122200 +0200,
24,0,24,,,,,,space,1.609184400000231,None,None,3,None,0.8491422999977658,0.18585240000174963,0,0,0,0,,,,,1,0,1,0,,,,,24,0,24,0,884.0509851000024,,,,,,,,,,,,,,,,,,,,,,,,,,,,,,,,,,,,,,,,,,,,,,,,,,,,,,,,,,Dip,3.7553,884.0359432000005,884.0364585999996,884.0365659000017,884.0509851000024,887.8172914000024,887.8015092000023,887.8048204000006,887.8172914000024,887.8172914000024,887.8172914000024,887.8172914000024,889.8173552000007,889.8173552000007,889.8173552000007,889.8173552000007,889.801879300001,3,None,0.8491422999977658,0.18585240000174963,,,,,,,,,,,,,,,,,,,,,6896,1,2025-10-23_20h33.52.531,sm,2024.2.4,59.96850454157337,2025-10-23 20h34.07.122200 +0200,
25,0,25,,,,,,space,1.609184400000231,None,None,3,None,0.8738969000005454,0.18549370000255294,0,0,0,0,,,,,1,0,1,0,,,,,25,0,25,0,889.8173552000007,,,,,,,,,,,,,,,,,,,,,,,,,,,,,,,,,,,,,,,,,,,,,,,,,,,,,,,,,,Ringe,3.5046,889.8024408000019,889.8031029000012,889.8032077999997,889.8173552000007,893.3338311000007,893.3180097000004,893.3225136000001,893.3338311000007,893.3338311000007,893.3338311000007,893.3338311000007,895.3335643999999,895.3335643999999,895.3335643999999,895.3335643999999,895.3181385999997,3,None,0.8738969000005454,0.18549370000255294,,,,,,,,,,,,,,,,,,,,,6896,1,2025-10-23_20h33.52.531,sm,2024.2.4,59.96850454157337,2025-10-23 20h34.07.122200 +0200,
26,0,26,,,,,,space,1.609184400000231,None,None,3,None,0.9888342000012926,0.12848719999965397,0,0,0,0,,,,,1,0,1,0,,,,,26,0,26,0,895.3335643999999,,,,,,,,,,,,,,,,,,,,,,,,,,,,,,,,,,,,,,,,,,,,,,,,,,,,,,,,,,Kopf,2.4375,895.3186586000011,895.3191834999998,895.3192916000007,895.3335643999999,897.7833470000005,897.7675378000022,897.7710246999995,897.7833470000005,897.7833470000005,897.7833470000005,897.7833470000005,899.7839408,899.7839408,899.7839408,899.7839408,899.7678183000025,3,None,0.9888342000012926,0.12848719999965397,,,,,,,,,,,,,,,,,,,,,6896,1,2025-10-23_20h33.52.531,sm,2024.2.4,59.96850454157337,2025-10-23 20h34.07.122200 +0200,
27,0,27,,,,,,space,1.609184400000231,None,None,3,None,0.93526650000058,0.17898289999720873,0,0,0,0,,,,,1,0,1,0,,,,,27,0,27,0,899.7839408,,,,,,,,,,,,,,,,,,,,,,,,,,,,,,,,,,,,,,,,,,,,,,,,,,,,,,,,,,Nacht,2.9899,899.7683237000019,899.7689702000025,899.7690748999994,899.7839408,902.7831490999997,902.7673004000026,902.7707932000012,902.7831490999997,902.7831490999997,902.7831490999997,902.7831490999997,904.7833518000007,904.7833518000007,904.7833518000007,904.7833518000007,904.7676802999995,3,None,0.93526650000058,0.17898289999720873,,,,,,,,,,,,,,,,,,,,,6896,1,2025-10-23_20h33.52.531,sm,2024.2.4,59.96850454157337,2025-10-23 20h34.07.122200 +0200,
28,0,28,,,,,,space,1.609184400000231,None,None,2,None,1.550661900000705,0.1754810999991605,0,0,0,0,,,,,1,0,1,0,,,,,28,0,28,0,904.7833518000007,,,,,,,,,,,,,,,,,,,,,,,,,,,,,,,,,,,,,,,,,,,,,,,,,,,,,,,,,,Gespräch,2.9402,904.7681935,904.7687207000017,904.7688251,904.7833518000007,907.7329444000025,907.7172696000016,907.7216289000025,907.7329444000025,907.7329444000025,907.7329444000025,907.7329444000025,909.7329451000005,909.7329451000005,909.7329451000005,909.7329451000005,909.7173519999997,2,None,1.550661900000705,0.1754810999991605,,,,,,,,,,,,,,,,,,,,,6896,1,2025-10-23_20h33.52.531,sm,2024.2.4,59.96850454157337,2025-10-23 20h34.07.122200 +0200,
29,0,29,,,,,,space,1.609184400000231,None,None,3,None,1.0543947000005573,0.1678483999967284,0,0,0,0,,,,,1,0,1,0,,,,,29,0,29,0,909.7329451000005,,,,,,,,,,,,,,,,,,,,,,,,,,,,,,,,,,,,,,,,,,,,,,,,,,,,,,,,,,Schutz,3.4292,909.7178648000008,909.7183923000011,909.7185002000006,909.7329451000005,913.1659252000027,913.1506408000023,913.1546701000007,913.1659252000027,913.1659252000027,913.1659252000027,913.1659252000027,915.1661655999997,915.1661655999997,915.1661655999997,915.1661655999997,915.1502510000028,3,None,1.0543947000005573,0.1678483999967284,,,,,,,,,,,,,,,,,,,,,6896,1,2025-10-23_20h33.52.531,sm,2024.2.4,59.96850454157337,2025-10-23 20h34.07.122200 +0200,
30,0,30,,,,,,space,1.609184400000231,None,None,3,None,1.193529000000126,0.15236910000021453,0,0,0,0,,,,,1,0,1,0,,,,,30,0,30,0,915.1661655999997,,,,,,,,,,,,,,,,,,,,,,,,,,,,,,,,,,,,,,,,,,,,,,,,,,,,,,,,,,Apfel,3.246,915.1507593999995,915.1514086999996,915.1515147999999,915.1661655999997,918.4156049000012,918.3999378000008,918.4035750000003,918.4156049000012,918.4156049000012,918.4156049000012,918.4156049000012,920.4160071000006,920.4160071000006,920.4160071000006,920.4160071000006,920.4005292000002,3,None,1.193529000000126,0.15236910000021453,,,,,,,,,,,,,,,,,,,,,6896,1,2025-10-23_20h33.52.531,sm,2024.2.4,59.96850454157337,2025-10-23 20h34.07.122200 +0200,
31,0,31,,,,,,space,1.609184400000231,None,None,3,None,1.40110050000294,0.20774019999953452,0,0,0,0,,,,,1,0,1,0,,,,,31,0,31,0,920.4160071000006,,,,,,,,,,,,,,,,,,,,,,,,,,,,,,,,,,,,,,,,,,,,,,,,,,,,,,,,,,Sauber,2.7006,920.4010357000006,920.401549000002,920.4016546000021,920.4160071000006,923.115332100002,923.1000292000026,923.1037002000012,923.115332100002,923.115332100002,923.115332100002,923.115332100002,925.1154306000026,925.1154306000026,925.1154306000026,925.1154306000026,925.0999909999991,3,None,1.40110050000294,0.20774019999953452,,,,,,,,,,,,,,,,,,,,,6896,1,2025-10-23_20h33.52.531,sm,2024.2.4,59.96850454157337,2025-10-23 20h34.07.122200 +0200,
32,0,32,,,,,,space,1.609184400000231,None,None,3,None,1.4242629000000306,0.1645435999998881,0,0,0,0,,,,,1,0,1,0,,,,,32,0,32,0,925.1154306000026,,,,,,,,,,,,,,,,,,,,,,,,,,,,,,,,,,,,,,,,,,,,,,,,,,,,,,,,,,Bürste,2.8861,925.1005055000023,925.1010167999993,925.1011255000012,925.1154306000026,928.0149861999998,927.9994499999993,928.0053418999996,928.0149861999998,928.0149861999998,928.0149861999998,928.0149861999998,930.0149700000002,930.0149700000002,930.0149700000002,930.0149700000002,929.9995396000013,3,None,1.4242629000000306,0.1645435999998881,,,,,,,,,,,,,,,,,,,,,6896,1,2025-10-23_20h33.52.531,sm,2024.2.4,59.96850454157337,2025-10-23 20h34.07.122200 +0200,
33,0,33,,,,,,space,1.609184400000231,None,None,3,None,0.9155668999992486,0.2606846000016958,0,0,0,0,,,,,1,0,1,0,,,,,33,0,33,0,930.0149700000002,,,,,,,,,,,,,,,,,,,,,,,,,,,,,,,,,,,,,,,,,,,,,,,,,,,,,,,,,,Tanne,2.6645,930.0000474000008,930.0006444999999,930.0007611000001,930.0149700000002,932.6817177000012,932.6655320000027,932.6688974999997,932.6817177000012,932.6817177000012,932.6817177000012,932.6817177000012,934.6814641000019,934.6814641000019,934.6814641000019,934.6814641000019,934.6660143000008,3,None,0.9155668999992486,0.2606846000016958,,,,,,,,,,,,,,,,,,,,,6896,1,2025-10-23_20h33.52.531,sm,2024.2.4,59.96850454157337,2025-10-23 20h34.07.122200 +0200,
34,0,34,,,,,,space,1.609184400000231,None,None,None,None,,,0,0,0,0,,,,,1,0,1,0,,,,,34,0,34,0,934.6814641000019,,,,,,,,,,,,,,,,,,,,,,,,,,,,,,,,,,,,,,,,,,,,,,,,,,,,,,,,,,Erbe,5.5539,934.6665229000027,934.6671774000024,934.6672830000025,934.6814641000019,940.2474747000015,940.2320193000014,940.2352585000008,940.2474747000015,940.2474747000015,940.2474747000015,940.2474747000015,942.2475869000009,942.2475869000009,942.2475869000009,942.2475869000009,942.2320474000007,None,None,,,,,,,,,,,,,,,,,,,,,,,6896,1,2025-10-23_20h33.52.531,sm,2024.2.4,59.96850454157337,2025-10-23 20h34.07.122200 +0200,
35,0,35,,,,,,space,1.609184400000231,None,None,2,None,0.6273411000001943,0.15967259999888483,0,0,0,0,,,,,1,0,1,0,,,,,35,0,35,0,942.2475869000009,,,,,,,,,,,,,,,,,,,,,,,,,,,,,,,,,,,,,,,,,,,,,,,,,,,,,,,,,,Liebe,2.7485,942.2325277000018,942.2330320000001,942.233138800002,942.2475869000009,944.9975663000005,944.9821035000023,944.9861657000001,944.9975663000005,944.9975663000005,944.9975663000005,944.9975663000005,946.9975526000017,946.9975526000017,946.9975526000017,946.9975526000017,946.9819134000027,2,None,0.6273411000001943,0.15967259999888483,,,,,,,,,,,,,,,,,,,,,6896,1,2025-10-23_20h33.52.531,sm,2024.2.4,59.96850454157337,2025-10-23 20h34.07.122200 +0200,
36,0,36,,,,,,space,1.609184400000231,None,None,3,None,0.6834852000029059,0.16542519999711658,0,0,0,0,,,,,1,0,1,0,,,,,36,0,36,0,946.9975526000017,,,,,,,,,,,,,,,,,,,,,,,,,,,,,,,,,,,,,,,,,,,,,,,,,,,,,,,,,,Stein,2.3709,946.9824866000017,946.9830107000016,946.9831190000004,946.9975526000017,949.3805685000007,949.3649374000015,949.3685126000018,949.3805685000007,949.3805685000007,949.3805685000007,949.3805685000007,951.3804163999994,951.3804163999994,951.3804163999994,951.3804163999994,951.3649097000016,3,None,0.6834852000029059,0.16542519999711658,,,,,,,,,,,,,,,,,,,,,6896,1,2025-10-23_20h33.52.531,sm,2024.2.4,59.96850454157337,2025-10-23 20h34.07.122200 +0200,
37,0,37,,,,,,space,1.609184400000231,None,None,3,None,0.9103461999984575,0.17412920000060694,0,0,0,0,,,,,1,0,1,0,,,,,37,0,37,0,951.3804163999994,,,,,,,,,,,,,,,,,,,,,,,,,,,,,,,,,,,,,,,,,,,,,,,,,,,,,,,,,,Erde,4.0455,951.3654175000011,951.36607,951.3661769999999,951.3804163999994,955.4301158000017,955.4148421000027,955.4181675,955.4301158000017,955.4301158000017,955.4301158000017,955.4301158000017,957.4302051000013,957.4302051000013,957.4302051000013,957.4302051000013,957.4147137,3,None,0.9103461999984575,0.17412920000060694,,,,,,,,,,,,,,,,,,,,,6896,1,2025-10-23_20h33.52.531,sm,2024.2.4,59.96850454157337,2025-10-23 20h34.07.122200 +0200,
38,0,38,,,,,,space,1.609184400000231,None,None,2,None,0.7557134999988193,0.17281550000188872,0,0,0,0,,,,,1,0,1,0,,,,,38,0,38,0,957.4302051000013,,,,,,,,,,,,,,,,,,,,,,,,,,,,,,,,,,,,,,,,,,,,,,,,,,,,,,,,,,Lied,2.3517,957.4152240000003,957.4158735000019,957.4159800000016,957.4302051000013,959.7965251000023,959.7811103999993,959.7841159000018,959.7965251000023,959.7965251000023,959.7965251000023,959.7965251000023,961.7966287000017,961.7966287000017,961.7966287000017,961.7966287000017,961.7808743999994,2,None,0.7557134999988193,0.17281550000188872,,,,,,,,,,,,,,,,,,,,,6896,1,2025-10-23_20h33.52.531,sm,2024.2.4,59.96850454157337,2025-10-23 20h34.07.122200 +0200,
39,0,39,,,,,,space,1.609184400000231,None,None,3,None,1.0370819000017946,0.19644789999802015,0,0,0,0,,,,,1,0,1,0,,,,,39,0,39,0,961.7966287000017,,,,,,,,,,,,,,,,,,,,,,,,,,,,,,,,,,,,,,,,,,,,,,,,,,,,,,,,,,Löwe,3.259,961.7813937999999,961.7819153000019,961.782027600002,961.7966287000017,965.0630741000023,965.0478494000017,965.0519736000024,965.0630741000023,965.0630741000023,965.0630741000023,965.0630741000023,967.0629121999991,967.0629121999991,967.0629121999991,967.0629121999991,967.0475270000024,3,None,1.0370819000017946,0.19644789999802015,,,,,,,,,,,,,,,,,,,,,6896,1,2025-10-23_20h33.52.531,sm,2024.2.4,59.96850454157337,2025-10-23 20h34.07.122200 +0200,
40,0,40,,,,,,space,1.609184400000231,None,None,3,None,0.9519112999987556,0.15877239999826998,0,0,0,0,,,,,1,0,1,0,,,,,40,0,40,0,967.0629121999991,,,,,,,,,,,,,,,,,,,,,,,,,,,,,,,,,,,,,,,,,,,,,,,,,,,,,,,,,,Schreibtisch,2.674,967.0480373999999,967.0486187999995,967.0487271999991,967.0629121999991,969.7460893000025,969.7305422999998,969.7351947000025,969.7460893000025,969.7460893000025,969.7460893000025,969.7460893000025,971.7462080000005,971.7462080000005,971.7462080000005,971.7462080000005,971.7305310000011,3,None,0.9519112999987556,0.15877239999826998,,,,,,,,,,,,,,,,,,,,,6896,1,2025-10-23_20h33.52.531,sm,2024.2.4,59.96850454157337,2025-10-23 20h34.07.122200 +0200,
41,0,41,,,,,,space,1.609184400000231,None,None,2,None,0.7297287999972468,0.16278000000238535,0,0,0,0,,,,,1,0,1,0,,,,,41,0,41,0,971.7462080000005,,,,,,,,,,,,,,,,,,,,,,,,,,,,,,,,,,,,,,,,,,,,,,,,,,,,,,,,,,Sand,2.6159,971.7310476000021,971.7315775000025,971.7317285000026,971.7462080000005,974.3632620000026,974.3468334999998,974.3505490000025,974.3632620000026,974.3632620000026,974.3632620000026,974.3632620000026,976.3626100000001,976.3626100000001,976.3626100000001,976.3626100000001,976.3467472000011,2,None,0.7297287999972468,0.16278000000238535,,,,,,,,,,,,,,,,,,,,,6896,1,2025-10-23_20h33.52.531,sm,2024.2.4,59.96850454157337,2025-10-23 20h34.07.122200 +0200,
42,0,42,,,,,,space,1.609184400000231,None,None,2,None,0.7728162999992492,0.18235140000251704,0,0,0,0,,,,,1,0,1,0,,,,,42,0,42,0,976.3626100000001,,,,,,,,,,,,,,,,,,,,,,,,,,,,,,,,,,,,,,,,,,,,,,,,,,,,,,,,,,Professor,2.1221,976.3472598000008,976.3477615000011,976.3478657000014,976.3626100000001,978.495681700002,978.4799897000012,978.4844752000026,978.495681700002,978.495681700002,978.495681700002,978.495681700002,980.4957718000005,980.4957718000005,980.4957718000005,980.4957718000005,980.4799062999991,2,None,0.7728162999992492,0.18235140000251704,,,,,,,,,,,,,,,,,,,,,6896,1,2025-10-23_20h33.52.531,sm,2024.2.4,59.96850454157337,2025-10-23 20h34.07.122200 +0200,
43,0,43,,,,,,space,1.609184400000231,None,None,3,None,0.8922314000010374,0.17611659999965923,0,0,0,0,,,,,1,0,1,0,,,,,43,0,43,0,980.4957718000005,,,,,,,,,,,,,,,,,,,,,,,,,,,,,,,,,,,,,,,,,,,,,,,,,,,,,,,,,,Ei,3.2167,980.4804199999999,980.4809363999993,980.4810419000023,980.4957718000005,983.7117139000002,983.6962853000005,983.6997728000024,983.7117139000002,983.7117139000002,983.7117139000002,983.7117139000002,985.7119593999996,985.7119593999996,985.7119593999996,985.7119593999996,985.696517700002,3,None,0.8922314000010374,0.17611659999965923,,,,,,,,,,,,,,,,,,,,,6896,1,2025-10-23_20h33.52.531,sm,2024.2.4,59.96850454157337,2025-10-23 20h34.07.122200 +0200,
44,0,44,,,,,,space,1.609184400000231,None,None,None,None,,,0,0,0,0,,,,,1,0,1,0,,,,,44,0,44,0,985.7119593999996,,,,,,,,,,,,,,,,,,,,,,,,,,,,,,,,,,,,,,,,,,,,,,,,,,,,,,,,,,Rock,4.5695,985.6970228999999,985.6975366000006,985.697641900002,985.7119593999996,990.2948149000003,990.2794033000027,990.2829544000015,990.2948149000003,990.2948149000003,990.2948149000003,990.2948149000003,992.2947091999995,992.2947091999995,992.2947091999995,992.2947091999995,992.2793949000006,None,None,,,,,,,,,,,,,,,,,,,,,,,6896,1,2025-10-23_20h33.52.531,sm,2024.2.4,59.96850454157337,2025-10-23 20h34.07.122200 +0200,
45,0,45,,,,,,space,1.609184400000231,None,None,2,None,0.8012282000017876,0.3600372000000789,0,0,0,0,,,,,1,0,1,0,,,,,45,0,45,0,992.2947091999995,,,,,,,,,,,,,,,,,,,,,,,,,,,,,,,,,,,,,,,,,,,,,,,,,,,,,,,,,,Weinen,3.6638,992.2798799000011,992.2805064000022,992.280692700002,992.2947091999995,995.961131,995.9456114000022,995.9497259000018,995.961131,995.961131,995.961131,995.961131,997.9612207999999,997.9612207999999,997.9612207999999,997.9612207999999,997.9456817000028,2,None,0.8012282000017876,0.3600372000000789,,,,,,,,,,,,,,,,,,,,,6896,1,2025-10-23_20h33.52.531,sm,2024.2.4,59.96850454157337,2025-10-23 20h34.07.122200 +0200,
46,0,46,,,,,,space,1.609184400000231,None,None,3,None,0.938760099998035,0.2471255000018573,0,0,0,0,,,,,1,0,1,0,,,,,46,0,46,0,997.9612207999999,,,,,,,,,,,,,,,,,,,,,,,,,,,,,,,,,,,,,,,,,,,,,,,,,,,,,,,,,,Gruppe,2.4818,997.9461996000027,997.9468532999999,997.9469570000001,997.9612207999999,1000.4441695999994,1000.4288570999997,1000.433875900002,1000.4441695999994,1000.4441695999994,1000.4441695999994,1000.4441695999994,1002.4446936999993,1002.4446936999993,1002.4446936999993,1002.4446936999993,1002.428737000002,3,None,0.938760099998035,0.2471255000018573,,,,,,,,,,,,,,,,,,,,,6896,1,2025-10-23_20h33.52.531,sm,2024.2.4,59.96850454157337,2025-10-23 20h34.07.122200 +0200,
47,0,47,,,,,,space,1.609184400000231,None,None,2,None,0.6603518999982043,0.1471692000013718,0,0,0,0,,,,,1,0,1,0,,,,,47,0,47,0,1002.4446936999993,,,,,,,,,,,,,,,,,,,,,,,,,,,,,,,,,,,,,,,,,,,,,,,,,,,,,,,,,,Kunde,2.3878,1002.4292575,1002.4297735,1002.4298813000023,1002.4446936999993,1004.8437765000017,1004.8283802000005,1004.8320745000019,1004.8437765000017,1004.8437765000017,1004.8437765000017,1004.8437765000017,1006.8439666000013,1006.8439666000013,1006.8439666000013,1006.8439666000013,1006.8283671000027,2,None,0.6603518999982043,0.1471692000013718,,,,,,,,,,,,,,,,,,,,,6896,1,2025-10-23_20h33.52.531,sm,2024.2.4,59.96850454157337,2025-10-23 20h34.07.122200 +0200,
48,0,48,,,,,,space,1.609184400000231,None,None,3,None,0.692753499999526,0.18914909999875817,0,0,0,0,,,,,1,0,1,0,,,,,48,0,48,0,1006.8439666000013,,,,,,,,,,,,,,,,,,,,,,,,,,,,,,,,,,,,,,,,,,,,,,,,,,,,,,,,,,Weiß,2.164,1006.8288812999999,1006.8293876000025,1006.8295037999997,1006.8439666000013,1009.0105341000017,1008.994901500002,1008.9979415000016,1009.0105341000017,1009.0105341000017,1009.0105341000017,1009.0105341000017,1011.0103878000009,1011.0103878000009,1011.0103878000009,1011.0103878000009,1010.9953917000021,3,None,0.692753499999526,0.18914909999875817,,,,,,,,,,,,,,,,,,,,,6896,1,2025-10-23_20h33.52.531,sm,2024.2.4,59.96850454157337,2025-10-23 20h34.07.122200 +0200,
49,0,49,,,,,,space,1.609184400000231,None,None,2,None,0.8076201000003493,0.19154830000115908,0,0,0,0,,,,,1,0,1,0,,,,,49,0,49,0,1011.0103878000009,,,,,,,,,,,,,,,,,,,,,,,,,,,,,,,,,,,,,,,,,,,,,,,,,,,,,,,,,,Schaf,2.1453,1010.9959057000015,1010.9964838000014,1010.9965871999993,1011.0103878000009,1013.1602609000001,1013.1447738999996,1013.1487224000011,1013.1602609000001,1013.1602609000001,1013.1602609000001,1013.1602609000001,1015.160283600002,1015.160283600002,1015.160283600002,1015.160283600002,1015.1447775000015,2,None,0.8076201000003493,0.19154830000115908,,,,,,,,,,,,,,,,,,,,,6896,1,2025-10-23_20h33.52.531,sm,2024.2.4,59.96850454157337,2025-10-23 20h34.07.122200 +0200,
50,0,50,,,,,,space,1.609184400000231,None,None,3,None,1.2156088999981876,0.16448740000123507,0,0,0,0,,,,,1,0,1,0,,,,,50,0,50,0,1015.160283600002,,,,,,,,,,,,,,,,,,,,,,,,,,,,,,,,,,,,,,,,,,,,,,,,,,,,,,,,,,Klee,2.1239,1015.1452898999996,1015.1458086999992,1015.1459169000009,1015.160283600002,1017.2932357000027,1017.2776341999997,1017.2806074,1017.2932357000027,1017.2932357000027,1017.2932357000027,1017.2932357000027,1019.2933491000003,1019.2933491000003,1019.2933491000003,1019.2933491000003,1019.2777506999992,3,None,1.2156088999981876,0.16448740000123507,,,,,,,,,,,,,,,,,,,,,6896,1,2025-10-23_20h33.52.531,sm,2024.2.4,59.96850454157337,2025-10-23 20h34.07.122200 +0200,
51,0,51,,,,,,space,1.609184400000231,None,None,3,None,0.8110038999984681,0.1790965000000142,0,0,0,0,,,,,1,0,1,0,,,,,51,0,51,0,1019.2933491000003,,,,,,,,,,,,,,,,,,,,,,,,,,,,,,,,,,,,,,,,,,,,,,,,,,,,,,,,,,Zug,2.7453,1019.278234100002,1019.2787241000005,1019.2788240000009,1019.2933491000003,1022.0431423000009,1022.0274532000003,1022.0310734000013,1022.0431423000009,1022.0431423000009,1022.0431423000009,1022.0431423000009,1024.0432279000015,1024.0432279000015,1024.0432279000015,1024.0432279000015,1024.0274199000014,3,None,0.8110038999984681,0.1790965000000142,,,,,,,,,,,,,,,,,,,,,6896,1,2025-10-23_20h33.52.531,sm,2024.2.4,59.96850454157337,2025-10-23 20h34.07.122200 +0200,
52,0,52,,,,,,space,1.609184400000231,None,None,2,None,1.2350215000005846,0.16470250000202213,0,0,0,0,,,,,1,0,1,0,,,,,52,0,52,0,1024.0432279000015,,,,,,,,,,,,,,,,,,,,,,,,,,,,,,,,,,,,,,,,,,,,,,,,,,,,,,,,,,Ozean,2.2697,1024.0279320000009,1024.0286750000014,1024.0287792000017,1024.0432279000015,1026.3261373999994,1026.3111903000026,1026.3152045000024,1026.3261373999994,1026.3261373999994,1026.3261373999994,1026.3261373999994,1028.3264560000025,1028.3264560000025,1028.3264560000025,1028.3264560000025,1028.3106627000016,2,None,1.2350215000005846,0.16470250000202213,,,,,,,,,,,,,,,,,,,,,6896,1,2025-10-23_20h33.52.531,sm,2024.2.4,59.96850454157337,2025-10-23 20h34.07.122200 +0200,
53,0,53,,,,,,space,1.609184400000231,None,None,3,None,0.9637471000023652,0.17384979999769712,0,0,0,0,,,,,1,0,1,0,,,,,53,0,53,0,1028.3264560000025,,,,,,,,,,,,,,,,,,,,,,,,,,,,,,,,,,,,,,,,,,,,,,,,,,,,,,,,,,Feier,2.0317,1028.311184000002,1028.311775500002,1028.3118828000006,1028.3264560000025,1030.3593431000008,1030.3437371,1030.3485543000024,1030.3593431000008,1030.3593431000008,1030.3593431000008,1030.3593431000008,1032.3593167,1032.3593167,1032.3593167,1032.3593167,1032.3436379000013,3,None,0.9637471000023652,0.17384979999769712,,,,,,,,,,,,,,,,,,,,,6896,1,2025-10-23_20h33.52.531,sm,2024.2.4,59.96850454157337,2025-10-23 20h34.07.122200 +0200,
54,0,54,,,,,,space,1.609184400000231,None,None,2,None,0.7541184000001522,0.20774639999945066,0,0,0,0,,,,,1,0,1,0,,,,,54,0,54,0,1032.3593167,,,,,,,,,,,,,,,,,,,,,,,,,,,,,,,,,,,,,,,,,,,,,,,,,,,,,,,,,,Lava,2.9946,1032.344154800001,1032.3446636000008,1032.3447686,1032.3593167,1035.3589151000015,1035.3433436000014,1035.3471057000024,1035.3589151000015,1035.3589151000015,1035.3589151000015,1035.3589151000015,1037.3588893000015,1037.3588893000015,1037.3588893000015,1037.3588893000015,1037.3432656000004,2,None,0.7541184000001522,0.20774639999945066,,,,,,,,,,,,,,,,,,,,,6896,1,2025-10-23_20h33.52.531,sm,2024.2.4,59.96850454157337,2025-10-23 20h34.07.122200 +0200,
55,0,55,,,,,,space,1.609184400000231,None,None,2,None,0.9160458999976981,0.17731840000124066,0,0,0,0,,,,,1,0,1,0,,,,,55,0,55,0,1037.3588893000015,,,,,,,,,,,,,,,,,,,,,,,,,,,,,,,,,,,,,,,,,,,,,,,,,,,,,,,,,,Koch,2.6105,1037.3437718000023,1037.3444229000015,1037.3445272000026,1037.3588893000015,1039.9752695000025,1039.9601218999996,1039.9637647000018,1039.9752695000025,1039.9752695000025,1039.9752695000025,1039.9752695000025,1041.9754467999992,1041.9754467999992,1041.9754467999992,1041.9754467999992,1041.9596536999998,2,None,0.9160458999976981,0.17731840000124066,,,,,,,,,,,,,,,,,,,,,6896,1,2025-10-23_20h33.52.531,sm,2024.2.4,59.96850454157337,2025-10-23 20h34.07.122200 +0200,
56,0,56,,,,,,space,1.609184400000231,None,None,3,None,0.8597792000000481,0.19817089999924065,0,0,0,0,,,,,1,0,1,0,,,,,56,0,56,0,1041.9754467999992,,,,,,,,,,,,,,,,,,,,,,,,,,,,,,,,,,,,,,,,,,,,,,,,,,,,,,,,,,Postkarte,4.1435,1041.9601715999997,1041.9606888000017,1041.9607932,1041.9754467999992,1046.1249804,1046.1096591999994,1046.1138886000008,1046.1249804,1046.1249804,1046.1249804,1046.1249804,1048.1251577000003,1048.1251577000003,1048.1251577000003,1048.1251577000003,1048.1095088000002,3,None,0.8597792000000481,0.19817089999924065,,,,,,,,,,,,,,,,,,,,,6896,1,2025-10-23_20h33.52.531,sm,2024.2.4,59.96850454157337,2025-10-23 20h34.07.122200 +0200,
57,0,57,,,,,,space,1.609184400000231,None,None,3,None,0.7358271000011882,0.16706129999874975,0,0,0,0,,,,,1,0,1,0,,,,,57,0,57,0,1048.1251577000003,,,,,,,,,,,,,,,,,,,,,,,,,,,,,,,,,,,,,,,,,,,,,,,,,,,,,,,,,,Zimmer,3.8152,1048.1100150999991,1048.1105234999995,1048.110631800002,1048.1251577000003,1051.941329100002,1051.9258401000006,1051.9295151000006,1051.941329100002,1051.941329100002,1051.941329100002,1051.941329100002,1053.9414557000018,1053.9414557000018,1053.9414557000018,1053.9414557000018,1053.9255709000026,3,None,0.7358271000011882,0.16706129999874975,,,,,,,,,,,,,,,,,,,,,6896,1,2025-10-23_20h33.52.531,sm,2024.2.4,59.96850454157337,2025-10-23 20h34.07.122200 +0200,
58,0,58,,,,,,space,1.609184400000231,None,None,3,None,0.8716160000003583,0.16756119999990915,0,0,0,0,,,,,1,0,1,0,,,,,58,0,58,0,1053.9414557000018,,,,,,,,,,,,,,,,,,,,,,,,,,,,,,,,,,,,,,,,,,,,,,,,,,,,,,,,,,Schuh,2.5467,1053.9260826999998,1053.9266081000023,1053.9267134000002,1053.9414557000018,1056.4908915000015,1056.4752024000009,1056.4789001000026,1056.4908915000015,1056.4908915000015,1056.4908915000015,1056.4908915000015,1058.4910254000024,1058.4910254000024,1058.4910254000024,1058.4910254000024,1058.4754974999996,3,None,0.8716160000003583,0.16756119999990915,,,,,,,,,,,,,,,,,,,,,6896,1,2025-10-23_20h33.52.531,sm,2024.2.4,59.96850454157337,2025-10-23 20h34.07.122200 +0200,
59,0,59,,,,,,space,1.609184400000231,None,None,3,None,1.1491413999974611,0.1515572999996948,0,0,0,0,,,,,1,0,1,0,,,,,59,0,59,0,1058.4910254000024,,,,,,,,,,,,,,,,,,,,,,,,,,,,,,,,,,,,,,,,,,,,,,,,,,,,,,,,,,Dunkelheit,2.1519,1058.4760105000023,1058.476533000001,1058.4766399,1058.4910254000024,1060.6575397000015,1060.6420964999998,1060.6464760000017,1060.6575397000015,1060.6575397000015,1060.6575397000015,1060.6575397000015,1062.657667800002,1062.657667800002,1062.657667800002,1062.657667800002,1062.6420619000019,3,None,1.1491413999974611,0.1515572999996948,,,,,,,,,,,,,,,,,,,,,6896,1,2025-10-23_20h33.52.531,sm,2024.2.4,59.96850454157337,2025-10-23 20h34.07.122200 +0200,
60,0,60,,,,,,space,1.609184400000231,None,None,2,None,0.868451800000912,0.1622979000021587,0,0,0,0,,,,,1,0,1,0,,,,,60,0,60,0,1062.657667800002,,,,,,,,,,,,,,,,,,,,,,,,,,,,,,,,,,,,,,,,,,,,,,,,,,,,,,,,,,Vampir,3.6774,1062.6425889999991,1062.6431309,1062.6432373000025,1062.657667800002,1066.3414303000027,1066.3249018999995,1066.3298737000005,1066.3414303000027,1066.3414303000027,1066.3414303000027,1066.3414303000027,1068.3405270000003,1068.3405270000003,1068.3405270000003,1068.3405270000003,1068.3249925000018,2,None,0.868451800000912,0.1622979000021587,,,,,,,,,,,,,,,,,,,,,6896,1,2025-10-23_20h33.52.531,sm,2024.2.4,59.96850454157337,2025-10-23 20h34.07.122200 +0200,
61,0,61,,,,,,space,1.609184400000231,None,None,3,None,1.0810739999978978,0.1855044000003545,0,0,0,0,,,,,1,0,1,0,,,,,61,0,61,0,1068.3405270000003,,,,,,,,,,,,,,,,,,,,,,,,,,,,,,,,,,,,,,,,,,,,,,,,,,,,,,,,,,Scheidung,2.9569,1068.3255078000002,1068.3260260000025,1068.3261308,1068.3405270000003,1071.3067787,1071.2913535000007,1071.2953906000002,1071.3067787,1071.3067787,1071.3067787,1071.3067787,1073.3071197999998,1073.3071197999998,1073.3071197999998,1073.3071197999998,1073.2913580000022,3,None,1.0810739999978978,0.1855044000003545,,,,,,,,,,,,,,,,,,,,,6896,1,2025-10-23_20h33.52.531,sm,2024.2.4,59.96850454157337,2025-10-23 20h34.07.122200 +0200,
62,0,62,,,,,,space,1.609184400000231,None,None,3,None,1.0554669999983162,0.17433670000173151,0,0,0,0,,,,,1,0,1,0,,,,,62,0,62,0,1073.3071197999998,,,,,,,,,,,,,,,,,,,,,,,,,,,,,,,,,,,,,,,,,,,,,,,,,,,,,,,,,,Netz,2.8314,1073.2918759999993,1073.2923972999997,1073.2925031000013,1073.3071197999998,1076.1396504000004,1076.1242622000027,1076.1272486000016,1076.1396504000004,1076.1396504000004,1076.1396504000004,1076.1396504000004,1078.1398642000022,1078.1398642000022,1078.1398642000022,1078.1398642000022,1078.1245716000012,3,None,1.0554669999983162,0.17433670000173151,,,,,,,,,,,,,,,,,,,,,6896,1,2025-10-23_20h33.52.531,sm,2024.2.4,59.96850454157337,2025-10-23 20h34.07.122200 +0200,
