thisN,thisTrialN,thisRepN,Cue,Target,Mediator1,Mediator2,iti,scanner_ready_press.keys,scanner_ready_press.rt,scanner_ready_press.duration,skip_trigger.keys,living_nonliving.keys,living_nonliving.rt,living_nonliving.duration,end_mapping.keys,blocks.thisRepN,blocks.thisTrialN,blocks.thisN,blocks.thisIndex,load_and_shuffle.thisRepN,load_and_shuffle.thisTrialN,load_and_shuffle.thisN,load_and_shuffle.thisIndex,runs.thisRepN,runs.thisTrialN,runs.thisN,runs.thisIndex,iti_loading_loop.thisRepN,iti_loading_loop.thisTrialN,iti_loading_loop.thisN,iti_loading_loop.thisIndex,semantic_mapping_run.thisRepN,semantic_mapping_run.thisTrialN,semantic_mapping_run.thisN,semantic_mapping_run.thisIndex,thisRow.t,notes,welcome.started,welcome_text.started,key_resp__welcome.started,welcome.stopped,key_resp__welcome.keys,key_resp__welcome.rt,key_resp__welcome.duration,scout.started,scout_text.started,key_resp.started,scout.stopped,key_resp.keys,key_resp.rt,key_resp.duration,instructions_semantic_mapping1.started,sm_instructions1_text.started,sm_instructions1_key.started,instructions_semantic_mapping1.stopped,sm_instructions1_key.keys,sm_instructions1_key.rt,sm_instructions1_key.duration,instructions_semantic_mapping2.started,sm_instructions2_text.started,sm_instructions2_key.started,instructions_semantic_mapping2.stopped,sm_instructions2_key.keys,sm_instructions2_key.rt,sm_instructions2_key.duration,reset_run.started,reset_run.stopped,shuffle_items.started,shuffle_items.stopped,set_up_runs.started,set_up_runs.stopped,load_iti.started,load_iti.stopped,prep_scanner.started,scanner_ready_press.started,ready_set_text.started,prep_scanner.stopped,runs.scanner_ready_press.keys,runs.scanner_ready_press.rt,runs.scanner_ready_press.duration,wait_for_trigger.started,starting_soon.started,skip_trigger.started,wait_for_trigger.stopped,runs.skip_trigger.keys,blank.started,begin_end_run_cross.started,sound_1.started,sound_1.stopped,sound_2.started,sound_2.stopped,blank.stopped,CurrentItem,CurrentITI,set_up_trial.started,set_up_trial.stopped,sm_iti.started,iti_cross.started,iti_cross.stopped,sm_iti.stopped,item.started,living_nonliving.started,end_mapping.started,living_nonliving_text.started,semantic_map_item.started,living_nonliving.stopped,end_mapping.stopped,living_nonliving_text.stopped,semantic_map_item.stopped,item.stopped,semantic_mapping_run.living_nonliving.keys,semantic_mapping_run.living_nonliving.rt,semantic_mapping_run.living_nonliving.duration,semantic_mapping_run.end_mapping.keys,fieldmap.started,fieldmap.stopped,runs.fm_key.keys,task_break.started,feeback_text.started,task_break_text.started,task_break_resp.started,feeback_text.stopped,task_break.stopped,runs.task_break_resp.keys,runs.task_break_resp.rt,runs.task_break_resp.duration,begin_end_run_cross.stopped,fm_text.started,fm_key.started,runs.fm_key.rt,runs.fm_key.duration,thanks.started,thanks_text.started,thanks_text.stopped,thanks.stopped,PID,MRI,date,expName,psychopyVersion,frameRate,expStart,
,,,,,,,,,,,,,,,,,,,,,,,,,,,,,,,,,,,,,,0.0035550000011426164,0.008384300001125666,0.008384300001125666,17.096954099999493,space,17.071314099999654,None,,,,,,,,,,,,,,,,,,,,,,,,,,,,,,,,,,,,,,,,,,,,,,,,,,,,,,,,,,,,,,,,,,,,,,,,,,,,,,,,,,,,,,,,,,,,8424,1,2025-06-30_16h33.05.816,sm,2024.2.4,59.97080621155811,2025-06-30 16h37.47.643902 +0200,
,,,,,,,,,,,,,,,,,,,,,,,,,,,,,,,,,,,,,,,,,,,,,17.097078500000862,17.10621639999954,17.10621639999954,89.73655450000115,space,72.6118787000014,None,,,,,,,,,,,,,,,,,,,,,,,,,,,,,,,,,,,,,,,,,,,,,,,,,,,,,,,,,,,,,,,,,,,,,,,,,,,,,,,,,,,,,8424,1,2025-06-30_16h33.05.816,sm,2024.2.4,59.97080621155811,2025-06-30 16h37.47.643902 +0200,
,,,,,,,,,,,,,,,,,,,,,,,,,,,,,,,,,,,,,,,,,,,,,,,,,,,,89.73667240000032,89.75184810000064,89.75184810000064,96.93606910000017,2,7.1791467999992165,None,,,,,,,,,,,,,,,,,,,,,,,,,,,,,,,,,,,,,,,,,,,,,,,,,,,,,,,,,,,,,,,,,,,,,,,,,,,,,,8424,1,2025-06-30_16h33.05.816,sm,2024.2.4,59.97080621155811,2025-06-30 16h37.47.643902 +0200,
,,,,,,,,,,,,,,,,,,,,,,,,,,,,,,,,,,,,,,,,,,,,,,,,,,,,,,,,,,,96.9361871000001,96.95101600000089,96.95101600000089,106.73571120000088,2,9.780105699999694,None,,,,,,,,,,,,,,,,,,,,,,,,,,,,,,,,,,,,,,,,,,,,,,,,,,,,,,,,,,,,,,,,,,,,,,,8424,1,2025-06-30_16h33.05.816,sm,2024.2.4,59.97080621155811,2025-06-30 16h37.47.643902 +0200,
0,0,0,Vulkan,Asche,Lava,Ausbruch,2.8761,space,3.631702900000164,None,None,3,1.237871699999232,0.1858700000011595,None,0,0,0,0,0,79,79,63,0,0,0,0,0,79,79,16,0,0,0,0,174.7799025000004,,,,,,,,,,,,,,,,,,,,,,,,,,,,,,106.73653000000013,106.73732019999989,106.80889899999966,106.8091516000004,106.81356430000051,106.8138369999997,106.84338879999996,106.84359120000045,106.85020819999954,106.85505060000105,106.85505060000105,110.50197470000057,space,3.631702900000164,None,110.50212889999966,110.51698080000097,110.51698080000097,162.74872450000112,None,162.75818430000072,162.76655829999982,162.7640268666676,163.97513509999953,172.7635203666671,173.76468130000103,174.76368860000002,Wohnung,2.8761,174.7652274000011,174.76591569999982,174.7694346999997,174.7799025000004,177.6628068000009,177.64728819999982,177.65125290000105,177.6628068000009,177.6628068000009,177.6628068000009,177.6628068000009,179.6630537000001,179.6630537000001,179.6630537000001,179.6630537000001,179.64740239999992,3,1.237871699999232,0.1858700000011595,None,,,,,,,,,,,,,,,,,,,,,,8424,1,2025-06-30_16h33.05.816,sm,2024.2.4,59.97080621155811,2025-06-30 16h37.47.643902 +0200,
1,0,1,,,,,,space,3.631702900000164,None,None,3,1.001224400000865,0.1695304999993823,None,0,0,0,0,,,,,0,0,0,0,,,,,1,0,1,0,179.6630537000001,,,,,,,,,,,,,,,,,,,,,,,,,,,,,,,,,,,,,,,,,,,,,,,,,,,,,,,,,Statue,3.9007,179.647921400001,179.648459,179.64856959999997,179.6630537000001,183.56290460000127,183.5470151999998,183.55120110000098,183.56290460000127,183.56290460000127,183.56290460000127,183.56290460000127,185.5628813000003,185.5628813000003,185.5628813000003,185.5628813000003,185.54694779999954,3,1.001224400000865,0.1695304999993823,None,,,,,,,,,,,,,,,,,,,,,,8424,1,2025-06-30_16h33.05.816,sm,2024.2.4,59.97080621155811,2025-06-30 16h37.47.643902 +0200,
2,0,2,,,,,,space,3.631702900000164,None,None,3,0.7517795000003389,0.16278349999993225,None,0,0,0,0,,,,,0,0,0,0,,,,,2,0,2,0,185.5628813000003,,,,,,,,,,,,,,,,,,,,,,,,,,,,,,,,,,,,,,,,,,,,,,,,,,,,,,,,,Loch,2.1236,185.54745259999981,185.54806129999997,185.54817300000104,185.5628813000003,187.69564460000038,187.6801026000012,187.6843824000007,187.69564460000038,187.69564460000038,187.69564460000038,187.69564460000038,189.6957970000003,189.6957970000003,189.6957970000003,189.6957970000003,189.68020030000116,3,0.7517795000003389,0.16278349999993225,None,,,,,,,,,,,,,,,,,,,,,,8424,1,2025-06-30_16h33.05.816,sm,2024.2.4,59.97080621155811,2025-06-30 16h37.47.643902 +0200,
3,0,3,,,,,,space,3.631702900000164,None,None,3,0.6245916000007128,0.18529399999897578,None,0,0,0,0,,,,,0,0,0,0,,,,,3,0,3,0,189.6957970000003,,,,,,,,,,,,,,,,,,,,,,,,,,,,,,,,,,,,,,,,,,,,,,,,,,,,,,,,,Popcorn,2.886,189.68071080000118,189.68122910000056,189.6813363000001,189.6957970000003,192.59598820000065,192.58007540000108,192.5866285000011,192.59598820000065,192.59598820000065,192.59598820000065,192.59598820000065,194.59550780000063,194.59550780000063,194.59550780000063,194.59550780000063,194.57978379999986,3,0.6245916000007128,0.18529399999897578,None,,,,,,,,,,,,,,,,,,,,,,8424,1,2025-06-30_16h33.05.816,sm,2024.2.4,59.97080621155811,2025-06-30 16h37.47.643902 +0200,
4,0,4,,,,,,space,3.631702900000164,None,None,2,0.9244080999997095,0.18553140000040003,None,0,0,0,0,,,,,0,0,0,0,,,,,4,0,4,0,194.59550780000063,,,,,,,,,,,,,,,,,,,,,,,,,,,,,,,,,,,,,,,,,,,,,,,,,,,,,,,,,Klempner,4.9038,194.5802936,194.58081160000074,194.58092140000008,194.59550780000063,199.51157129999956,199.49624620000031,199.5019177000013,199.51157129999956,199.51157129999956,199.51157129999956,199.51157129999956,201.5117265000008,201.5117265000008,201.5117265000008,201.5117265000008,201.49616240000069,2,0.9244080999997095,0.18553140000040003,None,,,,,,,,,,,,,,,,,,,,,,8424,1,2025-06-30_16h33.05.816,sm,2024.2.4,59.97080621155811,2025-06-30 16h37.47.643902 +0200,
5,0,5,,,,,,space,3.631702900000164,None,None,3,0.9058456000002479,0.16264640000008512,None,0,0,0,0,,,,,0,0,0,0,,,,,5,0,5,0,201.5117265000008,,,,,,,,,,,,,,,,,,,,,,,,,,,,,,,,,,,,,,,,,,,,,,,,,,,,,,,,,Käse,2.0135,201.49663560000045,201.4971390999999,201.49724220000098,201.5117265000008,203.52857360000053,203.5123593999997,203.51533860000018,203.52857360000053,203.52857360000053,203.52857360000053,203.52857360000053,205.52839740000127,205.52839740000127,205.52839740000127,205.52839740000127,205.51273469999978,3,0.9058456000002479,0.16264640000008512,None,,,,,,,,,,,,,,,,,,,,,,8424,1,2025-06-30_16h33.05.816,sm,2024.2.4,59.97080621155811,2025-06-30 16h37.47.643902 +0200,
6,0,6,,,,,,space,3.631702900000164,None,None,3,0.8759559999998601,0.18587189999925613,None,0,0,0,0,,,,,0,0,0,0,,,,,6,0,6,0,205.52839740000127,,,,,,,,,,,,,,,,,,,,,,,,,,,,,,,,,,,,,,,,,,,,,,,,,,,,,,,,,Schnee,3.6547,205.51323880000018,205.51374960000066,205.51385870000013,205.52839740000127,209.19448639999973,209.17886689999978,209.1830000000009,209.19448639999973,209.19448639999973,209.19448639999973,209.19448639999973,211.19485689999965,211.19485689999965,211.19485689999965,211.19485689999965,211.17891940000118,3,0.8759559999998601,0.18587189999925613,None,,,,,,,,,,,,,,,,,,,,,,8424,1,2025-06-30_16h33.05.816,sm,2024.2.4,59.97080621155811,2025-06-30 16h37.47.643902 +0200,
7,0,7,,,,,,space,3.631702900000164,None,None,3,0.9349475999988499,0.26169970000046305,None,0,0,0,0,,,,,0,0,0,0,,,,,7,0,7,0,211.19485689999965,,,,,,,,,,,,,,,,,,,,,,,,,,,,,,,,,,,,,,,,,,,,,,,,,,,,,,,,,Anruf,2.0868,211.17942980000043,211.17994410000028,211.1800555000009,211.19485689999965,213.29414949999955,213.27855190000082,213.28208040000027,213.29414949999955,213.29414949999955,213.29414949999955,213.29414949999955,215.29415880000124,215.29415880000124,215.29415880000124,215.29415880000124,215.27869380000084,3,0.9349475999988499,0.26169970000046305,None,,,,,,,,,,,,,,,,,,,,,,8424,1,2025-06-30_16h33.05.816,sm,2024.2.4,59.97080621155811,2025-06-30 16h37.47.643902 +0200,
8,0,8,,,,,,space,3.631702900000164,None,None,2,0.8048220999990008,0.2552832000001217,None,0,0,0,0,,,,,0,0,0,0,,,,,8,0,8,0,215.29415880000124,,,,,,,,,,,,,,,,,,,,,,,,,,,,,,,,,,,,,,,,,,,,,,,,,,,,,,,,,Geschwister,3.3194,215.2792012000009,215.27969810000104,215.27981309999996,215.29415880000124,218.6272000000008,218.61184630000025,218.6170603999999,218.6272000000008,218.6272000000008,218.6272000000008,218.6272000000008,220.62733300000036,220.62733300000036,220.62733300000036,220.62733300000036,220.61177750000024,2,0.8048220999990008,0.2552832000001217,None,,,,,,,,,,,,,,,,,,,,,,8424,1,2025-06-30_16h33.05.816,sm,2024.2.4,59.97080621155811,2025-06-30 16h37.47.643902 +0200,
9,0,9,,,,,,space,3.631702900000164,None,None,3,0.7166433000002144,0.2075088000001415,None,0,0,0,0,,,,,0,0,0,0,,,,,9,0,9,0,220.62733300000036,,,,,,,,,,,,,,,,,,,,,,,,,,,,,,,,,,,,,,,,,,,,,,,,,,,,,,,,,Zug,2.6841,220.61227950000102,220.61281980000058,220.61292970000068,220.62733300000036,223.31016900000031,223.29466049999974,223.2999550000004,223.31016900000031,223.31016900000031,223.31016900000031,223.31016900000031,225.31048220000048,225.31048220000048,225.31048220000048,225.31048220000048,225.29510149999987,3,0.7166433000002144,0.2075088000001415,None,,,,,,,,,,,,,,,,,,,,,,8424,1,2025-06-30_16h33.05.816,sm,2024.2.4,59.97080621155811,2025-06-30 16h37.47.643902 +0200,
10,0,10,,,,,,space,3.631702900000164,None,None,3,0.7490505999994639,0.17981139999938023,None,0,0,0,0,,,,,0,0,0,0,,,,,10,0,10,0,225.31048220000048,,,,,,,,,,,,,,,,,,,,,,,,,,,,,,,,,,,,,,,,,,,,,,,,,,,,,,,,,Zähne,2.7698,225.29561110000031,225.29616329999953,225.29627410000103,225.31048220000048,228.09401799999978,228.07755879999968,228.08056829999987,228.09401799999978,228.09401799999978,228.09401799999978,228.09401799999978,230.09400240000105,230.09400240000105,230.09400240000105,230.09400240000105,230.07789510000111,3,0.7490505999994639,0.17981139999938023,None,,,,,,,,,,,,,,,,,,,,,,8424,1,2025-06-30_16h33.05.816,sm,2024.2.4,59.97080621155811,2025-06-30 16h37.47.643902 +0200,
11,0,11,,,,,,space,3.631702900000164,None,None,2,0.6346532000006846,0.22064010000030976,None,0,0,0,0,,,,,0,0,0,0,,,,,11,0,11,0,230.09400240000105,,,,,,,,,,,,,,,,,,,,,,,,,,,,,,,,,,,,,,,,,,,,,,,,,,,,,,,,,Vogel,4.1141,230.078402000001,230.07890860000043,230.0790166000006,230.09400240000105,234.20971869999994,234.19459050000114,234.1982637000001,234.20971869999994,234.20971869999994,234.20971869999994,234.20971869999994,236.20854490000056,236.20854490000056,236.20854490000056,236.20854490000056,236.19341910000003,2,0.6346532000006846,0.22064010000030976,None,,,,,,,,,,,,,,,,,,,,,,8424,1,2025-06-30_16h33.05.816,sm,2024.2.4,59.97080621155811,2025-06-30 16h37.47.643902 +0200,
12,0,12,,,,,,space,3.631702900000164,None,None,3,0.7498511000012513,0.20533879999857163,None,0,0,0,0,,,,,0,0,0,0,,,,,12,0,12,0,236.20854490000056,,,,,,,,,,,,,,,,,,,,,,,,,,,,,,,,,,,,,,,,,,,,,,,,,,,,,,,,,Feier,2.8673,236.19388509999953,236.1942395999995,236.19433840000056,236.20854490000056,239.0758420000002,239.06045939999967,239.06594360000054,239.0758420000002,239.0758420000002,239.0758420000002,239.0758420000002,241.07608770000115,241.07608770000115,241.07608770000115,241.07608770000115,241.06041300000106,3,0.7498511000012513,0.20533879999857163,None,,,,,,,,,,,,,,,,,,,,,,8424,1,2025-06-30_16h33.05.816,sm,2024.2.4,59.97080621155811,2025-06-30 16h37.47.643902 +0200,
13,0,13,,,,,,space,3.631702900000164,None,None,3,0.6308631000010791,0.21937269999943965,None,0,0,0,0,,,,,0,0,0,0,,,,,13,0,13,0,241.07608770000115,,,,,,,,,,,,,,,,,,,,,,,,,,,,,,,,,,,,,,,,,,,,,,,,,,,,,,,,,Ball,2.9658,241.06092720000015,241.06144889999996,241.0615615000006,241.07608770000115,244.04248680000092,244.02687700000024,244.03022460000102,244.04248680000092,244.04248680000092,244.04248680000092,244.04248680000092,246.04262999999992,246.04262999999992,246.04262999999992,246.04262999999992,246.0269442000008,3,0.6308631000010791,0.21937269999943965,None,,,,,,,,,,,,,,,,,,,,,,8424,1,2025-06-30_16h33.05.816,sm,2024.2.4,59.97080621155811,2025-06-30 16h37.47.643902 +0200,
14,0,14,,,,,,space,3.631702900000164,None,None,3,0.6448985999995784,0.222986700000547,None,0,0,0,0,,,,,0,0,0,0,,,,,14,0,14,0,246.04262999999992,,,,,,,,,,,,,,,,,,,,,,,,,,,,,,,,,,,,,,,,,,,,,,,,,,,,,,,,,Nebel,2.6792,246.02745270000014,246.0279628999997,246.02807030000076,246.04262999999992,248.72578299999986,248.70993160000035,248.71484489999966,248.72578299999986,248.72578299999986,248.72578299999986,248.72578299999986,250.72561210000094,250.72561210000094,250.72561210000094,250.72561210000094,250.7100874000007,3,0.6448985999995784,0.222986700000547,None,,,,,,,,,,,,,,,,,,,,,,8424,1,2025-06-30_16h33.05.816,sm,2024.2.4,59.97080621155811,2025-06-30 16h37.47.643902 +0200,
15,0,15,,,,,,space,3.631702900000164,None,None,3,0.801212200000009,0.17128539999976056,None,0,0,0,0,,,,,0,0,0,0,,,,,15,0,15,0,250.72561210000094,,,,,,,,,,,,,,,,,,,,,,,,,,,,,,,,,,,,,,,,,,,,,,,,,,,,,,,,,Orange,3.8415,250.71059090000017,250.71110880000015,250.71122389999982,250.72561210000094,254.57499310000094,254.55938270000115,254.5652571999999,254.57499310000094,254.57499310000094,254.57499310000094,254.57499310000094,256.57522880000033,256.57522880000033,256.57522880000033,256.57522880000033,256.5598295,3,0.801212200000009,0.17128539999976056,None,,,,,,,,,,,,,,,,,,,,,,8424,1,2025-06-30_16h33.05.816,sm,2024.2.4,59.97080621155811,2025-06-30 16h37.47.643902 +0200,
16,0,16,,,,,,space,3.631702900000164,None,None,3,1.3152218999985053,0.19147850000081235,None,0,0,0,0,,,,,0,0,0,0,,,,,16,0,16,0,256.57522880000033,,,,,,,,,,,,,,,,,,,,,,,,,,,,,,,,,,,,,,,,,,,,,,,,,,,,,,,,,Hand,2.3504,256.56033820000084,256.56084510000073,256.5609526999997,256.57522880000033,258.92501470000025,258.9093260000009,258.9154073000009,258.92501470000025,258.92501470000025,258.92501470000025,258.92501470000025,260.92501210000046,260.92501210000046,260.92501210000046,260.92501210000046,260.9093955999997,3,1.3152218999985053,0.19147850000081235,None,,,,,,,,,,,,,,,,,,,,,,8424,1,2025-06-30_16h33.05.816,sm,2024.2.4,59.97080621155811,2025-06-30 16h37.47.643902 +0200,
17,0,17,,,,,,space,3.631702900000164,None,None,3,0.953301300000021,0.17096399999900314,None,0,0,0,0,,,,,0,0,0,0,,,,,17,0,17,0,260.92501210000046,,,,,,,,,,,,,,,,,,,,,,,,,,,,,,,,,,,,,,,,,,,,,,,,,,,,,,,,,Konzert,3.5491,260.90990039999997,260.9104318000009,260.9105416000002,260.92501210000046,264.47466180000083,264.4590884999998,264.4631597000007,264.47466180000083,264.47466180000083,264.47466180000083,264.47466180000083,266.474530200001,266.474530200001,266.474530200001,266.474530200001,266.45900210000036,3,0.953301300000021,0.17096399999900314,None,,,,,,,,,,,,,,,,,,,,,,8424,1,2025-06-30_16h33.05.816,sm,2024.2.4,59.97080621155811,2025-06-30 16h37.47.643902 +0200,
18,0,18,,,,,,space,3.631702900000164,None,None,3,0.9601524000008794,0.21052059999965422,None,0,0,0,0,,,,,0,0,0,0,,,,,18,0,18,0,266.474530200001,,,,,,,,,,,,,,,,,,,,,,,,,,,,,,,,,,,,,,,,,,,,,,,,,,,,,,,,,Mund,2.5824,266.4594311000001,266.4598874000003,266.4599775000006,266.474530200001,269.05763320000005,269.04179750000003,269.04473920000055,269.05763320000005,269.05763320000005,269.05763320000005,269.05763320000005,271.0578538000009,271.0578538000009,271.0578538000009,271.0578538000009,271.0422481000005,3,0.9601524000008794,0.21052059999965422,None,,,,,,,,,,,,,,,,,,,,,,8424,1,2025-06-30_16h33.05.816,sm,2024.2.4,59.97080621155811,2025-06-30 16h37.47.643902 +0200,
19,0,19,,,,,,space,3.631702900000164,None,None,3,0.6728050999990955,0.1835073000002012,None,0,0,0,0,,,,,0,0,0,0,,,,,19,0,19,0,271.0578538000009,,,,,,,,,,,,,,,,,,,,,,,,,,,,,,,,,,,,,,,,,,,,,,,,,,,,,,,,,Trennung,2.1032,271.0427516,271.0434038000003,271.0435126000011,271.0578538000009,273.1741608000011,273.15859620000083,273.1626483,273.1741608000011,273.1741608000011,273.1741608000011,273.1741608000011,275.17420950000087,275.17420950000087,275.17420950000087,275.17420950000087,275.1587794999996,3,0.6728050999990955,0.1835073000002012,None,,,,,,,,,,,,,,,,,,,,,,8424,1,2025-06-30_16h33.05.816,sm,2024.2.4,59.97080621155811,2025-06-30 16h37.47.643902 +0200,
20,0,20,,,,,,space,3.631702900000164,None,None,3,0.5447034999997413,0.21854870000061055,None,0,0,0,0,,,,,0,0,0,0,,,,,20,0,20,0,275.17420950000087,,,,,,,,,,,,,,,,,,,,,,,,,,,,,,,,,,,,,,,,,,,,,,,,,,,,,,,,,Klee,2.7451,275.1592810000002,275.159822900001,275.1599318000008,275.17420950000087,277.92390239999986,277.9083692000004,277.9126346000012,277.92390239999986,277.92390239999986,277.92390239999986,277.92390239999986,279.9238514000008,279.9238514000008,279.9238514000008,279.9238514000008,279.9083248000006,3,0.5447034999997413,0.21854870000061055,None,,,,,,,,,,,,,,,,,,,,,,8424,1,2025-06-30_16h33.05.816,sm,2024.2.4,59.97080621155811,2025-06-30 16h37.47.643902 +0200,
21,0,21,,,,,,space,3.631702900000164,None,None,3,0.6290439999993396,0.18309419999968668,None,0,0,0,0,,,,,0,0,0,0,,,,,21,0,21,0,279.9238514000008,,,,,,,,,,,,,,,,,,,,,,,,,,,,,,,,,,,,,,,,,,,,,,,,,,,,,,,,,Fernseher,2.7447,279.90882670000065,279.90937870000016,279.90948560000106,279.9238514000008,282.6736973999996,282.6578855000007,282.66138599999977,282.6736973999996,282.6736973999996,282.6736973999996,282.6736973999996,284.6735514000011,284.6735514000011,284.6735514000011,284.6735514000011,284.65792780000083,3,0.6290439999993396,0.18309419999968668,None,,,,,,,,,,,,,,,,,,,,,,8424,1,2025-06-30_16h33.05.816,sm,2024.2.4,59.97080621155811,2025-06-30 16h37.47.643902 +0200,
22,0,22,,,,,,space,3.631702900000164,None,None,3,0.7007032000001345,0.16449669999929029,None,0,0,0,0,,,,,0,0,0,0,,,,,22,0,22,0,284.6735514000011,,,,,,,,,,,,,,,,,,,,,,,,,,,,,,,,,,,,,,,,,,,,,,,,,,,,,,,,,Gipfel,2.3796,284.6584304000007,284.65909180000017,284.65920170000027,284.6735514000011,287.0566787000007,287.0411511000002,287.0449299000011,287.0566787000007,287.0566787000007,287.0566787000007,287.0566787000007,289.05692810000073,289.05692810000073,289.05692810000073,289.05692810000073,289.04104480000024,3,0.7007032000001345,0.16449669999929029,None,,,,,,,,,,,,,,,,,,,,,,8424,1,2025-06-30_16h33.05.816,sm,2024.2.4,59.97080621155811,2025-06-30 16h37.47.643902 +0200,
23,0,23,,,,,,space,3.631702900000164,None,None,3,0.805306099999143,0.1846523000003799,None,0,0,0,0,,,,,0,0,0,0,,,,,23,0,23,0,289.05692810000073,,,,,,,,,,,,,,,,,,,,,,,,,,,,,,,,,,,,,,,,,,,,,,,,,,,,,,,,,Schwimmen,2.3169,289.04154840000047,289.0420688000013,289.0421771000001,289.05692810000073,291.3732957000011,291.35745210000096,291.36144200000126,291.3732957000011,291.3732957000011,291.3732957000011,291.3732957000011,293.3731922999996,293.3731922999996,293.3731922999996,293.3731922999996,293.357834800001,3,0.805306099999143,0.1846523000003799,None,,,,,,,,,,,,,,,,,,,,,,8424,1,2025-06-30_16h33.05.816,sm,2024.2.4,59.97080621155811,2025-06-30 16h37.47.643902 +0200,
24,0,24,,,,,,space,3.631702900000164,None,None,2,1.1550526000009995,0.17393219999939902,None,0,0,0,0,,,,,0,0,0,0,,,,,24,0,24,0,293.3731922999996,,,,,,,,,,,,,,,,,,,,,,,,,,,,,,,,,,,,,,,,,,,,,,,,,,,,,,,,,Sterne,2.4158,293.35832180000034,293.3588517999997,293.3589599000006,293.3731922999996,295.7897520000006,295.7739113000007,295.7775399000002,295.7897520000006,295.7897520000006,295.7897520000006,295.7897520000006,297.7897739,297.7897739,297.7897739,297.7897739,297.7739462999998,2,1.1550526000009995,0.17393219999939902,None,,,,,,,,,,,,,,,,,,,,,,8424,1,2025-06-30_16h33.05.816,sm,2024.2.4,59.97080621155811,2025-06-30 16h37.47.643902 +0200,
25,0,25,,,,,,space,3.631702900000164,None,None,3,0.7188999999998487,0.12765719999879366,None,0,0,0,0,,,,,0,0,0,0,,,,,25,0,25,0,297.7897739,,,,,,,,,,,,,,,,,,,,,,,,,,,,,,,,,,,,,,,,,,,,,,,,,,,,,,,,,Zucker,2.1062,297.7744452000006,297.77509140000075,297.7751965000007,297.7897739,299.90597250000064,299.89026879999983,299.8935567999997,299.90597250000064,299.90597250000064,299.90597250000064,299.90597250000064,301.9062422999996,301.9062422999996,301.9062422999996,301.9062422999996,301.89035030000014,3,0.7188999999998487,0.12765719999879366,None,,,,,,,,,,,,,,,,,,,,,,8424,1,2025-06-30_16h33.05.816,sm,2024.2.4,59.97080621155811,2025-06-30 16h37.47.643902 +0200,
26,0,26,,,,,,space,3.631702900000164,None,None,3,0.8637816999998904,0.16017660000034084,None,0,0,0,0,,,,,0,0,0,0,,,,,26,0,26,0,301.9062422999996,,,,,,,,,,,,,,,,,,,,,,,,,,,,,,,,,,,,,,,,,,,,,,,,,,,,,,,,,Reise,2.1927,301.8908525000006,301.8914216000012,301.89153090000036,301.9062422999996,304.10582559999966,304.09002390000023,304.09406860000126,304.10582559999966,304.10582559999966,304.10582559999966,304.10582559999966,306.10575659999995,306.10575659999995,306.10575659999995,306.10575659999995,306.09035270000095,3,0.8637816999998904,0.16017660000034084,None,,,,,,,,,,,,,,,,,,,,,,8424,1,2025-06-30_16h33.05.816,sm,2024.2.4,59.97080621155811,2025-06-30 16h37.47.643902 +0200,
27,0,27,,,,,,space,3.631702900000164,None,None,3,1.15358390000074,0.19044779999967432,None,0,0,0,0,,,,,0,0,0,0,,,,,27,0,27,0,306.10575659999995,,,,,,,,,,,,,,,,,,,,,,,,,,,,,,,,,,,,,,,,,,,,,,,,,,,,,,,,,Luft,2.3087,306.09086190000016,306.09137910000027,306.091488,306.10575659999995,308.421903800001,308.40641590000087,308.41026899999997,308.421903800001,308.421903800001,308.421903800001,308.421903800001,310.42248409999956,310.42248409999956,310.42248409999956,310.42248409999956,310.4067898000012,3,1.15358390000074,0.19044779999967432,None,,,,,,,,,,,,,,,,,,,,,,8424,1,2025-06-30_16h33.05.816,sm,2024.2.4,59.97080621155811,2025-06-30 16h37.47.643902 +0200,
28,0,28,,,,,,space,3.631702900000164,None,None,3,0.6993531000007351,0.19551589999900898,None,0,0,0,0,,,,,0,0,0,0,,,,,28,0,28,0,310.42248409999956,,,,,,,,,,,,,,,,,,,,,,,,,,,,,,,,,,,,,,,,,,,,,,,,,,,,,,,,,Gegenwart,2.8966,310.4073035000001,310.40783139999985,310.407936900001,310.42248409999956,313.32194420000087,313.30648140000085,313.31059900000037,313.32194420000087,313.32194420000087,313.32194420000087,313.32194420000087,315.3221104000004,315.3221104000004,315.3221104000004,315.3221104000004,315.30622310000035,3,0.6993531000007351,0.19551589999900898,None,,,,,,,,,,,,,,,,,,,,,,8424,1,2025-06-30_16h33.05.816,sm,2024.2.4,59.97080621155811,2025-06-30 16h37.47.643902 +0200,
29,0,29,,,,,,space,3.631702900000164,None,None,3,1.2592499000002135,0.1739821999999549,None,0,0,0,0,,,,,0,0,0,0,,,,,29,0,29,0,315.3221104000004,,,,,,,,,,,,,,,,,,,,,,,,,,,,,,,,,,,,,,,,,,,,,,,,,,,,,,,,,Nase,2.5984,315.30674089999957,315.30724329999975,315.3073518000001,315.3221104000004,317.92168610000044,317.9061474000009,317.9095873999995,317.92168610000044,317.92168610000044,317.92168610000044,317.92168610000044,319.9216557,319.9216557,319.9216557,319.9216557,319.906192800001,3,1.2592499000002135,0.1739821999999549,None,,,,,,,,,,,,,,,,,,,,,,8424,1,2025-06-30_16h33.05.816,sm,2024.2.4,59.97080621155811,2025-06-30 16h37.47.643902 +0200,
30,0,30,,,,,,space,3.631702900000164,None,None,3,0.9092421000004833,0.17121009999937087,None,0,0,0,0,,,,,0,0,0,0,,,,,30,0,30,0,319.9216557,,,,,,,,,,,,,,,,,,,,,,,,,,,,,,,,,,,,,,,,,,,,,,,,,,,,,,,,,Kappe,3.4001,319.90669960000014,319.90727250000054,319.90738039999997,319.9216557,323.32144979999975,323.30583110000043,323.3089985000006,323.32144979999975,323.32144979999975,323.32144979999975,323.32144979999975,325.3213101000001,325.3213101000001,325.3213101000001,325.3213101000001,325.3056701000005,3,0.9092421000004833,0.17121009999937087,None,,,,,,,,,,,,,,,,,,,,,,8424,1,2025-06-30_16h33.05.816,sm,2024.2.4,59.97080621155811,2025-06-30 16h37.47.643902 +0200,
31,0,31,,,,,,space,3.631702900000164,None,None,3,0.722298700000465,0.19160740000006626,None,0,0,0,0,,,,,0,0,0,0,,,,,31,0,31,0,325.3213101000001,,,,,,,,,,,,,,,,,,,,,,,,,,,,,,,,,,,,,,,,,,,,,,,,,,,,,,,,,Gel,2.0194,325.30617900000107,325.3066811000008,325.3067952000001,325.3213101000001,327.3544780000011,327.33907050000016,327.3424894,327.3544780000011,327.3544780000011,327.3544780000011,327.3544780000011,329.35449470000094,329.35449470000094,329.35449470000094,329.35449470000094,329.3388310999999,3,0.722298700000465,0.19160740000006626,None,,,,,,,,,,,,,,,,,,,,,,8424,1,2025-06-30_16h33.05.816,sm,2024.2.4,59.97080621155811,2025-06-30 16h37.47.643902 +0200,
32,0,32,,,,,,space,3.631702900000164,None,None,2,1.1821767000001273,0.12363069999992149,None,0,0,0,0,,,,,0,0,0,0,,,,,32,0,32,0,329.35449470000094,,,,,,,,,,,,,,,,,,,,,,,,,,,,,,,,,,,,,,,,,,,,,,,,,,,,,,,,,Wein,3.891,329.3393154000005,329.3398140999998,329.33992279999984,329.35449470000094,333.25404309999976,333.23864030000004,333.24212720000105,333.25404309999976,333.25404309999976,333.25404309999976,333.25404309999976,335.2540319,335.2540319,335.2540319,335.2540319,335.23851190000096,2,1.1821767000001273,0.12363069999992149,None,,,,,,,,,,,,,,,,,,,,,,8424,1,2025-06-30_16h33.05.816,sm,2024.2.4,59.97080621155811,2025-06-30 16h37.47.643902 +0200,
33,0,33,,,,,,space,3.631702900000164,None,None,3,0.8642752000014298,0.1884232999982487,None,0,0,0,0,,,,,0,0,0,0,,,,,33,0,33,0,335.2540319,,,,,,,,,,,,,,,,,,,,,,,,,,,,,,,,,,,,,,,,,,,,,,,,,,,,,,,,,Dorn,2.1321,335.2390131000011,335.2396518000005,335.23976109999967,335.2540319,337.3870372000001,337.3714161000007,337.3745622999995,337.3870372000001,337.3870372000001,337.3870372000001,337.3870372000001,339.38711200000034,339.38711200000034,339.38711200000034,339.38711200000034,339.37150570000085,3,0.8642752000014298,0.1884232999982487,None,,,,,,,,,,,,,,,,,,,,,,8424,1,2025-06-30_16h33.05.816,sm,2024.2.4,59.97080621155811,2025-06-30 16h37.47.643902 +0200,
34,0,34,,,,,,space,3.631702900000164,None,None,2,0.8579808000013145,0.21601109999937762,None,0,0,0,0,,,,,0,0,0,0,,,,,34,0,34,0,339.38711200000034,,,,,,,,,,,,,,,,,,,,,,,,,,,,,,,,,,,,,,,,,,,,,,,,,,,,,,,,,Anführer,3.2669,339.3720137,339.3725209000004,339.37263019999955,339.38711200000034,342.6535861000011,342.63784450000094,342.64200560000063,342.6535861000011,342.6535861000011,342.6535861000011,342.6535861000011,344.6534963000013,344.6534963000013,344.6534963000013,344.6534963000013,344.6379409000001,2,0.8579808000013145,0.21601109999937762,None,,,,,,,,,,,,,,,,,,,,,,8424,1,2025-06-30_16h33.05.816,sm,2024.2.4,59.97080621155811,2025-06-30 16h37.47.643902 +0200,
35,0,35,,,,,,space,3.631702900000164,None,None,2,0.8184890000011364,0.1883775999995123,None,0,0,0,0,,,,,0,0,0,0,,,,,35,0,35,0,344.6534963000013,,,,,,,,,,,,,,,,,,,,,,,,,,,,,,,,,,,,,,,,,,,,,,,,,,,,,,,,,Gras,2.9551,344.6384579000005,344.6390437000009,344.63915240000097,344.6534963000013,347.61998119999953,347.6044158000004,347.60806369999955,347.61998119999953,347.61998119999953,347.61998119999953,347.61998119999953,349.6199484000008,349.6199484000008,349.6199484000008,349.6199484000008,349.6045033999999,2,0.8184890000011364,0.1883775999995123,None,,,,,,,,,,,,,,,,,,,,,,8424,1,2025-06-30_16h33.05.816,sm,2024.2.4,59.97080621155811,2025-06-30 16h37.47.643902 +0200,
36,0,36,,,,,,space,3.631702900000164,None,None,3,1.073048899999776,0.19348590000117838,None,0,0,0,0,,,,,0,0,0,0,,,,,36,0,36,0,349.6199484000008,,,,,,,,,,,,,,,,,,,,,,,,,,,,,,,,,,,,,,,,,,,,,,,,,,,,,,,,,Center,2.4215,349.60500990000037,349.6056630000003,349.6057708999997,349.6199484000008,352.0529864,352.0375365,352.0443419000003,352.0529864,352.0529864,352.0529864,352.0529864,354.0533217000011,354.0533217000011,354.0533217000011,354.0533217000011,354.03765380000004,3,1.073048899999776,0.19348590000117838,None,,,,,,,,,,,,,,,,,,,,,,8424,1,2025-06-30_16h33.05.816,sm,2024.2.4,59.97080621155811,2025-06-30 16h37.47.643902 +0200,
37,0,37,,,,,,space,3.631702900000164,None,None,2,0.8753202999996574,0.19739950000075623,None,0,0,0,0,,,,,0,0,0,0,,,,,37,0,37,0,354.0533217000011,,,,,,,,,,,,,,,,,,,,,,,,,,,,,,,,,,,,,,,,,,,,,,,,,,,,,,,,,Monster,4.608,354.038164900001,354.03868560000046,354.03879380000035,354.0533217000011,358.66924330000074,358.65379570000005,358.6578298000004,358.66924330000074,358.66924330000074,358.66924330000074,358.66924330000074,360.6697944999996,360.6697944999996,360.6697944999996,360.6697944999996,360.6534200999995,2,0.8753202999996574,0.19739950000075623,None,,,,,,,,,,,,,,,,,,,,,,8424,1,2025-06-30_16h33.05.816,sm,2024.2.4,59.97080621155811,2025-06-30 16h37.47.643902 +0200,
38,0,38,,,,,,space,3.631702900000164,None,None,3,1.1857072000002518,0.1986412999995082,None,0,0,0,0,,,,,0,0,0,0,,,,,38,0,38,0,360.6697944999996,,,,,,,,,,,,,,,,,,,,,,,,,,,,,,,,,,,,,,,,,,,,,,,,,,,,,,,,,Tee,3.1918,360.6538434000013,360.6542857000004,360.6543753999995,360.6697944999996,363.8690096999999,363.85332259999996,363.85658409999996,363.8690096999999,363.8690096999999,363.8690096999999,363.8690096999999,365.8691940000008,365.8691940000008,365.8691940000008,365.8691940000008,365.85344650000116,3,1.1857072000002518,0.1986412999995082,None,,,,,,,,,,,,,,,,,,,,,,8424,1,2025-06-30_16h33.05.816,sm,2024.2.4,59.97080621155811,2025-06-30 16h37.47.643902 +0200,
39,0,39,,,,,,space,3.631702900000164,None,None,3,1.0706429999991087,0.20287099999950442,None,0,0,0,0,,,,,0,0,0,0,,,,,39,0,39,0,365.8691940000008,,,,,,,,,,,,,,,,,,,,,,,,,,,,,,,,,,,,,,,,,,,,,,,,,,,,,,,,,Ring,2.4282,365.85395770000105,365.85446650000085,365.85457549999956,365.8691940000008,368.30208330000096,368.28663159999996,368.2902721999999,368.30208330000096,368.30208330000096,368.30208330000096,368.30208330000096,370.3021375999997,370.3021375999997,370.3021375999997,370.3021375999997,370.2867274,3,1.0706429999991087,0.20287099999950442,None,,,,,,,,,,,,,,,,,,,,,,8424,1,2025-06-30_16h33.05.816,sm,2024.2.4,59.97080621155811,2025-06-30 16h37.47.643902 +0200,
40,0,40,,,,,,space,3.631702900000164,None,None,2,0.8343244999996386,0.18343169999934616,None,0,0,0,0,,,,,0,0,0,0,,,,,40,0,40,0,370.3021375999997,,,,,,,,,,,,,,,,,,,,,,,,,,,,,,,,,,,,,,,,,,,,,,,,,,,,,,,,,Spinne,2.0999,370.2872361999998,370.2877633999997,370.2879267999997,370.3021375999997,372.4018802999999,372.3857482000003,372.3890580999996,372.4018802999999,372.4018802999999,372.4018802999999,372.4018802999999,374.4017717000006,374.4017717000006,374.4017717000006,374.4017717000006,374.3861792000007,2,0.8343244999996386,0.18343169999934616,None,,,,,,,,,,,,,,,,,,,,,,8424,1,2025-06-30_16h33.05.816,sm,2024.2.4,59.97080621155811,2025-06-30 16h37.47.643902 +0200,
41,0,41,,,,,,space,3.631702900000164,None,None,3,1.042206600001009,0.17763059999924735,None,0,0,0,0,,,,,0,0,0,0,,,,,41,0,41,0,374.4017717000006,,,,,,,,,,,,,,,,,,,,,,,,,,,,,,,,,,,,,,,,,,,,,,,,,,,,,,,,,Sturm,5.9847,374.386680900001,374.38718830000107,374.3872957000003,374.4017717000006,380.4015866000009,380.38582450000104,380.38920189999953,380.4015866000009,380.4015866000009,380.4015866000009,380.4015866000009,382.4015295999998,382.4015295999998,382.4015295999998,382.4015295999998,382.385844800001,3,1.042206600001009,0.17763059999924735,None,,,,,,,,,,,,,,,,,,,,,,8424,1,2025-06-30_16h33.05.816,sm,2024.2.4,59.97080621155811,2025-06-30 16h37.47.643902 +0200,
42,0,42,,,,,,space,3.631702900000164,None,None,3,0.8313777999992453,0.2074372000006406,None,0,0,0,0,,,,,0,0,0,0,,,,,42,0,42,0,382.4015295999998,,,,,,,,,,,,,,,,,,,,,,,,,,,,,,,,,,,,,,,,,,,,,,,,,,,,,,,,,Vulkan,4.7764,382.38635820000127,382.3870177000008,382.38712699999996,382.4015295999998,387.1845661999996,387.16916070000116,387.1729350000005,387.1845661999996,387.1845661999996,387.1845661999996,387.1845661999996,389.1843681999999,389.1843681999999,389.1843681999999,389.1843681999999,389.1689600000009,3,0.8313777999992453,0.2074372000006406,None,,,,,,,,,,,,,,,,,,,,,,8424,1,2025-06-30_16h33.05.816,sm,2024.2.4,59.97080621155811,2025-06-30 16h37.47.643902 +0200,
43,0,43,,,,,,space,3.631702900000164,None,None,3,1.2996839999996155,0.1944139000006544,None,0,0,0,0,,,,,0,0,0,0,,,,,43,0,43,0,389.1843681999999,,,,,,,,,,,,,,,,,,,,,,,,,,,,,,,,,,,,,,,,,,,,,,,,,,,,,,,,,Kunst,2.702,389.16946910000115,389.16998129999956,389.1700916000009,389.1843681999999,391.9008434999996,391.88516379999965,391.88930960000107,391.9008434999996,391.9008434999996,391.9008434999996,391.9008434999996,393.90072090000103,393.90072090000103,393.90072090000103,393.90072090000103,393.8851718999995,3,1.2996839999996155,0.1944139000006544,None,,,,,,,,,,,,,,,,,,,,,,8424,1,2025-06-30_16h33.05.816,sm,2024.2.4,59.97080621155811,2025-06-30 16h37.47.643902 +0200,
44,0,44,,,,,,space,3.631702900000164,None,None,3,1.2473013999988325,0.1821025000008376,None,0,0,0,0,,,,,0,0,0,0,,,,,44,0,44,0,393.90072090000103,,,,,,,,,,,,,,,,,,,,,,,,,,,,,,,,,,,,,,,,,,,,,,,,,,,,,,,,,Beutel,2.186,393.88568060000034,393.8863326999999,393.8864424000003,393.90072090000103,396.10105250000015,396.0848954000012,396.0883285,396.10105250000015,396.10105250000015,396.10105250000015,396.10105250000015,398.1005290000012,398.1005290000012,398.1005290000012,398.1005290000012,398.08500600000116,3,1.2473013999988325,0.1821025000008376,None,,,,,,,,,,,,,,,,,,,,,,8424,1,2025-06-30_16h33.05.816,sm,2024.2.4,59.97080621155811,2025-06-30 16h37.47.643902 +0200,
45,0,45,,,,,,space,3.631702900000164,None,None,3,1.0244030000012572,0.1902228999988438,None,0,0,0,0,,,,,0,0,0,0,,,,,45,0,45,0,398.1005290000012,,,,,,,,,,,,,,,,,,,,,,,,,,,,,,,,,,,,,,,,,,,,,,,,,,,,,,,,,Party,2.9886,398.0855052000006,398.08601389999967,398.08612209999956,398.1005290000012,401.1001408000011,401.08457530000123,401.0906778000008,401.1001408000011,401.1001408000011,401.1001408000011,401.1001408000011,403.10027939999964,403.10027939999964,403.10027939999964,403.10027939999964,403.0846362000011,3,1.0244030000012572,0.1902228999988438,None,,,,,,,,,,,,,,,,,,,,,,8424,1,2025-06-30_16h33.05.816,sm,2024.2.4,59.97080621155811,2025-06-30 16h37.47.643902 +0200,
46,0,46,,,,,,space,3.631702900000164,None,None,3,1.2067999999999302,0.20041809999929683,None,0,0,0,0,,,,,0,0,0,0,,,,,46,0,46,0,403.10027939999964,,,,,,,,,,,,,,,,,,,,,,,,,,,,,,,,,,,,,,,,,,,,,,,,,,,,,,,,,Beugen,2.2933,403.08514660000037,403.08565029999954,403.085755600001,403.10027939999964,405.4001884999998,405.38438680000036,405.3891287999995,405.4001884999998,405.4001884999998,405.4001884999998,405.4001884999998,407.39999270000044,407.39999270000044,407.39999270000044,407.39999270000044,407.3846188999996,3,1.2067999999999302,0.20041809999929683,None,,,,,,,,,,,,,,,,,,,,,,8424,1,2025-06-30_16h33.05.816,sm,2024.2.4,59.97080621155811,2025-06-30 16h37.47.643902 +0200,
47,0,47,,,,,,space,3.631702900000164,None,None,3,1.5561249000002135,0.19149319999996806,None,0,0,0,0,,,,,0,0,0,0,,,,,47,0,47,0,407.39999270000044,,,,,,,,,,,,,,,,,,,,,,,,,,,,,,,,,,,,,,,,,,,,,,,,,,,,,,,,,Blumen,2.6697,407.38511950000066,407.3857571000008,407.3858667000004,407.39999270000044,410.08303069999965,410.06755169999997,410.0714826000003,410.08303069999965,410.08303069999965,410.08303069999965,410.08303069999965,412.08307109999987,412.08307109999987,412.08307109999987,412.08307109999987,412.0674142000007,3,1.5561249000002135,0.19149319999996806,None,,,,,,,,,,,,,,,,,,,,,,8424,1,2025-06-30_16h33.05.816,sm,2024.2.4,59.97080621155811,2025-06-30 16h37.47.643902 +0200,
48,0,48,,,,,,space,3.631702900000164,None,None,3,1.2452045999998518,0.16392679999989923,None,0,0,0,0,,,,,0,0,0,0,,,,,48,0,48,0,412.08307109999987,,,,,,,,,,,,,,,,,,,,,,,,,,,,,,,,,,,,,,,,,,,,,,,,,,,,,,,,,Keller,2.9669,412.0679204999997,412.0684387000001,412.06854829999975,412.08307109999987,415.0493967000002,415.033913700001,415.03733660000034,415.0493967000002,415.0493967000002,415.0493967000002,415.0493967000002,417.04937679999966,417.04937679999966,417.04937679999966,417.04937679999966,417.0338272000008,3,1.2452045999998518,0.16392679999989923,None,,,,,,,,,,,,,,,,,,,,,,8424,1,2025-06-30_16h33.05.816,sm,2024.2.4,59.97080621155811,2025-06-30 16h37.47.643902 +0200,
49,0,49,,,,,,space,3.631702900000164,None,None,2,0.8395276000010199,0.21051029999944149,None,0,0,0,0,,,,,0,0,0,0,,,,,49,0,49,0,417.04937679999966,,,,,,,,,,,,,,,,,,,,,,,,,,,,,,,,,,,,,,,,,,,,,,,,,,,,,,,,,Besucher,4.9515,417.0343356000012,417.0348439999998,417.0349518000003,417.04937679999966,422.0158924999996,422.00011910000103,422.00359690000005,422.0158924999996,422.0158924999996,422.0158924999996,422.0158924999996,424.0156688999996,424.0156688999996,424.0156688999996,424.0156688999996,424.000135100001,2,0.8395276000010199,0.21051029999944149,None,,,,,,,,,,,,,,,,,,,,,,8424,1,2025-06-30_16h33.05.816,sm,2024.2.4,59.97080621155811,2025-06-30 16h37.47.643902 +0200,
50,0,50,,,,,,space,3.631702900000164,None,None,2,0.7880064000000857,0.18884430000071006,None,0,0,0,0,,,,,0,0,0,0,,,,,50,0,50,0,424.0156688999996,,,,,,,,,,,,,,,,,,,,,,,,,,,,,,,,,,,,,,,,,,,,,,,,,,,,,,,,,Hase,2.1888,424.0006408999998,424.0011592999999,424.00126869999986,424.0156688999996,426.2155276000012,426.2000597999995,426.2041730000001,426.2155276000012,426.2155276000012,426.2155276000012,426.2155276000012,428.215452800001,428.215452800001,428.215452800001,428.215452800001,428.2004926999998,2,0.7880064000000857,0.18884430000071006,None,,,,,,,,,,,,,,,,,,,,,,8424,1,2025-06-30_16h33.05.816,sm,2024.2.4,59.97080621155811,2025-06-30 16h37.47.643902 +0200,
51,0,51,,,,,,space,3.631702900000164,None,None,3,1.05923360000088,0.20308419999855687,None,0,0,0,0,,,,,0,0,0,0,,,,,51,0,51,0,428.215452800001,,,,,,,,,,,,,,,,,,,,,,,,,,,,,,,,,,,,,,,,,,,,,,,,,,,,,,,,,Büro,5.5476,428.20099560000017,428.2015697000006,428.2016748999995,428.215452800001,433.7650838999998,433.74962330000017,433.75320640000064,433.7650838999998,433.7650838999998,433.7650838999998,433.7650838999998,435.7651532,435.7651532,435.7651532,435.7651532,435.7492600000005,3,1.05923360000088,0.20308419999855687,None,,,,,,,,,,,,,,,,,,,,,,8424,1,2025-06-30_16h33.05.816,sm,2024.2.4,59.97080621155811,2025-06-30 16h37.47.643902 +0200,
52,0,52,,,,,,space,3.631702900000164,None,None,3,0.9813742000005732,0.21851309999874502,None,0,0,0,0,,,,,0,0,0,0,,,,,52,0,52,0,435.7651532,,,,,,,,,,,,,,,,,,,,,,,,,,,,,,,,,,,,,,,,,,,,,,,,,,,,,,,,,Ringe,3.7326,435.749702000001,435.75019520000023,435.7502929000002,435.7651532,439.49831319999976,439.4822812000002,439.4853858000006,439.49831319999976,439.49831319999976,439.49831319999976,439.49831319999976,441.4981074999996,441.4981074999996,441.4981074999996,441.4981074999996,441.4827906999999,3,0.9813742000005732,0.21851309999874502,None,,,,,,,,,,,,,,,,,,,,,,8424,1,2025-06-30_16h33.05.816,sm,2024.2.4,59.97080621155811,2025-06-30 16h37.47.643902 +0200,
53,0,53,,,,,,space,3.631702900000164,None,None,3,0.8956889000000956,0.18449279999913415,None,0,0,0,0,,,,,0,0,0,0,,,,,53,0,53,0,441.4981074999996,,,,,,,,,,,,,,,,,,,,,,,,,,,,,,,,,,,,,,,,,,,,,,,,,,,,,,,,,Ordner,3.8113,441.4832993,441.48382140000103,441.48393100000067,441.4981074999996,445.314512500001,445.2988012000005,445.3035436000009,445.314512500001,445.314512500001,445.314512500001,445.314512500001,447.31438900000103,447.31438900000103,447.31438900000103,447.31438900000103,447.2989560999995,3,0.8956889000000956,0.18449279999913415,None,,,,,,,,,,,,,,,,,,,,,,8424,1,2025-06-30_16h33.05.816,sm,2024.2.4,59.97080621155811,2025-06-30 16h37.47.643902 +0200,
54,0,54,,,,,,space,3.631702900000164,None,None,3,1.1385620000000927,0.1753008999985468,None,0,0,0,0,,,,,0,0,0,0,,,,,54,0,54,0,447.31438900000103,,,,,,,,,,,,,,,,,,,,,,,,,,,,,,,,,,,,,,,,,,,,,,,,,,,,,,,,,Essen,2.4032,447.29946310000014,447.2999751999996,447.30008610000004,447.31438900000103,449.7308750000011,449.7153032999995,449.71882350000124,449.7308750000011,449.7308750000011,449.7308750000011,449.7308750000011,451.7308501999996,451.7308501999996,451.7308501999996,451.7308501999996,451.7154107000006,3,1.1385620000000927,0.1753008999985468,None,,,,,,,,,,,,,,,,,,,,,,8424,1,2025-06-30_16h33.05.816,sm,2024.2.4,59.97080621155811,2025-06-30 16h37.47.643902 +0200,
55,0,55,,,,,,space,3.631702900000164,None,None,3,1.3323359999994864,0.1995337999996991,None,0,0,0,0,,,,,0,0,0,0,,,,,55,0,55,0,451.7308501999996,,,,,,,,,,,,,,,,,,,,,,,,,,,,,,,,,,,,,,,,,,,,,,,,,,,,,,,,,Schule,2.5705,451.71591810000064,451.7165724000006,451.7166827000001,451.7308501999996,454.3140062000002,454.29809380000006,454.301209700001,454.3140062000002,454.3140062000002,454.3140062000002,454.3140062000002,456.31396230000064,456.31396230000064,456.31396230000064,456.31396230000064,456.29842140000073,3,1.3323359999994864,0.1995337999996991,None,,,,,,,,,,,,,,,,,,,,,,8424,1,2025-06-30_16h33.05.816,sm,2024.2.4,59.97080621155811,2025-06-30 16h37.47.643902 +0200,
56,0,56,,,,,,space,3.631702900000164,None,None,3,0.7160135000012815,0.1810840999987704,None,0,0,0,0,,,,,0,0,0,0,,,,,56,0,56,0,456.31396230000064,,,,,,,,,,,,,,,,,,,,,,,,,,,,,,,,,,,,,,,,,,,,,,,,,,,,,,,,,Lied,2.2831,456.2989230000003,456.2994337,456.2995441000003,456.31396230000064,458.5969490999996,458.5815354999995,458.58503650000057,458.5969490999996,458.5969490999996,458.5969490999996,458.5969490999996,460.5970883000009,460.5970883000009,460.5970883000009,460.5970883000009,460.5813175000003,3,0.7160135000012815,0.1810840999987704,None,,,,,,,,,,,,,,,,,,,,,,8424,1,2025-06-30_16h33.05.816,sm,2024.2.4,59.97080621155811,2025-06-30 16h37.47.643902 +0200,
57,0,57,,,,,,space,3.631702900000164,None,None,2,1.0857338000005257,0.16259809999974095,None,0,0,0,0,,,,,0,0,0,0,,,,,57,0,57,0,460.5970883000009,,,,,,,,,,,,,,,,,,,,,,,,,,,,,,,,,,,,,,,,,,,,,,,,,,,,,,,,,Koch,2.0428,460.58182769999985,460.5823192000007,460.5824291000008,460.5970883000009,462.6466252000009,462.63098329999957,462.63412530000096,462.6466252000009,462.6466252000009,462.6466252000009,462.6466252000009,464.64669890000005,464.64669890000005,464.64669890000005,464.64669890000005,464.6310295000003,2,1.0857338000005257,0.16259809999974095,None,,,,,,,,,,,,,,,,,,,,,,8424,1,2025-06-30_16h33.05.816,sm,2024.2.4,59.97080621155811,2025-06-30 16h37.47.643902 +0200,
58,0,58,,,,,,space,3.631702900000164,None,None,3,0.8394913000011002,0.20185349999883329,None,0,0,0,0,,,,,0,0,0,0,,,,,58,0,58,0,464.64669890000005,,,,,,,,,,,,,,,,,,,,,,,,,,,,,,,,,,,,,,,,,,,,,,,,,,,,,,,,,Bild,3.2553,464.6315488,464.63215690000106,464.6323284000009,464.64669890000005,467.91328129999965,467.89745700000094,467.90028540000094,467.91328129999965,467.91328129999965,467.91328129999965,467.91328129999965,469.9131218000002,469.9131218000002,469.9131218000002,469.9131218000002,469.8975967999995,3,0.8394913000011002,0.20185349999883329,None,,,,,,,,,,,,,,,,,,,,,,8424,1,2025-06-30_16h33.05.816,sm,2024.2.4,59.97080621155811,2025-06-30 16h37.47.643902 +0200,
59,0,59,,,,,,space,3.631702900000164,None,None,3,0.7545574999985547,0.16756710000117891,None,0,0,0,0,,,,,0,0,0,0,,,,,59,0,59,0,469.9131218000002,,,,,,,,,,,,,,,,,,,,,,,,,,,,,,,,,,,,,,,,,,,,,,,,,,,,,,,,,Auto,3.3597,469.89809930000047,469.8987527999998,469.8988612000012,469.9131218000002,473.27961810000124,473.26414959999966,473.26771499999995,473.27961810000124,473.27961810000124,473.27961810000124,473.27961810000124,475.27956710000035,475.27956710000035,475.27956710000035,475.27956710000035,475.26397820000057,3,0.7545574999985547,0.16756710000117891,None,,,,,,,,,,,,,,,,,,,,,,8424,1,2025-06-30_16h33.05.816,sm,2024.2.4,59.97080621155811,2025-06-30 16h37.47.643902 +0200,
60,0,60,,,,,,space,3.631702900000164,None,None,3,1.1602220000004309,0.2369872999988729,None,0,0,0,0,,,,,0,0,0,0,,,,,60,0,60,0,475.27956710000035,,,,,,,,,,,,,,,,,,,,,,,,,,,,,,,,,,,,,,,,,,,,,,,,,,,,,,,,,Shampoo,2.1617,475.2644880000007,475.2650033000009,475.2651108000009,475.27956710000035,477.4460627999997,477.4304131000008,477.4353525000006,477.4460627999997,477.4460627999997,477.4460627999997,477.4460627999997,479.44606300000123,479.44606300000123,479.44606300000123,479.44606300000123,479.4309252000003,3,1.1602220000004309,0.2369872999988729,None,,,,,,,,,,,,,,,,,,,,,,8424,1,2025-06-30_16h33.05.816,sm,2024.2.4,59.97080621155811,2025-06-30 16h37.47.643902 +0200,
61,0,61,,,,,,space,3.631702900000164,None,None,3,0.7008767999996053,0.21051769999940007,None,0,0,0,0,,,,,0,0,0,0,,,,,61,0,61,0,479.44606300000123,,,,,,,,,,,,,,,,,,,,,,,,,,,,,,,,,,,,,,,,,,,,,,,,,,,,,,,,,Schlamm,2.2344,479.4314322000009,479.43194870000116,479.4320609000006,479.44606300000123,481.69574939999984,481.6802614999997,481.6840346000008,481.69574939999984,481.69574939999984,481.69574939999984,481.69574939999984,483.6956788000007,483.6956788000007,483.6956788000007,483.6956788000007,483.6802109,3,0.7008767999996053,0.21051769999940007,None,,,,,,,,,,,,,,,,,,,,,,8424,1,2025-06-30_16h33.05.816,sm,2024.2.4,59.97080621155811,2025-06-30 16h37.47.643902 +0200,
62,0,62,,,,,,space,3.631702900000164,None,None,3,0.6093074999989767,0.21343260000139708,None,0,0,0,0,,,,,0,0,0,0,,,,,62,0,62,0,483.6956788000007,,,,,,,,,,,,,,,,,,,,,,,,,,,,,,,,,,,,,,,,,,,,,,,,,,,,,,,,,Chips,2.3505,483.680693100001,483.6811859999998,483.6812924999995,483.6956788000007,486.04611099999966,486.02959809999993,486.03312370000094,486.04611099999966,486.04611099999966,486.04611099999966,486.04611099999966,488.04543300000114,488.04543300000114,488.04543300000114,488.04543300000114,488.030127,3,0.6093074999989767,0.21343260000139708,None,,,,,,,,,,,,,,,,,,,,,,8424,1,2025-06-30_16h33.05.816,sm,2024.2.4,59.97080621155811,2025-06-30 16h37.47.643902 +0200,
63,0,63,,,,,,space,3.631702900000164,None,None,3,0.6596482000004471,0.2537979999997333,None,0,0,0,0,,,,,0,0,0,0,,,,,63,0,63,0,488.04543300000114,,,,,,,,,,,,,,,,,,,,,,,,,,,,,,,,,,,,,,,,,,,,,,,,,,,,,,,,,Kante,2.2165,488.0306357999998,488.0313698000009,488.03147700000045,488.04543300000114,490.262104200001,490.2463753000011,490.2503508000009,490.262104200001,490.262104200001,490.262104200001,490.262104200001,492.26202750000084,492.26202750000084,492.26202750000084,492.26202750000084,492.2464070999995,3,0.6596482000004471,0.2537979999997333,None,,,,,,,,,,,,,,,,,,,,,,8424,1,2025-06-30_16h33.05.816,sm,2024.2.4,59.97080621155811,2025-06-30 16h37.47.643902 +0200,
64,0,64,,,,,,space,3.631702900000164,None,None,3,0.6751519999997981,0.19512100000065402,None,0,0,0,0,,,,,0,0,0,0,,,,,64,0,64,0,492.26202750000084,,,,,,,,,,,,,,,,,,,,,,,,,,,,,,,,,,,,,,,,,,,,,,,,,,,,,,,,,Frieden,2.807,492.2469206000005,492.2475439000009,492.2476537000002,492.26202750000084,495.0781399000007,495.0626269000004,495.0664162000012,495.0781399000007,495.0781399000007,495.0781399000007,495.0781399000007,497.0787719,497.0787719,497.0787719,497.0787719,497.06267070000104,3,0.6751519999997981,0.19512100000065402,None,,,,,,,,,,,,,,,,,,,,,,8424,1,2025-06-30_16h33.05.816,sm,2024.2.4,59.97080621155811,2025-06-30 16h37.47.643902 +0200,
65,0,65,,,,,,space,3.631702900000164,None,None,3,0.6045881000009103,0.18541029999869352,None,0,0,0,0,,,,,0,0,0,0,,,,,65,0,65,0,497.0787719,,,,,,,,,,,,,,,,,,,,,,,,,,,,,,,,,,,,,,,,,,,,,,,,,,,,,,,,,Nachricht,3.5789,497.06317579999995,497.06369040000027,497.0637994000008,497.0787719,500.6612143000002,500.6458352000009,500.6502474000008,500.6612143000002,500.6612143000002,500.6612143000002,500.6612143000002,502.6614014000006,502.6614014000006,502.6614014000006,502.6614014000006,502.64583289999973,3,0.6045881000009103,0.18541029999869352,None,,,,,,,,,,,,,,,,,,,,,,8424,1,2025-06-30_16h33.05.816,sm,2024.2.4,59.97080621155811,2025-06-30 16h37.47.643902 +0200,
66,0,66,,,,,,space,3.631702900000164,None,None,3,0.6129917999987811,0.16613719999986643,None,0,0,0,0,,,,,0,0,0,0,,,,,66,0,66,0,502.6614014000006,,,,,,,,,,,,,,,,,,,,,,,,,,,,,,,,,,,,,,,,,,,,,,,,,,,,,,,,,Fakt,3.8482,502.6463418000003,502.64685160000045,502.6469586000003,502.6614014000006,506.51099520000025,506.4953544,506.4990213000001,506.51099520000025,506.51099520000025,506.51099520000025,506.51099520000025,508.5110201999996,508.5110201999996,508.5110201999996,508.5110201999996,508.4953750000004,3,0.6129917999987811,0.16613719999986643,None,,,,,,,,,,,,,,,,,,,,,,8424,1,2025-06-30_16h33.05.816,sm,2024.2.4,59.97080621155811,2025-06-30 16h37.47.643902 +0200,
67,0,67,,,,,,space,3.631702900000164,None,None,3,0.720532600000297,0.20585709999977553,None,0,0,0,0,,,,,0,0,0,0,,,,,67,0,67,0,508.5110201999996,,,,,,,,,,,,,,,,,,,,,,,,,,,,,,,,,,,,,,,,,,,,,,,,,,,,,,,,,Spaß,2.1562,508.4958795000002,508.49652009999954,508.49662499999977,508.5110201999996,510.6774325999995,510.6620586000008,510.66783150000083,510.6774325999995,510.6774325999995,510.6774325999995,510.6774325999995,512.6777113999997,512.6777113999997,512.6777113999997,512.6777113999997,512.6617614000006,3,0.720532600000297,0.20585709999977553,None,,,,,,,,,,,,,,,,,,,,,,8424,1,2025-06-30_16h33.05.816,sm,2024.2.4,59.97080621155811,2025-06-30 16h37.47.643902 +0200,
68,0,68,,,,,,space,3.631702900000164,None,None,3,0.9768944999996165,0.1882011000016064,None,0,0,0,0,,,,,0,0,0,0,,,,,68,0,68,0,512.6777113999997,,,,,,,,,,,,,,,,,,,,,,,,,,,,,,,,,,,,,,,,,,,,,,,,,,,,,,,,,Erbe,3.0608,512.6622705000009,512.6627789000013,512.6628880000007,512.6777113999997,515.7437026000007,515.7280740999995,515.7317717999995,515.7437026000007,515.7437026000007,515.7437026000007,515.7437026000007,517.7442219000004,517.7442219000004,517.7442219000004,517.7442219000004,517.7283361999998,3,0.9768944999996165,0.1882011000016064,None,,,,,,,,,,,,,,,,,,,,,,8424,1,2025-06-30_16h33.05.816,sm,2024.2.4,59.97080621155811,2025-06-30 16h37.47.643902 +0200,
69,0,69,,,,,,space,3.631702900000164,None,None,2,0.7891135000008944,0.1998755999993591,None,0,0,0,0,,,,,0,0,0,0,,,,,69,0,69,0,517.7442219000004,,,,,,,,,,,,,,,,,,,,,,,,,,,,,,,,,,,,,,,,,,,,,,,,,,,,,,,,,Turnerin,5.2557,517.7288372000003,517.7294211999997,517.7295274999997,517.7442219000004,523.0097705000007,522.9939609000012,522.9980665000003,523.0097705000007,523.0097705000007,523.0097705000007,523.0097705000007,525.010038800001,525.010038800001,525.010038800001,525.010038800001,524.9944323,2,0.7891135000008944,0.1998755999993591,None,,,,,,,,,,,,,,,,,,,,,,8424,1,2025-06-30_16h33.05.816,sm,2024.2.4,59.97080621155811,2025-06-30 16h37.47.643902 +0200,
70,0,70,,,,,,space,3.631702900000164,None,None,3,1.8281927000007272,None,None,0,0,0,0,,,,,0,0,0,0,,,,,70,0,70,0,525.010038800001,,,,,,,,,,,,,,,,,,,,,,,,,,,,,,,,,,,,,,,,,,,,,,,,,,,,,,,,,Soße,2.6868,524.9949416,524.9954476000003,524.9955545000012,525.010038800001,527.710193500001,527.6942835000009,527.697983600001,527.710193500001,527.710193500001,527.710193500001,527.710193500001,529.7099116000009,529.7099116000009,529.7099116000009,529.7099116000009,529.6942175000004,3,1.8281927000007272,None,None,,,,,,,,,,,,,,,,,,,,,,8424,1,2025-06-30_16h33.05.816,sm,2024.2.4,59.97080621155811,2025-06-30 16h37.47.643902 +0200,
71,0,71,,,,,,space,3.631702900000164,None,None,2,0.9506750000000466,0.225645300000906,None,0,0,0,0,,,,,0,0,0,0,,,,,71,0,71,0,529.7099116000009,,,,,,,,,,,,,,,,,,,,,,,,,,,,,,,,,,,,,,,,,,,,,,,,,,,,,,,,,Tanne,4.9472,529.6947218000005,529.6953984000011,529.6955080000007,529.7099116000009,534.6594081000003,534.6437055000006,534.6474466,534.6594081000003,534.6594081000003,534.6594081000003,534.6594081000003,536.659414400001,536.659414400001,536.659414400001,536.659414400001,536.643524000001,2,0.9506750000000466,0.225645300000906,None,,,,,,,,,,,,,,,,,,,,,,8424,1,2025-06-30_16h33.05.816,sm,2024.2.4,59.97080621155811,2025-06-30 16h37.47.643902 +0200,
72,0,72,,,,,,space,3.631702900000164,None,None,2,1.0434558000015386,0.2117683999986184,None,0,0,0,0,,,,,0,0,0,0,,,,,72,0,72,0,536.659414400001,,,,,,,,,,,,,,,,,,,,,,,,,,,,,,,,,,,,,,,,,,,,,,,,,,,,,,,,,Journalistin,2.1576,536.6439499000007,536.6444219000005,536.6445158000006,536.659414400001,538.825443400001,538.8102748000001,538.8165378000012,538.825443400001,538.825443400001,538.825443400001,538.825443400001,540.8257209000003,540.8257209000003,540.8257209000003,540.8257209000003,540.8101076000003,2,1.0434558000015386,0.2117683999986184,None,,,,,,,,,,,,,,,,,,,,,,8424,1,2025-06-30_16h33.05.816,sm,2024.2.4,59.97080621155811,2025-06-30 16h37.47.643902 +0200,
73,0,73,,,,,,space,3.631702900000164,None,None,3,1.8184156999996048,None,None,0,0,0,0,,,,,0,0,0,0,,,,,73,0,73,0,540.8257209000003,,,,,,,,,,,,,,,,,,,,,,,,,,,,,,,,,,,,,,,,,,,,,,,,,,,,,,,,,Schmerz,2.1483,540.810613900001,540.8112660999996,540.8113727,540.8257209000003,542.9755796999998,542.9601691999997,542.9654085000002,542.9755796999998,542.9755796999998,542.9755796999998,542.9755796999998,544.9756572000006,544.9756572000006,544.9756572000006,544.9756572000006,544.9597737000004,3,1.8184156999996048,None,None,,,,,,,,,,,,,,,,,,,,,,8424,1,2025-06-30_16h33.05.816,sm,2024.2.4,59.97080621155811,2025-06-30 16h37.47.643902 +0200,
74,0,74,,,,,,space,3.631702900000164,None,None,3,1.3622290999992401,0.19748020000042743,None,0,0,0,0,,,,,0,0,0,0,,,,,74,0,74,0,544.9756572000006,,,,,,,,,,,,,,,,,,,,,,,,,,,,,,,,,,,,,,,,,,,,,,,,,,,,,,,,,Gold,3.3423,544.9602027000001,544.9608220999999,544.9609122000002,544.9756572000006,548.3253074000004,548.3097484000009,548.3133295999996,548.3253074000004,548.3253074000004,548.3253074000004,548.3253074000004,550.325775700001,550.325775700001,550.325775700001,550.325775700001,550.3102706999998,3,1.3622290999992401,0.19748020000042743,None,,,,,,,,,,,,,,,,,,,,,,8424,1,2025-06-30_16h33.05.816,sm,2024.2.4,59.97080621155811,2025-06-30 16h37.47.643902 +0200,
75,0,75,,,,,,space,3.631702900000164,None,None,2,0.8791807999987213,0.1800165000004199,None,0,0,0,0,,,,,0,0,0,0,,,,,75,0,75,0,550.325775700001,,,,,,,,,,,,,,,,,,,,,,,,,,,,,,,,,,,,,,,,,,,,,,,,,,,,,,,,,Professor,3.6236,550.3107736000002,550.3113685999997,550.3114733000002,550.325775700001,553.9582370999997,553.9427589000006,553.9467643999997,553.9582370999997,553.9582370999997,553.9582370999997,553.9582370999997,555.9583553000011,555.9583553000011,555.9583553000011,555.9583553000011,555.9428238,2,0.8791807999987213,0.1800165000004199,None,,,,,,,,,,,,,,,,,,,,,,8424,1,2025-06-30_16h33.05.816,sm,2024.2.4,59.97080621155811,2025-06-30 16h37.47.643902 +0200,
76,0,76,,,,,,space,3.631702900000164,None,None,2,0.6977098999996088,0.22424130000035802,None,0,0,0,0,,,,,0,0,0,0,,,,,76,0,76,0,555.9583553000011,,,,,,,,,,,,,,,,,,,,,,,,,,,,,,,,,,,,,,,,,,,,,,,,,,,,,,,,,Elephant,2.8976,555.9433305000002,555.9438547999998,555.9439650000004,555.9583553000011,558.8581589000005,558.8422776000007,558.8458563000004,558.8581589000005,558.8581589000005,558.8581589000005,558.8581589000005,560.8580997999998,560.8580997999998,560.8580997999998,560.8580997999998,560.8427783999996,2,0.6977098999996088,0.22424130000035802,None,,,,,,,,,,,,,,,,,,,,,,8424,1,2025-06-30_16h33.05.816,sm,2024.2.4,59.97080621155811,2025-06-30 16h37.47.643902 +0200,
77,0,77,,,,,,space,3.631702900000164,None,None,3,1.160448599999654,0.20146460000069055,None,0,0,0,0,,,,,0,0,0,0,,,,,77,0,77,0,560.8580997999998,,,,,,,,,,,,,,,,,,,,,,,,,,,,,,,,,,,,,,,,,,,,,,,,,,,,,,,,,Schnürsenkel,2.2309,560.8432878000003,560.843944100001,560.8440587000005,560.8580997999998,563.0919618999997,563.0754833999999,563.079476500001,563.0919618999997,563.0919618999997,563.0919618999997,563.0919618999997,565.0913385000003,565.0913385000003,565.0913385000003,565.0913385000003,565.0755353000004,3,1.160448599999654,0.20146460000069055,None,,,,,,,,,,,,,,,,,,,,,,8424,1,2025-06-30_16h33.05.816,sm,2024.2.4,59.97080621155811,2025-06-30 16h37.47.643902 +0200,
78,0,78,,,,,,space,3.631702900000164,None,None,3,1.0644787000001088,0.18315979999897536,None,0,0,0,0,,,,,0,0,0,0,,,,,78,0,78,0,565.0913385000003,,,,,,,,,,,,,,,,,,,,,,,,,,,,,,,,,,,,,,,,,,,,,,,,,,,,,,,,,Wanne,2.092,565.076039900001,565.076541800001,565.0766502999995,565.0913385000003,567.1909198000012,567.1753128,567.1786537000007,567.1909198000012,567.1909198000012,567.1909198000012,567.1909198000012,569.1908099000011,569.1908099000011,569.1908099000011,569.1908099000011,569.1752956,3,1.0644787000001088,0.18315979999897536,None,,,,,,,,,,,,,,,,,,,,,,8424,1,2025-06-30_16h33.05.816,sm,2024.2.4,59.97080621155811,2025-06-30 16h37.47.643902 +0200,
79,0,79,,,,,,space,3.631702900000164,None,None,3,0.7821670000012091,0.21926639999946929,None,0,0,0,0,,,,,0,0,0,0,,,,,79,0,79,0,569.1908099000011,,,,,,,,,,,,,,,,,,,,,,,,,,,,,,,,,,,,,,,,,,,,,,,,,,,,,,,,,Rock,4.0411,569.1758010000012,569.1764366999996,569.1765429999996,569.1908099000011,573.2404215999995,573.2251044000004,573.2285726999999,573.2404215999995,573.2404215999995,573.2404215999995,573.2404215999995,575.2526077000002,575.2526077000002,575.2526077000002,575.2526077000002,575.2250332000003,3,0.7821670000012091,0.21926639999946929,None,,,,,,,,,,,,,,,,,,,,,,8424,1,2025-06-30_16h33.05.816,sm,2024.2.4,59.97080621155811,2025-06-30 16h37.47.643902 +0200,
0,0,0,,,,,4.9038,space,1.7776068999992276,None,None,3,1.0821188999998412,0.2057492000003549,None,0,0,0,0,,,,,1,0,1,0,0,79,79,41,0,0,0,0,619.1880990999998,,,,,,,,,,,,,,,,,,,,,,,,,,,,,,,,,,,,592.6676213999999,592.6678969000004,592.6741804000012,592.6778279999999,592.6778279999999,594.4743833000011,space,1.7776068999992276,None,594.474537600001,594.4896867999996,594.4896867999996,607.1737353999997,None,607.1813112,607.1888314999997,607.1889921666664,608.3949883000005,617.1884026666669,618.1951776999995,619.1724410000006,Foto,4.9038,619.1738910000004,619.1744759000012,619.174590300001,619.1880990999998,624.1043307,624.0890517000007,624.0927986999995,624.1043307,624.1043307,624.1043307,624.1043307,626.1044140000013,626.1044140000013,626.1044140000013,626.1044140000013,626.0887801000008,3,1.0821188999998412,0.2057492000003549,None,587.2399366000009,587.2400009000012,None,587.2493396000009,587.2564445999997,591.2565769000012,591.2565769000012,591.2565769000012,592.623112700001,2,1.3645057000012457,None,619.1880990999998,,,,,,,,,8424,1,2025-06-30_16h33.05.816,sm,2024.2.4,59.97080621155811,2025-06-30 16h37.47.643902 +0200,
1,0,1,,,,,,space,1.7776068999992276,None,None,3,0.6721748999989359,0.194547800001601,None,0,0,0,0,,,,,1,0,1,0,,,,,1,0,1,0,626.1044140000013,,,,,,,,,,,,,,,,,,,,,,,,,,,,,,,,,,,,,,,,,,,,,,,,,,,,,,,,,Telefon,2.9551,626.0892851000008,626.0898154999995,626.0899234999997,626.1044140000013,629.0708317999997,629.0549563000004,629.0584868000005,629.0708317999997,629.0708317999997,629.0708317999997,629.0708317999997,631.0706645999999,631.0706645999999,631.0706645999999,631.0706645999999,631.0551484000007,3,0.6721748999989359,0.194547800001601,None,,,,,,,,,,,,,,,,,,,,,,8424,1,2025-06-30_16h33.05.816,sm,2024.2.4,59.97080621155811,2025-06-30 16h37.47.643902 +0200,
2,0,2,,,,,,space,1.7776068999992276,None,None,3,0.8135065999995277,0.16840890000094078,None,0,0,0,0,,,,,1,0,1,0,,,,,2,0,2,0,631.0706645999999,,,,,,,,,,,,,,,,,,,,,,,,,,,,,,,,,,,,,,,,,,,,,,,,,,,,,,,,,Rolle,2.3796,631.0556515000007,631.0561746000003,631.0562823,631.0706645999999,633.4538040000007,633.4382396000001,633.4418865999996,633.4538040000007,633.4538040000007,633.4538040000007,633.4538040000007,635.4539865999996,635.4539865999996,635.4539865999996,635.4539865999996,635.4381107000008,3,0.8135065999995277,0.16840890000094078,None,,,,,,,,,,,,,,,,,,,,,,8424,1,2025-06-30_16h33.05.816,sm,2024.2.4,59.97080621155811,2025-06-30 16h37.47.643902 +0200,
3,0,3,,,,,,space,1.7776068999992276,None,None,3,0.8707207999996172,0.2422724999996717,None,0,0,0,0,,,,,1,0,1,0,,,,,3,0,3,0,635.4539865999996,,,,,,,,,,,,,,,,,,,,,,,,,,,,,,,,,,,,,,,,,,,,,,,,,,,,,,,,,Scheidung,2.8673,635.4386200000008,635.4391317000009,635.4392387999997,635.4539865999996,638.3203567,638.3048842000007,638.3090933000003,638.3203567,638.3203567,638.3203567,638.3203567,640.3207025000011,640.3207025000011,640.3207025000011,640.3207025000011,640.3046501999997,3,0.8707207999996172,0.2422724999996717,None,,,,,,,,,,,,,,,,,,,,,,8424,1,2025-06-30_16h33.05.816,sm,2024.2.4,59.97080621155811,2025-06-30 16h37.47.643902 +0200,
4,0,4,,,,,,space,1.7776068999992276,None,None,3,1.2853494999999384,0.1835123000000749,None,0,0,0,0,,,,,1,0,1,0,,,,,4,0,4,0,640.3207025000011,,,,,,,,,,,,,,,,,,,,,,,,,,,,,,,,,,,,,,,,,,,,,,,,,,,,,,,,,Zapfen,2.6697,640.3051475000011,640.3057867999996,640.3058925000005,640.3207025000011,643.0034649000008,642.9877176000009,642.9927860999996,643.0034649000008,643.0034649000008,643.0034649000008,643.0034649000008,645.0033113000009,645.0033113000009,645.0033113000009,645.0033113000009,644.987847800001,3,1.2853494999999384,0.1835123000000749,None,,,,,,,,,,,,,,,,,,,,,,8424,1,2025-06-30_16h33.05.816,sm,2024.2.4,59.97080621155811,2025-06-30 16h37.47.643902 +0200,
5,0,5,,,,,,space,1.7776068999992276,None,None,3,0.7826136999992741,0.18987930000002962,None,0,0,0,0,,,,,1,0,1,0,,,,,5,0,5,0,645.0033113000009,,,,,,,,,,,,,,,,,,,,,,,,,,,,,,,,,,,,,,,,,,,,,,,,,,,,,,,,,Kälte,2.1562,644.9883432999995,644.9888702000007,644.9889846999995,645.0033113000009,647.1701045999998,647.1543163000006,647.1582522000008,647.1701045999998,647.1701045999998,647.1701045999998,647.1701045999998,649.1696841000012,649.1696841000012,649.1696841000012,649.1696841000012,649.1542014999995,3,0.7826136999992741,0.18987930000002962,None,,,,,,,,,,,,,,,,,,,,,,8424,1,2025-06-30_16h33.05.816,sm,2024.2.4,59.97080621155811,2025-06-30 16h37.47.643902 +0200,
6,0,6,,,,,,space,1.7776068999992276,None,None,3,0.5741981999999552,0.10830820000046515,None,0,0,0,0,,,,,1,0,1,0,,,,,6,0,6,0,649.1696841000012,,,,,,,,,,,,,,,,,,,,,,,,,,,,,,,,,,,,,,,,,,,,,,,,,,,,,,,,,Tube,2.1617,649.1546747000011,649.1552976000003,649.1553977000003,649.1696841000012,651.3361879000004,651.3204919,651.323716500001,651.3361879000004,651.3361879000004,651.3361879000004,651.3361879000004,653.3361633000004,653.3361633000004,653.3361633000004,653.3361633000004,653.3207579999998,3,0.5741981999999552,0.10830820000046515,None,,,,,,,,,,,,,,,,,,,,,,8424,1,2025-06-30_16h33.05.816,sm,2024.2.4,59.97080621155811,2025-06-30 16h37.47.643902 +0200,
7,0,7,,,,,,space,1.7776068999992276,None,None,2,0.7703342000004341,0.20980260000033013,None,0,0,0,0,,,,,1,0,1,0,,,,,7,0,7,0,653.3361633000004,,,,,,,,,,,,,,,,,,,,,,,,,,,,,,,,,,,,,,,,,,,,,,,,,,,,,,,,,Känguru,2.4158,653.321265300001,653.3217762000004,653.3218893000012,653.3361633000004,655.752564800001,655.7370891999999,655.7411907000005,655.752564800001,655.752564800001,655.752564800001,655.752564800001,657.753056900001,657.753056900001,657.753056900001,657.753056900001,657.7370119000007,2,0.7703342000004341,0.20980260000033013,None,,,,,,,,,,,,,,,,,,,,,,8424,1,2025-06-30_16h33.05.816,sm,2024.2.4,59.97080621155811,2025-06-30 16h37.47.643902 +0200,
8,0,8,,,,,,space,1.7776068999992276,None,None,3,0.7013733000003413,0.21463000000039756,None,0,0,0,0,,,,,1,0,1,0,,,,,8,0,8,0,657.753056900001,,,,,,,,,,,,,,,,,,,,,,,,,,,,,,,,,,,,,,,,,,,,,,,,,,,,,,,,,Liebe,4.0411,657.737523400001,657.7382064000012,657.7383148000008,657.753056900001,661.8022672999996,661.7864523999997,661.7895390000012,661.8022672999996,661.8022672999996,661.8022672999996,661.8022672999996,663.802340100001,663.802340100001,663.802340100001,663.802340100001,663.786587300001,3,0.7013733000003413,0.21463000000039756,None,,,,,,,,,,,,,,,,,,,,,,8424,1,2025-06-30_16h33.05.816,sm,2024.2.4,59.97080621155811,2025-06-30 16h37.47.643902 +0200,
9,0,9,,,,,,space,1.7776068999992276,None,None,3,0.6029465999999957,0.21258929999930842,None,0,0,0,0,,,,,1,0,1,0,,,,,9,0,9,0,663.802340100001,,,,,,,,,,,,,,,,,,,,,,,,,,,,,,,,,,,,,,,,,,,,,,,,,,,,,,,,,Garten,2.1062,663.7871058000001,663.7876077000001,663.7877277000007,663.802340100001,665.9187039000008,665.9031799000004,665.9070080000001,665.9187039000008,665.9187039000008,665.9187039000008,665.9187039000008,667.9188465999996,667.9188465999996,667.9188465999996,667.9188465999996,667.9030760000005,3,0.6029465999999957,0.21258929999930842,None,,,,,,,,,,,,,,,,,,,,,,8424,1,2025-06-30_16h33.05.816,sm,2024.2.4,59.97080621155811,2025-06-30 16h37.47.643902 +0200,
10,0,10,,,,,,space,1.7776068999992276,None,None,3,0.5805165999991004,0.3169211999993422,None,0,0,0,0,,,,,1,0,1,0,,,,,10,0,10,0,667.9188465999996,,,,,,,,,,,,,,,,,,,,,,,,,,,,,,,,,,,,,,,,,,,,,,,,,,,,,,,,,Wahrheit,2.1321,667.9035873000012,667.9040944999997,667.9042012999998,667.9188465999996,670.0518478000013,670.0360942999996,670.0397993000006,670.0518478000013,670.0518478000013,670.0518478000013,670.0518478000013,672.0517545000002,672.0517545000002,672.0517545000002,672.0517545000002,672.0362774000005,3,0.5805165999991004,0.3169211999993422,None,,,,,,,,,,,,,,,,,,,,,,8424,1,2025-06-30_16h33.05.816,sm,2024.2.4,59.97080621155811,2025-06-30 16h37.47.643902 +0200,
11,0,11,,,,,,space,1.7776068999992276,None,None,3,0.9009906999999657,0.22022939999988012,None,0,0,0,0,,,,,1,0,1,0,,,,,11,0,11,0,672.0517545000002,,,,,,,,,,,,,,,,,,,,,,,,,,,,,,,,,,,,,,,,,,,,,,,,,,,,,,,,,Lokomotive,2.9886,672.0367760000008,672.0372874000004,672.0373940999998,672.0517545000002,675.0520912000011,675.0359666000004,675.0402474000002,675.0520912000011,675.0520912000011,675.0520912000011,675.0520912000011,677.0514693000005,677.0514693000005,677.0514693000005,677.0514693000005,677.0358957000008,3,0.9009906999999657,0.22022939999988012,None,,,,,,,,,,,,,,,,,,,,,,8424,1,2025-06-30_16h33.05.816,sm,2024.2.4,59.97080621155811,2025-06-30 16h37.47.643902 +0200,
12,0,12,,,,,,space,1.7776068999992276,None,None,3,0.7713284999990719,0.1482004000008601,None,0,0,0,0,,,,,1,0,1,0,,,,,12,0,12,0,677.0514693000005,,,,,,,,,,,,,,,,,,,,,,,,,,,,,,,,,,,,,,,,,,,,,,,,,,,,,,,,,Knöchel,2.0194,677.0364041000012,677.0369232000012,677.0370307000012,677.0514693000005,679.0843763000012,679.0689304999996,679.0723439000012,679.0843763000012,679.0843763000012,679.0843763000012,679.0843763000012,681.0844660000002,681.0844660000002,681.0844660000002,681.0844660000002,681.0690238999996,3,0.7713284999990719,0.1482004000008601,None,,,,,,,,,,,,,,,,,,,,,,8424,1,2025-06-30_16h33.05.816,sm,2024.2.4,59.97080621155811,2025-06-30 16h37.47.643902 +0200,
13,0,13,,,,,,space,1.7776068999992276,None,None,3,0.6381614000001719,0.20047080000040296,None,0,0,0,0,,,,,1,0,1,0,,,,,13,0,13,0,681.0844660000002,,,,,,,,,,,,,,,,,,,,,,,,,,,,,,,,,,,,,,,,,,,,,,,,,,,,,,,,,Ferien,2.2309,681.0695458999999,681.0700510999995,681.0701632,681.0844660000002,683.3178652000006,683.3019463,683.3053197999998,683.3178652000006,683.3178652000006,683.3178652000006,683.3178652000006,685.3178723000001,685.3178723000001,685.3178723000001,685.3178723000001,685.3021621999997,3,0.6381614000001719,0.20047080000040296,None,,,,,,,,,,,,,,,,,,,,,,8424,1,2025-06-30_16h33.05.816,sm,2024.2.4,59.97080621155811,2025-06-30 16h37.47.643902 +0200,
14,0,14,,,,,,space,1.7776068999992276,None,None,2,0.8245495999999548,0.20622430000003078,None,0,0,0,0,,,,,1,0,1,0,,,,,14,0,14,0,685.3178723000001,,,,,,,,,,,,,,,,,,,,,,,,,,,,,,,,,,,,,,,,,,,,,,,,,,,,,,,,,Rose,2.1576,685.3026671999996,685.3031745999997,685.3032818000011,685.3178723000001,687.4841044000004,687.468479000001,687.4717584000009,687.4841044000004,687.4841044000004,687.4841044000004,687.4841044000004,689.4842206000012,689.4842206000012,689.4842206000012,689.4842206000012,689.4683916000013,2,0.8245495999999548,0.20622430000003078,None,,,,,,,,,,,,,,,,,,,,,,8424,1,2025-06-30_16h33.05.816,sm,2024.2.4,59.97080621155811,2025-06-30 16h37.47.643902 +0200,
15,0,15,,,,,,space,1.7776068999992276,None,None,3,0.6959026000004087,0.23531960000036634,None,0,0,0,0,,,,,1,0,1,0,,,,,15,0,15,0,689.4842206000012,,,,,,,,,,,,,,,,,,,,,,,,,,,,,,,,,,,,,,,,,,,,,,,,,,,,,,,,,Hammer,5.2557,689.4688996000004,689.4694104000009,689.4695188000005,689.4842206000012,694.7504753000012,694.7350368000007,694.739557500001,694.7504753000012,694.7504753000012,694.7504753000012,694.7504753000012,696.7505204000008,696.7505204000008,696.7505204000008,696.7505204000008,696.7347804000001,3,0.6959026000004087,0.23531960000036634,None,,,,,,,,,,,,,,,,,,,,,,8424,1,2025-06-30_16h33.05.816,sm,2024.2.4,59.97080621155811,2025-06-30 16h37.47.643902 +0200,
16,0,16,,,,,,space,1.7776068999992276,None,None,3,0.7248073000009754,0.17541720000008354,None,0,0,0,0,,,,,1,0,1,0,,,,,16,0,16,0,696.7505204000008,,,,,,,,,,,,,,,,,,,,,,,,,,,,,,,,,,,,,,,,,,,,,,,,,,,,,,,,,Bildung,4.608,696.7352933000002,696.735792200001,696.7359022,696.7505204000008,701.3668300000008,701.3508327,701.3542727000004,701.3668300000008,701.3668300000008,701.3668300000008,701.3668300000008,703.3666067000013,703.3666067000013,703.3666067000013,703.3666067000013,703.3512024000011,3,0.7248073000009754,0.17541720000008354,None,,,,,,,,,,,,,,,,,,,,,,8424,1,2025-06-30_16h33.05.816,sm,2024.2.4,59.97080621155811,2025-06-30 16h37.47.643902 +0200,
17,0,17,,,,,,space,1.7776068999992276,None,None,3,0.8880254000014247,0.17988789999981236,None,0,0,0,0,,,,,1,0,1,0,,,,,17,0,17,0,703.3666067000013,,,,,,,,,,,,,,,,,,,,,,,,,,,,,,,,,,,,,,,,,,,,,,,,,,,,,,,,,Komödie,2.9669,703.3517133000005,703.352237000001,703.3523418000004,703.3666067000013,706.3332197,706.3174821000011,706.3224900000005,706.3332197,706.3332197,706.3332197,706.3332197,708.3333213999995,708.3333213999995,708.3333213999995,708.3333213999995,708.3175752999996,3,0.8880254000014247,0.17988789999981236,None,,,,,,,,,,,,,,,,,,,,,,8424,1,2025-06-30_16h33.05.816,sm,2024.2.4,59.97080621155811,2025-06-30 16h37.47.643902 +0200,
18,0,18,,,,,,space,1.7776068999992276,None,None,3,1.2980793999995512,0.19009010000081616,None,0,0,0,0,,,,,1,0,1,0,,,,,18,0,18,0,708.3333213999995,,,,,,,,,,,,,,,,,,,,,,,,,,,,,,,,,,,,,,,,,,,,,,,,,,,,,,,,,Tanz,2.886,708.3180783999996,708.3185948999999,708.3187018999997,708.3333213999995,711.2330155,711.2171737999997,711.2205219000007,711.2330155,711.2330155,711.2330155,711.2330155,713.2327072000007,713.2327072000007,713.2327072000007,713.2327072000007,713.2170619999997,3,1.2980793999995512,0.19009010000081616,None,,,,,,,,,,,,,,,,,,,,,,8424,1,2025-06-30_16h33.05.816,sm,2024.2.4,59.97080621155811,2025-06-30 16h37.47.643902 +0200,
19,0,19,,,,,,space,1.7776068999992276,None,None,3,1.1124778000012157,0.18037329999970098,None,0,0,0,0,,,,,1,0,1,0,,,,,19,0,19,0,713.2327072000007,,,,,,,,,,,,,,,,,,,,,,,,,,,,,,,,,,,,,,,,,,,,,,,,,,,,,,,,,Fahrrad,2.0135,713.2175717999999,713.2182185000001,713.218331,713.2327072000007,715.2493606000007,715.2335812000001,715.2370706000002,715.2493606000007,715.2493606000007,715.2493606000007,715.2493606000007,717.2492015000007,717.2492015000007,717.2492015000007,717.2492015000007,717.2334836000009,3,1.1124778000012157,0.18037329999970098,None,,,,,,,,,,,,,,,,,,,,,,8424,1,2025-06-30_16h33.05.816,sm,2024.2.4,59.97080621155811,2025-06-30 16h37.47.643902 +0200,
20,0,20,,,,,,space,1.7776068999992276,None,None,3,0.6656074999991688,0.1778993999996601,None,0,0,0,0,,,,,1,0,1,0,,,,,20,0,20,0,717.2492015000007,,,,,,,,,,,,,,,,,,,,,,,,,,,,,,,,,,,,,,,,,,,,,,,,,,,,,,,,,Asche,3.2553,717.2339845999995,717.2345528000005,717.2346600000001,717.2492015000007,720.5156083000002,720.5002756000013,720.5039821000009,720.5156083000002,720.5156083000002,720.5156083000002,720.5156083000002,722.5157763999996,722.5157763999996,722.5157763999996,722.5157763999996,722.5000474999997,3,0.6656074999991688,0.1778993999996601,None,,,,,,,,,,,,,,,,,,,,,,8424,1,2025-06-30_16h33.05.816,sm,2024.2.4,59.97080621155811,2025-06-30 16h37.47.643902 +0200,
21,0,21,,,,,,space,1.7776068999992276,None,None,3,0.5674059000011766,0.2212655999992421,None,0,0,0,0,,,,,1,0,1,0,,,,,21,0,21,0,722.5157763999996,,,,,,,,,,,,,,,,,,,,,,,,,,,,,,,,,,,,,,,,,,,,,,,,,,,,,,,,,Ecke,2.2165,722.5005577000011,722.5010687000013,722.5011785000006,722.5157763999996,724.7319961000012,724.7166187000003,724.7202159999997,724.7319961000012,724.7319961000012,724.7319961000012,724.7319961000012,726.7319833000001,726.7319833000001,726.7319833000001,726.7319833000001,726.7164107000008,3,0.5674059000011766,0.2212655999992421,None,,,,,,,,,,,,,,,,,,,,,,8424,1,2025-06-30_16h33.05.816,sm,2024.2.4,59.97080621155811,2025-06-30 16h37.47.643902 +0200,
22,0,22,,,,,,space,1.7776068999992276,None,None,2,1.1319705999994767,0.15853980000065349,None,0,0,0,0,,,,,1,0,1,0,,,,,22,0,22,0,726.7319833000001,,,,,,,,,,,,,,,,,,,,,,,,,,,,,,,,,,,,,,,,,,,,,,,,,,,,,,,,,Agent,2.186,726.7169128000005,726.7175631000009,726.717674200001,726.7319833000001,728.9320946000007,728.9162831000012,728.9196413000009,728.9320946000007,728.9320946000007,728.9320946000007,728.9320946000007,730.9317140000003,730.9317140000003,730.9317140000003,730.9317140000003,730.9162175000001,2,1.1319705999994767,0.15853980000065349,None,,,,,,,,,,,,,,,,,,,,,,8424,1,2025-06-30_16h33.05.816,sm,2024.2.4,59.97080621155811,2025-06-30 16h37.47.643902 +0200,
23,0,23,,,,,,space,1.7776068999992276,None,None,3,0.7100883000002796,0.195569900000919,None,0,0,0,0,,,,,1,0,1,0,,,,,23,0,23,0,730.9317140000003,,,,,,,,,,,,,,,,,,,,,,,,,,,,,,,,,,,,,,,,,,,,,,,,,,,,,,,,,Diamant,2.2831,730.9167314999995,730.9172472999999,730.9173554999998,730.9317140000003,733.2149700000009,733.1993218000007,733.2035441999997,733.2149700000009,733.2149700000009,733.2149700000009,733.2149700000009,735.2149384000004,735.2149384000004,735.2149384000004,735.2149384000004,735.1994943000009,3,0.7100883000002796,0.195569900000919,None,,,,,,,,,,,,,,,,,,,,,,8424,1,2025-06-30_16h33.05.816,sm,2024.2.4,59.97080621155811,2025-06-30 16h37.47.643902 +0200,
24,0,24,,,,,,space,1.7776068999992276,None,None,3,1.204088899999988,0.21236710000084713,None,0,0,0,0,,,,,1,0,1,0,,,,,24,0,24,0,735.2149384000004,,,,,,,,,,,,,,,,,,,,,,,,,,,,,,,,,,,,,,,,,,,,,,,,,,,,,,,,,Flut,3.5491,735.2000042,735.2005112999996,735.2006185999999,735.2149384000004,738.7646065999998,738.7490720000005,738.753449400001,738.7646065999998,738.7646065999998,738.7646065999998,738.7646065999998,740.7648405,740.7648405,740.7648405,740.7648405,740.7489235000012,3,1.204088899999988,0.21236710000084713,None,,,,,,,,,,,,,,,,,,,,,,8424,1,2025-06-30_16h33.05.816,sm,2024.2.4,59.97080621155811,2025-06-30 16h37.47.643902 +0200,
25,0,25,,,,,,space,1.7776068999992276,None,None,3,0.615685200000371,0.18318389999876672,None,0,0,0,0,,,,,1,0,1,0,,,,,25,0,25,0,740.7648405,,,,,,,,,,,,,,,,,,,,,,,,,,,,,,,,,,,,,,,,,,,,,,,,,,,,,,,,,Geschichte,2.1927,740.7494000000006,740.7498921000006,740.7499931000002,740.7648405,742.9644083000003,742.9487633999997,742.9524149000008,742.9644083000003,742.9644083000003,742.9644083000003,742.9644083000003,744.9642597000002,744.9642597000002,744.9642597000002,744.9642597000002,744.9487389999995,3,0.615685200000371,0.18318389999876672,None,,,,,,,,,,,,,,,,,,,,,,8424,1,2025-06-30_16h33.05.816,sm,2024.2.4,59.97080621155811,2025-06-30 16h37.47.643902 +0200,
26,0,26,,,,,,space,1.7776068999992276,None,None,3,1.4741856000000553,0.16300959999898623,None,0,0,0,0,,,,,1,0,1,0,,,,,26,0,26,0,744.9642597000002,,,,,,,,,,,,,,,,,,,,,,,,,,,,,,,,,,,,,,,,,,,,,,,,,,,,,,,,,Karton,2.1032,744.9492502000012,744.9497506000007,744.9498574000008,744.9642597000002,747.0805123000009,747.0650287999997,747.0685520999996,747.0805123000009,747.0805123000009,747.0805123000009,747.0805123000009,749.0809993000003,749.0809993000003,749.0809993000003,749.0809993000003,749.0653189000004,3,1.4741856000000553,0.16300959999898623,None,,,,,,,,,,,,,,,,,,,,,,8424,1,2025-06-30_16h33.05.816,sm,2024.2.4,59.97080621155811,2025-06-30 16h37.47.643902 +0200,
27,0,27,,,,,,space,1.7776068999992276,None,None,3,1.1473748999997042,0.20241619999978866,None,0,0,0,0,,,,,1,0,1,0,,,,,27,0,27,0,749.0809993000003,,,,,,,,,,,,,,,,,,,,,,,,,,,,,,,,,,,,,,,,,,,,,,,,,,,,,,,,,Applaus,4.9472,749.0658261999997,749.0663388000012,749.0664481000003,749.0809993000003,754.0302733000008,754.0147761999997,754.018397400001,754.0302733000008,754.0302733000008,754.0302733000008,754.0302733000008,756.0305845000003,756.0305845000003,756.0305845000003,756.0305845000003,756.0147816000008,3,1.1473748999997042,0.20241619999978866,None,,,,,,,,,,,,,,,,,,,,,,8424,1,2025-06-30_16h33.05.816,sm,2024.2.4,59.97080621155811,2025-06-30 16h37.47.643902 +0200,
28,0,28,,,,,,space,1.7776068999992276,None,None,3,0.8103114999994432,0.22041100000024016,None,0,0,0,0,,,,,1,0,1,0,,,,,28,0,28,0,756.0305845000003,,,,,,,,,,,,,,,,,,,,,,,,,,,,,,,,,,,,,,,,,,,,,,,,,,,,,,,,,Afrika,2.7698,756.0152873000006,756.0159382000002,756.0160483,756.0305845000003,758.8134308000008,758.7977413999997,758.8013969000003,758.8134308000008,758.8134308000008,758.8134308000008,758.8134308000008,760.8134706000001,760.8134706000001,760.8134706000001,760.8134706000001,760.7979265000013,3,0.8103114999994432,0.22041100000024016,None,,,,,,,,,,,,,,,,,,,,,,8424,1,2025-06-30_16h33.05.816,sm,2024.2.4,59.97080621155811,2025-06-30 16h37.47.643902 +0200,
29,0,29,,,,,,space,1.7776068999992276,None,None,3,0.542862199999945,0.14069300000119256,None,0,0,0,0,,,,,1,0,1,0,,,,,29,0,29,0,760.8134706000001,,,,,,,,,,,,,,,,,,,,,,,,,,,,,,,,,,,,,,,,,,,,,,,,,,,,,,,,,Mappe,2.5984,760.7985007999996,760.7992324000006,760.7993927999996,760.8134706000001,763.4132178,763.397663400001,763.4015340000005,763.4132178,763.4132178,763.4132178,763.4132178,765.4134534000004,765.4134534000004,765.4134534000004,765.4134534000004,765.3976751000009,3,0.542862199999945,0.14069300000119256,None,,,,,,,,,,,,,,,,,,,,,,8424,1,2025-06-30_16h33.05.816,sm,2024.2.4,59.97080621155811,2025-06-30 16h37.47.643902 +0200,
30,0,30,,,,,,space,1.7776068999992276,None,None,3,1.0501742999986163,0.1814146000015171,None,0,0,0,0,,,,,1,0,1,0,,,,,30,0,30,0,765.4134534000004,,,,,,,,,,,,,,,,,,,,,,,,,,,,,,,,,,,,,,,,,,,,,,,,,,,,,,,,,Hose,3.7326,765.398186800001,765.3986662000007,765.3987713999995,765.4134534000004,769.1463758999998,769.1310246000012,769.1372095999996,769.1463758999998,769.1463758999998,769.1463758999998,769.1463758999998,771.1467358999998,771.1467358999998,771.1467358999998,771.1467358999998,771.1308845000003,3,1.0501742999986163,0.1814146000015171,None,,,,,,,,,,,,,,,,,,,,,,8424,1,2025-06-30_16h33.05.816,sm,2024.2.4,59.97080621155811,2025-06-30 16h37.47.643902 +0200,
31,0,31,,,,,,space,1.7776068999992276,None,None,2,0.8952554000006785,0.21590439999999944,None,0,0,0,0,,,,,1,0,1,0,,,,,31,0,31,0,771.1467358999998,,,,,,,,,,,,,,,,,,,,,,,,,,,,,,,,,,,,,,,,,,,,,,,,,,,,,,,,,Bruder,2.092,771.1313921000001,771.1319072000006,771.1320126999999,771.1467358999998,773.245707,773.2301688999996,773.2334939000011,773.245707,773.245707,773.245707,773.245707,775.2459448999998,775.2459448999998,775.2459448999998,775.2459448999998,775.230547000001,2,0.8952554000006785,0.21590439999999944,None,,,,,,,,,,,,,,,,,,,,,,8424,1,2025-06-30_16h33.05.816,sm,2024.2.4,59.97080621155811,2025-06-30 16h37.47.643902 +0200,
32,0,32,,,,,,space,1.7776068999992276,None,None,2,0.8018816000003426,0.2596291999998357,None,0,0,0,0,,,,,1,0,1,0,,,,,32,0,32,0,775.2459448999998,,,,,,,,,,,,,,,,,,,,,,,,,,,,,,,,,,,,,,,,,,,,,,,,,,,,,,,,,Präsident,4.9515,775.2310520999999,775.2315553999997,775.2316601000002,775.2459448999998,780.2122249000004,780.1966460000003,780.2009438000005,780.2122249000004,780.2122249000004,780.2122249000004,780.2122249000004,782.2123604999997,782.2123604999997,782.2123604999997,782.2123604999997,782.1966853000013,2,0.8018816000003426,0.2596291999998357,None,,,,,,,,,,,,,,,,,,,,,,8424,1,2025-06-30_16h33.05.816,sm,2024.2.4,59.97080621155811,2025-06-30 16h37.47.643902 +0200,
33,0,33,,,,,,space,1.7776068999992276,None,None,3,0.7202598999992915,0.18523309999909543,None,0,0,0,0,,,,,1,0,1,0,,,,,33,0,33,0,782.2123604999997,,,,,,,,,,,,,,,,,,,,,,,,,,,,,,,,,,,,,,,,,,,,,,,,,,,,,,,,,Golf,2.3169,782.1971960999999,782.1977098000007,782.1978163000003,782.2123604999997,784.5284886000009,784.5128609000003,784.5158064999996,784.5284886000009,784.5284886000009,784.5284886000009,784.5284886000009,786.5288025000009,786.5288025000009,786.5288025000009,786.5288025000009,786.5131101999996,3,0.7202598999992915,0.18523309999909543,None,,,,,,,,,,,,,,,,,,,,,,8424,1,2025-06-30_16h33.05.816,sm,2024.2.4,59.97080621155811,2025-06-30 16h37.47.643902 +0200,
34,0,34,,,,,,space,1.7776068999992276,None,None,3,0.6892420999993192,0.17962710000028892,None,0,0,0,0,,,,,1,0,1,0,,,,,34,0,34,0,786.5288025000009,,,,,,,,,,,,,,,,,,,,,,,,,,,,,,,,,,,,,,,,,,,,,,,,,,,,,,,,,Teller,2.8761,786.5136184000003,786.5141254000009,786.5142336999997,786.5288025000009,789.4118490000001,789.3962575000005,789.4002421000005,789.4118490000001,789.4118490000001,789.4118490000001,789.4118490000001,791.4120559000003,791.4120559000003,791.4120559000003,791.4120559000003,791.3961877000002,3,0.6892420999993192,0.17962710000028892,None,,,,,,,,,,,,,,,,,,,,,,8424,1,2025-06-30_16h33.05.816,sm,2024.2.4,59.97080621155811,2025-06-30 16h37.47.643902 +0200,
35,0,35,,,,,,space,1.7776068999992276,None,None,2,0.867689300001075,0.17558379999900353,None,0,0,0,0,,,,,1,0,1,0,,,,,35,0,35,0,791.4120559000003,,,,,,,,,,,,,,,,,,,,,,,,,,,,,,,,,,,,,,,,,,,,,,,,,,,,,,,,,Kunde,2.3505,791.3967057000009,791.3973557000008,791.3974658000006,791.4120559000003,793.7614797999995,793.7460267000006,793.7494176,793.7614797999995,793.7614797999995,793.7614797999995,793.7614797999995,795.7616608000008,795.7616608000008,795.7616608000008,795.7616608000008,795.7460590999999,2,0.867689300001075,0.17558379999900353,None,,,,,,,,,,,,,,,,,,,,,,8424,1,2025-06-30_16h33.05.816,sm,2024.2.4,59.97080621155811,2025-06-30 16h37.47.643902 +0200,
36,0,36,,,,,,space,1.7776068999992276,None,None,3,1.5280337999993208,0.19648270000107004,None,0,0,0,0,,,,,1,0,1,0,,,,,36,0,36,0,795.7616608000008,,,,,,,,,,,,,,,,,,,,,,,,,,,,,,,,,,,,,,,,,,,,,,,,,,,,,,,,,Blatt,2.3504,795.7465762000011,795.7471096999998,795.7472187000003,795.7616608000008,798.1112805000012,798.0956545999998,798.0996670000004,798.1112805000012,798.1112805000012,798.1112805000012,798.1112805000012,800.1112942,800.1112942,800.1112942,800.1112942,800.0962078000011,3,1.5280337999993208,0.19648270000107004,None,,,,,,,,,,,,,,,,,,,,,,8424,1,2025-06-30_16h33.05.816,sm,2024.2.4,59.97080621155811,2025-06-30 16h37.47.643902 +0200,
37,0,37,,,,,,space,1.7776068999992276,None,None,3,0.7575481999992917,0.20550060000095982,None,0,0,0,0,,,,,1,0,1,0,,,,,37,0,37,0,800.1112942,,,,,,,,,,,,,,,,,,,,,,,,,,,,,,,,,,,,,,,,,,,,,,,,,,,,,,,,,Berg,2.4032,800.0967209999999,800.0972345000009,800.0973429000005,800.1112942,802.5277619000008,802.5121710000003,802.5167240999999,802.5277619000008,802.5277619000008,802.5277619000008,802.5277619000008,804.527595900001,804.527595900001,804.527595900001,804.527595900001,804.5120217000003,3,0.7575481999992917,0.20550060000095982,None,,,,,,,,,,,,,,,,,,,,,,8424,1,2025-06-30_16h33.05.816,sm,2024.2.4,59.97080621155811,2025-06-30 16h37.47.643902 +0200,
38,0,38,,,,,,space,1.7776068999992276,None,None,3,0.9313571000002412,0.22134960000039428,None,0,0,0,0,,,,,1,0,1,0,,,,,38,0,38,0,804.527595900001,,,,,,,,,,,,,,,,,,,,,,,,,,,,,,,,,,,,,,,,,,,,,,,,,,,,,,,,,Kapitel,2.1483,804.5125355,804.513049000001,804.5131589000011,804.527595900001,806.6775909000007,806.6617103999997,806.6656479000012,806.6775909000007,806.6775909000007,806.6775909000007,806.6775909000007,808.6777380000003,808.6777380000003,808.6777380000003,808.6777380000003,808.6617924000002,3,0.9313571000002412,0.22134960000039428,None,,,,,,,,,,,,,,,,,,,,,,8424,1,2025-06-30_16h33.05.816,sm,2024.2.4,59.97080621155811,2025-06-30 16h37.47.643902 +0200,
39,0,39,,,,,,space,1.7776068999992276,None,None,2,0.7910421000015049,0.20251379999899655,None,0,0,0,0,,,,,1,0,1,0,,,,,39,0,39,0,808.6777380000003,,,,,,,,,,,,,,,,,,,,,,,,,,,,,,,,,,,,,,,,,,,,,,,,,,,,,,,,,Arm,2.8966,808.6623006000009,808.6629458000007,808.6630555000011,808.6777380000003,811.5773759000003,811.5616745999996,811.5648808999995,811.5773759000003,811.5773759000003,811.5773759000003,811.5773759000003,813.5772546999997,813.5772546999997,813.5772546999997,813.5772546999997,813.5613224000008,2,0.7910421000015049,0.20251379999899655,None,,,,,,,,,,,,,,,,,,,,,,8424,1,2025-06-30_16h33.05.816,sm,2024.2.4,59.97080621155811,2025-06-30 16h37.47.643902 +0200,
40,0,40,,,,,,space,1.7776068999992276,None,None,3,0.7219550999998319,0.1808712000001833,None,0,0,0,0,,,,,1,0,1,0,,,,,40,0,40,0,813.5772546999997,,,,,,,,,,,,,,,,,,,,,,,,,,,,,,,,,,,,,,,,,,,,,,,,,,,,,,,,,Geburtstag,2.2933,813.5617978000009,813.5622820999997,813.5623851,813.5772546999997,815.8771175000002,815.8613635000002,815.8651449999998,815.8771175000002,815.8771175000002,815.8771175000002,815.8771175000002,817.876745900001,817.876745900001,817.876745900001,817.876745900001,817.8612498000002,3,0.7219550999998319,0.1808712000001833,None,,,,,,,,,,,,,,,,,,,,,,8424,1,2025-06-30_16h33.05.816,sm,2024.2.4,59.97080621155811,2025-06-30 16h37.47.643902 +0200,
41,0,41,,,,,,space,1.7776068999992276,None,None,3,0.7135754999999335,0.1633486000009725,None,0,0,0,0,,,,,1,0,1,0,,,,,41,0,41,0,817.876745900001,,,,,,,,,,,,,,,,,,,,,,,,,,,,,,,,,,,,,,,,,,,,,,,,,,,,,,,,,Geschmack,2.6841,817.8617525999998,817.8624003000004,817.8625100999998,817.876745900001,820.5600617,820.5445538000004,820.5484130000004,820.5600617,820.5600617,820.5600617,820.5600617,822.5599376999999,822.5599376999999,822.5599376999999,822.5599376999999,822.5443073999995,3,0.7135754999999335,0.1633486000009725,None,,,,,,,,,,,,,,,,,,,,,,8424,1,2025-06-30_16h33.05.816,sm,2024.2.4,59.97080621155811,2025-06-30 16h37.47.643902 +0200,
42,0,42,,,,,,space,1.7776068999992276,None,None,3,0.8663008000003174,0.1790381000009802,None,0,0,0,0,,,,,1,0,1,0,,,,,42,0,42,0,822.5599376999999,,,,,,,,,,,,,,,,,,,,,,,,,,,,,,,,,,,,,,,,,,,,,,,,,,,,,,,,,Himmel,5.9847,822.5448178999995,822.5453298000011,822.5454437000008,822.5599376999999,828.5596762000005,828.5441761000002,828.5485184999998,828.5596762000005,828.5596762000005,828.5596762000005,828.5596762000005,830.5599808000006,830.5599808000006,830.5599808000006,830.5599808000006,830.5438666000009,3,0.8663008000003174,0.1790381000009802,None,,,,,,,,,,,,,,,,,,,,,,8424,1,2025-06-30_16h33.05.816,sm,2024.2.4,59.97080621155811,2025-06-30 16h37.47.643902 +0200,
43,0,43,,,,,,space,1.7776068999992276,None,None,3,0.5899580999994214,0.18954940000003262,None,0,0,0,0,,,,,1,0,1,0,,,,,43,0,43,0,830.5599808000006,,,,,,,,,,,,,,,,,,,,,,,,,,,,,,,,,,,,,,,,,,,,,,,,,,,,,,,,,Sand,3.3423,830.5443788000011,830.545020900001,830.5451289000011,830.5599808000006,833.9092293000012,833.8935727000007,833.8978311999999,833.9092293000012,833.9092293000012,833.9092293000012,833.9092293000012,835.9094392000006,835.9094392000006,835.9094392000006,835.9094392000006,835.8934633000008,3,0.5899580999994214,0.18954940000003262,None,,,,,,,,,,,,,,,,,,,,,,8424,1,2025-06-30_16h33.05.816,sm,2024.2.4,59.97080621155811,2025-06-30 16h37.47.643902 +0200,
44,0,44,,,,,,space,1.7776068999992276,None,None,3,0.6796850000009727,0.15055860000029497,None,0,0,0,0,,,,,1,0,1,0,,,,,44,0,44,0,835.9094392000006,,,,,,,,,,,,,,,,,,,,,,,,,,,,,,,,,,,,,,,,,,,,,,,,,,,,,,,,,Bett,2.1236,835.8939166,835.8943906000004,835.8944859000003,835.9094392000006,838.0422563000011,838.0265123000008,838.0296747000011,838.0422563000011,838.0422563000011,838.0422563000011,838.0422563000011,840.0423365000006,840.0423365000006,840.0423365000006,840.0423365000006,840.0267581999997,3,0.6796850000009727,0.15055860000029497,None,,,,,,,,,,,,,,,,,,,,,,8424,1,2025-06-30_16h33.05.816,sm,2024.2.4,59.97080621155811,2025-06-30 16h37.47.643902 +0200,
45,0,45,,,,,,space,1.7776068999992276,None,None,3,0.774763499999608,0.18111590000080469,None,0,0,0,0,,,,,1,0,1,0,,,,,45,0,45,0,840.0423365000006,,,,,,,,,,,,,,,,,,,,,,,,,,,,,,,,,,,,,,,,,,,,,,,,,,,,,,,,,Schreibtisch,2.0868,840.0272646000012,840.0277669000006,840.0278880000005,840.0423365000006,842.1423181000009,842.1264195000003,842.1300983000001,842.1423181000009,842.1423181000009,842.1423181000009,842.1423181000009,844.1420469000004,844.1420469000004,844.1420469000004,844.1420469000004,844.1265443000011,3,0.774763499999608,0.18111590000080469,None,,,,,,,,,,,,,,,,,,,,,,8424,1,2025-06-30_16h33.05.816,sm,2024.2.4,59.97080621155811,2025-06-30 16h37.47.643902 +0200,
46,0,46,,,,,,space,1.7776068999992276,None,None,3,0.5601581999999325,0.2220459000000119,None,0,0,0,0,,,,,1,0,1,0,,,,,46,0,46,0,844.1420469000004,,,,,,,,,,,,,,,,,,,,,,,,,,,,,,,,,,,,,,,,,,,,,,,,,,,,,,,,,Moor,3.0608,844.1270483000008,844.1275550999999,844.1276646000006,844.1420469000004,847.2085126000002,847.1932776000012,847.1968549000012,847.2085126000002,847.2085126000002,847.2085126000002,847.2085126000002,849.2086018000009,849.2086018000009,849.2086018000009,849.2086018000009,849.192959,3,0.5601581999999325,0.2220459000000119,None,,,,,,,,,,,,,,,,,,,,,,8424,1,2025-06-30_16h33.05.816,sm,2024.2.4,59.97080621155811,2025-06-30 16h37.47.643902 +0200,
47,0,47,,,,,,space,1.7776068999992276,None,None,3,0.6884112000007008,0.19250990000000456,None,0,0,0,0,,,,,1,0,1,0,,,,,47,0,47,0,849.2086018000009,,,,,,,,,,,,,,,,,,,,,,,,,,,,,,,,,,,,,,,,,,,,,,,,,,,,,,,,,Netz,2.807,849.1934720999998,849.1939817000002,849.1940869999999,849.2086018000009,852.0249287999995,852.0090400000008,852.0123074000003,852.0249287999995,852.0249287999995,852.0249287999995,852.0249287999995,854.0249370000001,854.0249370000001,854.0249370000001,854.0249370000001,854.0092447999996,3,0.6884112000007008,0.19250990000000456,None,,,,,,,,,,,,,,,,,,,,,,8424,1,2025-06-30_16h33.05.816,sm,2024.2.4,59.97080621155811,2025-06-30 16h37.47.643902 +0200,
48,0,48,,,,,,space,1.7776068999992276,None,None,3,0.5504689000008511,0.2164271000001463,None,0,0,0,0,,,,,1,0,1,0,,,,,48,0,48,0,854.0249370000001,,,,,,,,,,,,,,,,,,,,,,,,,,,,,,,,,,,,,,,,,,,,,,,,,,,,,,,,,Riechen,3.5789,854.0097591000012,854.0102605000011,854.0103725999998,854.0249370000001,857.6078706000008,857.5924210000012,857.5964416000006,857.6078706000008,857.6078706000008,857.6078706000008,857.6078706000008,859.6078779,859.6078779,859.6078779,859.6078779,859.592474000001,3,0.5504689000008511,0.2164271000001463,None,,,,,,,,,,,,,,,,,,,,,,8424,1,2025-06-30_16h33.05.816,sm,2024.2.4,59.97080621155811,2025-06-30 16h37.47.643902 +0200,
49,0,49,,,,,,space,1.7776068999992276,None,None,3,0.728111299999,0.16556280000077095,None,0,0,0,0,,,,,1,0,1,0,,,,,49,0,49,0,859.6078779,,,,,,,,,,,,,,,,,,,,,,,,,,,,,,,,,,,,,,,,,,,,,,,,,,,,,,,,,Universität,3.891,859.5929742999997,859.5934961000003,859.5936046000006,859.6078779,863.5072608999999,863.4917409999998,863.4988958000013,863.5072608999999,863.5072608999999,863.5072608999999,863.5072608999999,865.5075051000003,865.5075051000003,865.5075051000003,865.5075051000003,865.4920870000005,3,0.728111299999,0.16556280000077095,None,,,,,,,,,,,,,,,,,,,,,,8424,1,2025-06-30_16h33.05.816,sm,2024.2.4,59.97080621155811,2025-06-30 16h37.47.643902 +0200,
50,0,50,,,,,,space,1.7776068999992276,None,None,3,0.7295915999984572,0.19279700000151934,None,0,0,0,0,,,,,1,0,1,0,,,,,50,0,50,0,865.5075051000003,,,,,,,,,,,,,,,,,,,,,,,,,,,,,,,,,,,,,,,,,,,,,,,,,,,,,,,,,Theater,5.5476,865.4925941000001,865.4931021000011,865.4932079999999,865.5075051000003,871.0572035000005,871.0415637999995,871.0456095000009,871.0572035000005,871.0572035000005,871.0572035000005,871.0572035000005,873.057262100001,873.057262100001,873.057262100001,873.057262100001,873.0414566,3,0.7295915999984572,0.19279700000151934,None,,,,,,,,,,,,,,,,,,,,,,8424,1,2025-06-30_16h33.05.816,sm,2024.2.4,59.97080621155811,2025-06-30 16h37.47.643902 +0200,
51,0,51,,,,,,space,1.7776068999992276,None,None,3,0.5803269999996701,0.22911470000144618,None,0,0,0,0,,,,,1,0,1,0,,,,,51,0,51,0,873.057262100001,,,,,,,,,,,,,,,,,,,,,,,,,,,,,,,,,,,,,,,,,,,,,,,,,,,,,,,,,Radio,3.4001,873.041965800001,873.0427114000013,873.0428181000007,873.057262100001,876.4567872000007,876.4412047000005,876.4450784,876.4567872000007,876.4567872000007,876.4567872000007,876.4567872000007,878.4569945000003,878.4569945000003,878.4569945000003,878.4569945000003,878.4411975000003,3,0.5803269999996701,0.22911470000144618,None,,,,,,,,,,,,,,,,,,,,,,8424,1,2025-06-30_16h33.05.816,sm,2024.2.4,59.97080621155811,2025-06-30 16h37.47.643902 +0200,
52,0,52,,,,,,space,1.7776068999992276,None,None,3,0.7012231999997312,0.22179659999892465,None,0,0,0,0,,,,,1,0,1,0,,,,,52,0,52,0,878.4569945000003,,,,,,,,,,,,,,,,,,,,,,,,,,,,,,,,,,,,,,,,,,,,,,,,,,,,,,,,,Zigarette,3.3194,878.4417021000008,878.4422028000008,878.4423115999998,878.4569945000003,881.7899508999999,881.7744160000002,881.7783250000011,881.7899508999999,881.7899508999999,881.7899508999999,881.7899508999999,883.790508,883.790508,883.790508,883.790508,883.7743922000009,3,0.7012231999997312,0.22179659999892465,None,,,,,,,,,,,,,,,,,,,,,,8424,1,2025-06-30_16h33.05.816,sm,2024.2.4,59.97080621155811,2025-06-30 16h37.47.643902 +0200,
53,0,53,,,,,,space,1.7776068999992276,None,None,3,0.5843213000007381,0.19036849999974947,None,0,0,0,0,,,,,1,0,1,0,,,,,53,0,53,0,883.790508,,,,,,,,,,,,,,,,,,,,,,,,,,,,,,,,,,,,,,,,,,,,,,,,,,,,,,,,,Postkarte,3.8113,883.7749006000013,883.7754860000005,883.7755940000006,883.790508,887.6063646000002,887.5907800000004,887.5951545999997,887.6063646000002,887.6063646000002,887.6063646000002,887.6063646000002,889.6063375000012,889.6063375000012,889.6063375000012,889.6063375000012,889.5905510000011,3,0.5843213000007381,0.19036849999974947,None,,,,,,,,,,,,,,,,,,,,,,8424,1,2025-06-30_16h33.05.816,sm,2024.2.4,59.97080621155811,2025-06-30 16h37.47.643902 +0200,
54,0,54,,,,,,space,1.7776068999992276,None,None,3,0.6136090999989392,0.20389000000068336,None,0,0,0,0,,,,,1,0,1,0,,,,,54,0,54,0,889.6063375000012,,,,,,,,,,,,,,,,,,,,,,,,,,,,,,,,,,,,,,,,,,,,,,,,,,,,,,,,,Tradition,3.2669,889.5910578000003,889.5915691999999,889.5916780000007,889.6063375000012,892.8723975000012,892.8569617000012,892.8607092000002,892.8723975000012,892.8723975000012,892.8723975000012,892.8723975000012,894.8725360000008,894.8725360000008,894.8725360000008,894.8725360000008,894.8569673000002,3,0.6136090999989392,0.20389000000068336,None,,,,,,,,,,,,,,,,,,,,,,8424,1,2025-06-30_16h33.05.816,sm,2024.2.4,59.97080621155811,2025-06-30 16h37.47.643902 +0200,
55,0,55,,,,,,space,1.7776068999992276,None,None,3,0.6447227999997267,0.20182310000018333,None,0,0,0,0,,,,,1,0,1,0,,,,,55,0,55,0,894.8725360000008,,,,,,,,,,,,,,,,,,,,,,,,,,,,,,,,,,,,,,,,,,,,,,,,,,,,,,,,,Farbe,2.9658,894.8574714000006,894.8581410000006,894.8582533000008,894.8725360000008,897.8389896000008,897.8232040000003,897.8266111000012,897.8389896000008,897.8389896000008,897.8389896000008,897.8389896000008,899.838952600001,899.838952600001,899.838952600001,899.838952600001,899.8234493,3,0.6447227999997267,0.20182310000018333,None,,,,,,,,,,,,,,,,,,,,,,8424,1,2025-06-30_16h33.05.816,sm,2024.2.4,59.97080621155811,2025-06-30 16h37.47.643902 +0200,
56,0,56,,,,,,space,1.7776068999992276,None,None,2,0.9662657000008039,0.23836080000000948,None,0,0,0,0,,,,,1,0,1,0,,,,,56,0,56,0,899.838952600001,,,,,,,,,,,,,,,,,,,,,,,,,,,,,,,,,,,,,,,,,,,,,,,,,,,,,,,,,Mäher,2.8976,899.8239528000013,899.8246479000009,899.8247595000012,899.838952600001,902.7386532,902.7228895999997,902.7270133000002,902.7386532,902.7386532,902.7386532,902.7386532,904.7386526000009,904.7386526000009,904.7386526000009,904.7386526000009,904.7232424000013,2,0.9662657000008039,0.23836080000000948,None,,,,,,,,,,,,,,,,,,,,,,8424,1,2025-06-30_16h33.05.816,sm,2024.2.4,59.97080621155811,2025-06-30 16h37.47.643902 +0200,
57,0,57,,,,,,space,1.7776068999992276,None,None,3,0.7045343999998295,0.17849320000095759,None,0,0,0,0,,,,,1,0,1,0,,,,,57,0,57,0,904.7386526000009,,,,,,,,,,,,,,,,,,,,,,,,,,,,,,,,,,,,,,,,,,,,,,,,,,,,,,,,,Spaghetti,2.1888,904.7237450000011,904.7242509999996,904.7243575000011,904.7386526000009,906.9383832000003,906.9229207999997,906.9271024999998,906.9383832000003,906.9383832000003,906.9383832000003,906.9383832000003,908.9384391000003,908.9384391000003,908.9384391000003,908.9384391000003,908.9228555999998,3,0.7045343999998295,0.17849320000095759,None,,,,,,,,,,,,,,,,,,,,,,8424,1,2025-06-30_16h33.05.816,sm,2024.2.4,59.97080621155811,2025-06-30 16h37.47.643902 +0200,
58,0,58,,,,,,space,1.7776068999992276,None,None,3,0.7453777999999147,0.15064040000106615,None,0,0,0,0,,,,,1,0,1,0,,,,,58,0,58,0,908.9384391000003,,,,,,,,,,,,,,,,,,,,,,,,,,,,,,,,,,,,,,,,,,,,,,,,,,,,,,,,,Bart,3.8482,908.9233672999999,908.9238755000006,908.9239893000013,908.9384391000003,912.7878777000005,912.7725788000007,912.7757773000012,912.7878777000005,912.7878777000005,912.7878777000005,912.7878777000005,914.7881463000012,914.7881463000012,914.7881463000012,914.7881463000012,914.7726471999995,3,0.7453777999999147,0.15064040000106615,None,,,,,,,,,,,,,,,,,,,,,,8424,1,2025-06-30_16h33.05.816,sm,2024.2.4,59.97080621155811,2025-06-30 16h37.47.643902 +0200,
59,0,59,,,,,,space,1.7776068999992276,None,None,2,0.6421208000010665,0.22048499999982596,None,0,0,0,0,,,,,1,0,1,0,,,,,59,0,59,0,914.7881463000012,,,,,,,,,,,,,,,,,,,,,,,,,,,,,,,,,,,,,,,,,,,,,,,,,,,,,,,,,Autorin,3.9007,914.7731506,914.7736568,914.7737663999997,914.7881463000012,918.6877932000007,918.6723801000007,918.6758143999996,918.6877932000007,918.6877932000007,918.6877932000007,918.6877932000007,920.6878520000009,920.6878520000009,920.6878520000009,920.6878520000009,920.6723216000009,2,0.6421208000010665,0.22048499999982596,None,,,,,,,,,,,,,,,,,,,,,,8424,1,2025-06-30_16h33.05.816,sm,2024.2.4,59.97080621155811,2025-06-30 16h37.47.643902 +0200,
60,0,60,,,,,,space,1.7776068999992276,None,None,3,1.5495165000011184,0.18089749999853666,None,0,0,0,0,,,,,1,0,1,0,,,,,60,0,60,0,920.6878520000009,,,,,,,,,,,,,,,,,,,,,,,,,,,,,,,,,,,,,,,,,,,,,,,,,,,,,,,,,Monument,2.702,920.6728325000004,920.6733848000003,920.6734940000006,920.6878520000009,923.4043068999999,923.3883526999998,923.3918188999996,923.4043068999999,923.4043068999999,923.4043068999999,923.4043068999999,925.4041458000011,925.4041458000011,925.4041458000011,925.4041458000011,925.3886136000001,3,1.5495165000011184,0.18089749999853666,None,,,,,,,,,,,,,,,,,,,,,,8424,1,2025-06-30_16h33.05.816,sm,2024.2.4,59.97080621155811,2025-06-30 16h37.47.643902 +0200,
61,0,61,,,,,,space,1.7776068999992276,None,None,3,1.4029808000013873,0.1839734999994107,None,0,0,0,0,,,,,1,0,1,0,,,,,61,0,61,0,925.4041458000011,,,,,,,,,,,,,,,,,,,,,,,,,,,,,,,,,,,,,,,,,,,,,,,,,,,,,,,,,Küche,2.7447,925.3891179000002,925.3897687000008,925.3898743000009,925.4041458000011,928.1548855000001,928.1381170000004,928.1412538000004,928.1548855000001,928.1548855000001,928.1548855000001,928.1548855000001,930.1542336000002,930.1542336000002,930.1542336000002,930.1542336000002,930.138482100001,3,1.4029808000013873,0.1839734999994107,None,,,,,,,,,,,,,,,,,,,,,,8424,1,2025-06-30_16h33.05.816,sm,2024.2.4,59.97080621155811,2025-06-30 16h37.47.643902 +0200,
62,0,62,,,,,,space,1.7776068999992276,None,None,3,0.9130351000003429,0.2521450999993249,None,0,0,0,0,,,,,1,0,1,0,,,,,62,0,62,0,930.1542336000002,,,,,,,,,,,,,,,,,,,,,,,,,,,,,,,,,,,,,,,,,,,,,,,,,,,,,,,,,Tasse,2.0999,930.1389864000012,930.139723100001,930.1398313000009,930.1542336000002,932.2536504,932.2382479999997,932.2423216000007,932.2536504,932.2536504,932.2536504,932.2536504,934.2540000999998,934.2540000999998,934.2540000999998,934.2540000999998,934.2381255,3,0.9130351000003429,0.2521450999993249,None,,,,,,,,,,,,,,,,,,,,,,8424,1,2025-06-30_16h33.05.816,sm,2024.2.4,59.97080621155811,2025-06-30 16h37.47.643902 +0200,
