thisN,thisTrialN,thisRepN,Cue,Target,Mediator1,Mediator2,iti,scanner_ready_press.keys,scanner_ready_press.rt,scanner_ready_press.duration,skip_trigger.keys,living_nonliving.keys,living_nonliving.rt,living_nonliving.duration,end_mapping.keys,blocks.thisRepN,blocks.thisTrialN,blocks.thisN,blocks.thisIndex,load_and_shuffle.thisRepN,load_and_shuffle.thisTrialN,load_and_shuffle.thisN,load_and_shuffle.thisIndex,runs.thisRepN,runs.thisTrialN,runs.thisN,runs.thisIndex,iti_loading_loop.thisRepN,iti_loading_loop.thisTrialN,iti_loading_loop.thisN,iti_loading_loop.thisIndex,semantic_mapping_run.thisRepN,semantic_mapping_run.thisTrialN,semantic_mapping_run.thisN,semantic_mapping_run.thisIndex,thisRow.t,notes,welcome.started,welcome_text.started,key_resp__welcome.started,welcome.stopped,key_resp__welcome.keys,key_resp__welcome.rt,key_resp__welcome.duration,scout.started,scout_text.started,key_resp.started,scout.stopped,key_resp.keys,key_resp.rt,key_resp.duration,instructions_semantic_mapping1.started,sm_instructions1_text.started,sm_instructions1_key.started,instructions_semantic_mapping1.stopped,sm_instructions1_key.keys,sm_instructions1_key.rt,sm_instructions1_key.duration,instructions_semantic_mapping2.started,sm_instructions2_text.started,sm_instructions2_key.started,instructions_semantic_mapping2.stopped,sm_instructions2_key.keys,sm_instructions2_key.rt,sm_instructions2_key.duration,reset_run.started,reset_run.stopped,shuffle_items.started,shuffle_items.stopped,set_up_runs.started,set_up_runs.stopped,load_iti.started,load_iti.stopped,prep_scanner.started,scanner_ready_press.started,ready_set_text.started,prep_scanner.stopped,runs.scanner_ready_press.keys,runs.scanner_ready_press.rt,runs.scanner_ready_press.duration,wait_for_trigger.started,starting_soon.started,skip_trigger.started,wait_for_trigger.stopped,runs.skip_trigger.keys,blank.started,begin_end_run_cross.started,sound_1.started,sound_1.stopped,sound_2.started,sound_2.stopped,blank.stopped,CurrentItem,CurrentITI,set_up_trial.started,set_up_trial.stopped,sm_iti.started,iti_cross.started,iti_cross.stopped,sm_iti.stopped,item.started,living_nonliving.started,end_mapping.started,living_nonliving_text.started,semantic_map_item.started,living_nonliving.stopped,end_mapping.stopped,living_nonliving_text.stopped,semantic_map_item.stopped,item.stopped,semantic_mapping_run.living_nonliving.keys,semantic_mapping_run.living_nonliving.rt,semantic_mapping_run.living_nonliving.duration,semantic_mapping_run.end_mapping.keys,fieldmap.started,fieldmap.stopped,runs.fm_key.keys,task_break.started,feeback_text.started,task_break_text.started,task_break_resp.started,feeback_text.stopped,task_break.stopped,runs.task_break_resp.keys,runs.task_break_resp.rt,runs.task_break_resp.duration,begin_end_run_cross.stopped,fm_text.started,fm_key.started,runs.fm_key.rt,runs.fm_key.duration,thanks.started,thanks_text.started,thanks_text.stopped,thanks.stopped,PID,MRI,date,expName,psychopyVersion,frameRate,expStart,
,,,,,,,,,,,,,,,,,,,,,,,,,,,,,,,,,,,,,,0.003912500000296859,0.016990500000247266,0.016990500000247266,47.131442400001106,space,47.101393400000234,None,,,,,,,,,,,,,,,,,,,,,,,,,,,,,,,,,,,,,,,,,,,,,,,,,,,,,,,,,,,,,,,,,,,,,,,,,,,,,,,,,,,,,,,,,,,,4215,1,2025-10-17_18h33.54.486,sm,2024.2.4,59.971813248267196,2025-10-17 18h34.03.712370 +0200,
,,,,,,,,,,,,,,,,,,,,,,,,,,,,,,,,,,,,,,,,,,,,,47.131562500000655,47.14611680000053,47.14611680000053,168.27415760000076,space,121.12530679999873,None,,,,,,,,,,,,,,,,,,,,,,,,,,,,,,,,,,,,,,,,,,,,,,,,,,,,,,,,,,,,,,,,,,,,,,,,,,,,,,,,,,,,,4215,1,2025-10-17_18h33.54.486,sm,2024.2.4,59.971813248267196,2025-10-17 18h34.03.712370 +0200,
,,,,,,,,,,,,,,,,,,,,,,,,,,,,,,,,,,,,,,,,,,,,,,,,,,,,168.27429330000086,168.29090440000073,168.29090440000073,191.59122930000012,2,23.292202599999655,None,,,,,,,,,,,,,,,,,,,,,,,,,,,,,,,,,,,,,,,,,,,,,,,,,,,,,,,,,,,,,,,,,,,,,,,,,,,,,,4215,1,2025-10-17_18h33.54.486,sm,2024.2.4,59.971813248267196,2025-10-17 18h34.03.712370 +0200,
,,,,,,,,,,,,,,,,,,,,,,,,,,,,,,,,,,,,,,,,,,,,,,,,,,,,,,,,,,,191.59134409999933,191.6060698000001,191.6060698000001,213.88980269999956,2,22.277525000001333,None,,,,,,,,,,,,,,,,,,,,,,,,,,,,,,,,,,,,,,,,,,,,,,,,,,,,,,,,,,,,,,,,,,,,,,,4215,1,2025-10-17_18h33.54.486,sm,2024.2.4,59.971813248267196,2025-10-17 18h34.03.712370 +0200,
0,0,0,Journalistin,Brille,Zeitung,Autorin,5.5971,space,2.3383916999991925,None,None,3,1.6397546000007424,0.25955400000020745,None,0,0,0,0,0,79,79,72,0,0,0,0,0,79,79,37,0,0,0,0,274.9844267999997,,,,,,,,,,,,,,,,,,,,,,,,,,,,,,213.89069949999976,213.89141650000056,213.96491969999988,213.96515660000114,213.9696772999996,213.96996349999972,214.0006050000011,214.00080940000043,214.00749650000034,214.01233169999978,214.01233169999978,216.35654969999996,space,2.3383916999991925,None,216.35670070000015,216.3716671000002,216.3716671000002,262.9530345000003,None,262.96218729999964,262.97128239999984,262.96847576666755,264.1741359000007,272.9680439666665,273.9742341000001,274.9682625000005,Kamera,5.5971,274.9697372999999,274.97043420000045,274.97396070000104,274.9844267999997,280.585147400001,280.5685279999998,280.57519479999974,280.585147400001,280.585147400001,280.585147400001,280.585147400001,282.58421350000026,282.58421350000026,282.58421350000026,282.58421350000026,282.5684368000002,3,1.6397546000007424,0.25955400000020745,None,,,,,,,,,,,,,,,,,,,,,,4215,1,2025-10-17_18h33.54.486,sm,2024.2.4,59.971813248267196,2025-10-17 18h34.03.712370 +0200,
1,0,1,,,,,,space,2.3383916999991925,None,None,2,1.1766407000013714,0.2439211000000796,None,0,0,0,0,,,,,0,0,0,0,,,,,1,0,1,0,282.58421350000026,,,,,,,,,,,,,,,,,,,,,,,,,,,,,,,,,,,,,,,,,,,,,,,,,,,,,,,,,Zähne,2.2719,282.56894789999933,282.56960120000076,282.56970790000014,282.58421350000026,284.86723540000094,284.8517253000009,284.8583273999993,284.86723540000094,284.86723540000094,284.86723540000094,284.86723540000094,286.8671422999996,286.8671422999996,286.8671422999996,286.8671422999996,286.8514978000003,2,1.1766407000013714,0.2439211000000796,None,,,,,,,,,,,,,,,,,,,,,,4215,1,2025-10-17_18h33.54.486,sm,2024.2.4,59.971813248267196,2025-10-17 18h34.03.712370 +0200,
2,0,2,,,,,,space,2.3383916999991925,None,None,3,1.3008205000005546,0.40070769999874756,None,0,0,0,0,,,,,0,0,0,0,,,,,2,0,2,0,286.8671422999996,,,,,,,,,,,,,,,,,,,,,,,,,,,,,,,,,,,,,,,,,,,,,,,,,,,,,,,,,Schnürsenkel,3.8984,286.8520112999995,286.85252050000054,286.8526294000003,286.8671422999996,290.76658529999986,290.7510144000007,290.75465950000034,290.76658529999986,290.76658529999986,290.76658529999986,290.76658529999986,292.7687428999998,292.7687428999998,292.7687428999998,292.7687428999998,292.75128419999965,3,1.3008205000005546,0.40070769999874756,None,,,,,,,,,,,,,,,,,,,,,,4215,1,2025-10-17_18h33.54.486,sm,2024.2.4,59.971813248267196,2025-10-17 18h34.03.712370 +0200,
3,0,3,,,,,,space,2.3383916999991925,None,None,3,1.2433421999994607,0.2955646999998862,None,0,0,0,0,,,,,0,0,0,0,,,,,3,0,3,0,292.7687428999998,,,,,,,,,,,,,,,,,,,,,,,,,,,,,,,,,,,,,,,,,,,,,,,,,,,,,,,,,Keller,2.065,292.7517803999999,292.75229039999977,292.7523946000001,292.7687428999998,294.8331355999999,294.8174815000002,294.8208097000006,294.8331355999999,294.8331355999999,294.8331355999999,294.8331355999999,296.8331947000006,296.8331947000006,296.8331947000006,296.8331947000006,296.81779129999995,3,1.2433421999994607,0.2955646999998862,None,,,,,,,,,,,,,,,,,,,,,,4215,1,2025-10-17_18h33.54.486,sm,2024.2.4,59.971813248267196,2025-10-17 18h34.03.712370 +0200,
4,0,4,,,,,,space,2.3383916999991925,None,None,2,1.052989300000263,0.24270770000111952,None,0,0,0,0,,,,,0,0,0,0,,,,,4,0,4,0,296.8331947000006,,,,,,,,,,,,,,,,,,,,,,,,,,,,,,,,,,,,,,,,,,,,,,,,,,,,,,,,,Team,2.2057,296.8182907999999,296.8188141999999,296.81891949999954,296.8331947000006,299.0496055000003,299.0339829000004,299.03779340000074,299.0496055000003,299.0496055000003,299.0496055000003,299.0496055000003,301.0494362999998,301.0494362999998,301.0494362999998,301.0494362999998,301.0341902,2,1.052989300000263,0.24270770000111952,None,,,,,,,,,,,,,,,,,,,,,,4215,1,2025-10-17_18h33.54.486,sm,2024.2.4,59.971813248267196,2025-10-17 18h34.03.712370 +0200,
5,0,5,,,,,,space,2.3383916999991925,None,None,3,1.510027500000433,0.2459806999995635,None,0,0,0,0,,,,,0,0,0,0,,,,,5,0,5,0,301.0494362999998,,,,,,,,,,,,,,,,,,,,,,,,,,,,,,,,,,,,,,,,,,,,,,,,,,,,,,,,,Fakt,2.825,301.0346129999998,301.03507809999974,301.03516599999966,301.0494362999998,303.8823260999998,303.86712629999965,303.8723355000002,303.8823260999998,303.8823260999998,303.8823260999998,303.8823260999998,305.88261910000074,305.88261910000074,305.88261910000074,305.88261910000074,305.8670757,3,1.510027500000433,0.2459806999995635,None,,,,,,,,,,,,,,,,,,,,,,4215,1,2025-10-17_18h33.54.486,sm,2024.2.4,59.971813248267196,2025-10-17 18h34.03.712370 +0200,
6,0,6,,,,,,space,2.3383916999991925,None,None,3,1.1511863000014273,0.27459559999988414,None,0,0,0,0,,,,,0,0,0,0,,,,,6,0,6,0,305.88261910000074,,,,,,,,,,,,,,,,,,,,,,,,,,,,,,,,,,,,,,,,,,,,,,,,,,,,,,,,,Teleskop,2.1788,305.8675827999996,305.8680953000003,305.86820029999944,305.88261910000074,308.0657038999998,308.05018650000056,308.054317600001,308.0657038999998,308.0657038999998,308.0657038999998,308.0657038999998,310.06570210000064,310.06570210000064,310.06570210000064,310.06570210000064,310.0502345999994,3,1.1511863000014273,0.27459559999988414,None,,,,,,,,,,,,,,,,,,,,,,4215,1,2025-10-17_18h33.54.486,sm,2024.2.4,59.971813248267196,2025-10-17 18h34.03.712370 +0200,
7,0,7,,,,,,space,2.3383916999991925,None,None,3,0.939410200000566,0.2792967999994289,None,0,0,0,0,,,,,0,0,0,0,,,,,7,0,7,0,310.06570210000064,,,,,,,,,,,,,,,,,,,,,,,,,,,,,,,,,,,,,,,,,,,,,,,,,,,,,,,,,Brief,2.8269,310.0507008000004,310.05142590000105,310.0515417000006,310.06570210000064,312.8986681999995,312.88294809999934,312.8869706000005,312.8986681999995,312.8986681999995,312.8986681999995,312.8986681999995,314.89880129999983,314.89880129999983,314.89880129999983,314.89880129999983,314.8833314000003,3,0.939410200000566,0.2792967999994289,None,,,,,,,,,,,,,,,,,,,,,,4215,1,2025-10-17_18h33.54.486,sm,2024.2.4,59.971813248267196,2025-10-17 18h34.03.712370 +0200,
8,0,8,,,,,,space,2.3383916999991925,None,None,None,,,None,0,0,0,0,,,,,0,0,0,0,,,,,8,0,8,0,314.89880129999983,,,,,,,,,,,,,,,,,,,,,,,,,,,,,,,,,,,,,,,,,,,,,,,,,,,,,,,,,Komödie,2.3346,314.8838314000004,314.8843314000005,314.88443689999986,314.89880129999983,317.2482443000008,317.2329705000011,317.23652220000076,317.2482443000008,317.2482443000008,317.2482443000008,317.2482443000008,319.2486649000002,319.2486649000002,319.2486649000002,319.2486649000002,319.2329116000001,None,,,None,,,,,,,,,,,,,,,,,,,,,,4215,1,2025-10-17_18h33.54.486,sm,2024.2.4,59.971813248267196,2025-10-17 18h34.03.712370 +0200,
9,0,9,,,,,,space,2.3383916999991925,None,None,3,1.517985000000408,0.24810909999905562,None,0,0,0,0,,,,,0,0,0,0,,,,,9,0,9,0,319.2486649000002,,,,,,,,,,,,,,,,,,,,,,,,,,,,,,,,,,,,,,,,,,,,,,,,,,,,,,,,,Service,2.1773,319.2333655000002,319.23385770000095,319.2339654999996,319.2486649000002,321.43156350000027,321.41618220000055,321.4204253000007,321.43156350000027,321.43156350000027,321.43156350000027,321.43156350000027,323.43177509999987,323.43177509999987,323.43177509999987,323.43177509999987,323.41617340000084,3,1.517985000000408,0.24810909999905562,None,,,,,,,,,,,,,,,,,,,,,,4215,1,2025-10-17_18h33.54.486,sm,2024.2.4,59.971813248267196,2025-10-17 18h34.03.712370 +0200,
10,0,10,,,,,,space,2.3383916999991925,None,None,2,1.0392609000009543,0.19247030000042287,None,0,0,0,0,,,,,0,0,0,0,,,,,10,0,10,0,323.43177509999987,,,,,,,,,,,,,,,,,,,,,,,,,,,,,,,,,,,,,,,,,,,,,,,,,,,,,,,,,Eule,3.4871,323.41670200000044,323.41720590000114,323.41731249999975,323.43177509999987,326.9311761000008,326.91527210000095,326.9182645000001,326.9311761000008,326.9311761000008,326.9311761000008,326.9311761000008,328.9314381000004,328.9314381000004,328.9314381000004,328.9314381000004,328.9157866000005,2,1.0392609000009543,0.19247030000042287,None,,,,,,,,,,,,,,,,,,,,,,4215,1,2025-10-17_18h33.54.486,sm,2024.2.4,59.971813248267196,2025-10-17 18h34.03.712370 +0200,
11,0,11,,,,,,space,2.3383916999991925,None,None,2,0.7588582999997016,0.215417500001422,None,0,0,0,0,,,,,0,0,0,0,,,,,11,0,11,0,328.9314381000004,,,,,,,,,,,,,,,,,,,,,,,,,,,,,,,,,,,,,,,,,,,,,,,,,,,,,,,,,Hand,2.3958,328.91629470000044,328.9169135000011,328.9170911000001,328.9314381000004,331.33073200000035,331.3153416999994,331.3207495000006,331.33073200000035,331.33073200000035,331.33073200000035,331.33073200000035,333.3311857000008,333.3311857000008,333.3311857000008,333.3311857000008,333.31528720000097,2,0.7588582999997016,0.215417500001422,None,,,,,,,,,,,,,,,,,,,,,,4215,1,2025-10-17_18h33.54.486,sm,2024.2.4,59.971813248267196,2025-10-17 18h34.03.712370 +0200,
12,0,12,,,,,,space,2.3383916999991925,None,None,2,1.1191051000005245,0.2597042999987025,None,0,0,0,0,,,,,0,0,0,0,,,,,12,0,12,0,333.3311857000008,,,,,,,,,,,,,,,,,,,,,,,,,,,,,,,,,,,,,,,,,,,,,,,,,,,,,,,,,Theater,2.7056,333.31569350000063,333.31613370000014,333.31621690000065,333.3311857000008,336.04749600000105,336.0317465999997,336.03579900000113,336.04749600000105,336.04749600000105,336.04749600000105,336.04749600000105,338.0474931000008,338.0474931000008,338.0474931000008,338.0474931000008,338.0318079999997,2,1.1191051000005245,0.2597042999987025,None,,,,,,,,,,,,,,,,,,,,,,4215,1,2025-10-17_18h33.54.486,sm,2024.2.4,59.971813248267196,2025-10-17 18h34.03.712370 +0200,
13,0,13,,,,,,space,2.3383916999991925,None,None,2,1.9195251000001008,None,None,0,0,0,0,,,,,0,0,0,0,,,,,13,0,13,0,338.0474931000008,,,,,,,,,,,,,,,,,,,,,,,,,,,,,,,,,,,,,,,,,,,,,,,,,,,,,,,,,Sprache,2.4418,338.032306000001,338.0329466000003,338.0330515000005,338.0474931000008,340.4971303000002,340.4813405999994,340.4851447000001,340.4971303000002,340.4971303000002,340.4971303000002,340.4971303000002,342.49707599999965,342.49707599999965,342.49707599999965,342.49707599999965,342.48174780000045,2,1.9195251000001008,None,None,,,,,,,,,,,,,,,,,,,,,,4215,1,2025-10-17_18h33.54.486,sm,2024.2.4,59.971813248267196,2025-10-17 18h34.03.712370 +0200,
14,0,14,,,,,,space,2.3383916999991925,None,None,3,1.0544289999998,0.2911865999994916,None,0,0,0,0,,,,,0,0,0,0,,,,,14,0,14,0,342.49707599999965,,,,,,,,,,,,,,,,,,,,,,,,,,,,,,,,,,,,,,,,,,,,,,,,,,,,,,,,,Marmor,3.2175,342.4822511000002,342.4827931,342.4828995000007,342.49707599999965,345.7135130000006,345.6979553000001,345.70210960000077,345.7135130000006,345.7135130000006,345.7135130000006,345.7135130000006,347.7139695999995,347.7139695999995,347.7139695999995,347.7139695999995,347.6978245999999,3,1.0544289999998,0.2911865999994916,None,,,,,,,,,,,,,,,,,,,,,,4215,1,2025-10-17_18h33.54.486,sm,2024.2.4,59.971813248267196,2025-10-17 18h34.03.712370 +0200,
15,0,15,,,,,,space,2.3383916999991925,None,None,3,0.911589899998944,0.2449551000008796,None,0,0,0,0,,,,,0,0,0,0,,,,,15,0,15,0,347.7139695999995,,,,,,,,,,,,,,,,,,,,,,,,,,,,,,,,,,,,,,,,,,,,,,,,,,,,,,,,,Tür,2.91,347.69833180000023,347.6988478000003,347.69896060000065,347.7139695999995,350.6298523000005,350.61411709999993,350.6171448999994,350.6298523000005,350.6298523000005,350.6298523000005,350.6298523000005,352.63013580000006,352.63013580000006,352.63013580000006,352.63013580000006,352.614323400001,3,0.911589899998944,0.2449551000008796,None,,,,,,,,,,,,,,,,,,,,,,4215,1,2025-10-17_18h33.54.486,sm,2024.2.4,59.971813248267196,2025-10-17 18h34.03.712370 +0200,
16,0,16,,,,,,space,2.3383916999991925,None,None,2,1.0219866999996157,0.18748630000118283,None,0,0,0,0,,,,,0,0,0,0,,,,,16,0,16,0,352.63013580000006,,,,,,,,,,,,,,,,,,,,,,,,,,,,,,,,,,,,,,,,,,,,,,,,,,,,,,,,,Tanne,3.4475,352.61482799999976,352.61548890000086,352.6155988999999,352.63013580000006,356.07997310000064,356.06422100000054,356.0681545000007,356.07997310000064,356.07997310000064,356.07997310000064,356.07997310000064,358.079999900001,358.079999900001,358.079999900001,358.079999900001,358.0640177000005,2,1.0219866999996157,0.18748630000118283,None,,,,,,,,,,,,,,,,,,,,,,4215,1,2025-10-17_18h33.54.486,sm,2024.2.4,59.971813248267196,2025-10-17 18h34.03.712370 +0200,
17,0,17,,,,,,space,2.3383916999991925,None,None,3,1.8048629999993864,None,None,0,0,0,0,,,,,0,0,0,0,,,,,17,0,17,0,358.079999900001,,,,,,,,,,,,,,,,,,,,,,,,,,,,,,,,,,,,,,,,,,,,,,,,,,,,,,,,,Saft,3.0739,358.06451650000054,358.0651670999996,358.06527240000105,358.079999900001,361.1628374000011,361.1469023000009,361.1499659000001,361.1628374000011,361.1628374000011,361.1628374000011,361.1628374000011,363.1625963000006,363.1625963000006,363.1625963000006,363.1625963000006,363.1471044000009,3,1.8048629999993864,None,None,,,,,,,,,,,,,,,,,,,,,,4215,1,2025-10-17_18h33.54.486,sm,2024.2.4,59.971813248267196,2025-10-17 18h34.03.712370 +0200,
18,0,18,,,,,,space,2.3383916999991925,None,None,3,1.4005114999999932,0.31389499999932013,None,0,0,0,0,,,,,0,0,0,0,,,,,18,0,18,0,363.1625963000006,,,,,,,,,,,,,,,,,,,,,,,,,,,,,,,,,,,,,,,,,,,,,,,,,,,,,,,,,Netz,2.0987,363.14760229999956,363.14823310000065,363.14834379999957,363.1625963000006,365.26208059999954,365.24630869999964,365.2490534000008,365.26208059999954,365.26208059999954,365.26208059999954,365.26208059999954,367.26244919999954,367.26244919999954,367.26244919999954,367.26244919999954,367.24655820000044,3,1.4005114999999932,0.31389499999932013,None,,,,,,,,,,,,,,,,,,,,,,4215,1,2025-10-17_18h33.54.486,sm,2024.2.4,59.971813248267196,2025-10-17 18h34.03.712370 +0200,
19,0,19,,,,,,space,2.3383916999991925,None,None,3,1.332655000000159,0.2852208000003884,None,0,0,0,0,,,,,0,0,0,0,,,,,19,0,19,0,367.26244919999954,,,,,,,,,,,,,,,,,,,,,,,,,,,,,,,,,,,,,,,,,,,,,,,,,,,,,,,,,Brille,2.8259,367.2469997999997,367.2475161000002,367.24761020000005,367.26244919999954,370.0952367000009,370.0798553000004,370.0830595000007,370.0952367000009,370.0952367000009,370.0952367000009,370.0952367000009,372.09554690000004,372.09554690000004,372.09554690000004,372.09554690000004,372.0799079999997,3,1.332655000000159,0.2852208000003884,None,,,,,,,,,,,,,,,,,,,,,,4215,1,2025-10-17_18h33.54.486,sm,2024.2.4,59.971813248267196,2025-10-17 18h34.03.712370 +0200,
20,0,20,,,,,,space,2.3383916999991925,None,None,3,1.5813352999994095,0.28957380000065314,None,0,0,0,0,,,,,0,0,0,0,,,,,20,0,20,0,372.09554690000004,,,,,,,,,,,,,,,,,,,,,,,,,,,,,,,,,,,,,,,,,,,,,,,,,,,,,,,,,Dip,5.5956,372.0804033000004,372.08099330000005,372.08109650000006,372.09554690000004,377.69481520000045,377.6793641999993,377.683221700001,377.69481520000045,377.69481520000045,377.69481520000045,377.69481520000045,379.6949499000002,379.6949499000002,379.6949499000002,379.6949499000002,379.67938460000005,3,1.5813352999994095,0.28957380000065314,None,,,,,,,,,,,,,,,,,,,,,,4215,1,2025-10-17_18h33.54.486,sm,2024.2.4,59.971813248267196,2025-10-17 18h34.03.712370 +0200,
21,0,21,,,,,,space,2.3383916999991925,None,None,2,0.7743695000008302,0.21704869999848597,None,0,0,0,0,,,,,0,0,0,0,,,,,21,0,21,0,379.6949499000002,,,,,,,,,,,,,,,,,,,,,,,,,,,,,,,,,,,,,,,,,,,,,,,,,,,,,,,,,Student,2.1064,379.6798928999997,379.6804382999999,379.6805457999999,379.6949499000002,381.8111781000007,381.7954834000011,381.79905019999933,381.8111781000007,381.8111781000007,381.8111781000007,381.8111781000007,383.81147079999937,383.81147079999937,383.81147079999937,383.81147079999937,383.79612970000017,2,0.7743695000008302,0.21704869999848597,None,,,,,,,,,,,,,,,,,,,,,,4215,1,2025-10-17_18h33.54.486,sm,2024.2.4,59.971813248267196,2025-10-17 18h34.03.712370 +0200,
22,0,22,,,,,,space,2.3383916999991925,None,None,2,1.1764738999991096,0.19840710000062245,None,0,0,0,0,,,,,0,0,0,0,,,,,22,0,22,0,383.81147079999937,,,,,,,,,,,,,,,,,,,,,,,,,,,,,,,,,,,,,,,,,,,,,,,,,,,,,,,,,Gras,3.7866,383.7966424999995,383.7971553999996,383.7972608,383.81147079999937,387.61090590000094,387.59522780000043,387.5982683000002,387.61090590000094,387.61090590000094,387.61090590000094,387.61090590000094,389.61090650000006,389.61090650000006,389.61090650000006,389.61090650000006,389.5953179999997,2,1.1764738999991096,0.19840710000062245,None,,,,,,,,,,,,,,,,,,,,,,4215,1,2025-10-17_18h33.54.486,sm,2024.2.4,59.971813248267196,2025-10-17 18h34.03.712370 +0200,
23,0,23,,,,,,space,2.3383916999991925,None,None,2,0.8160371000012674,0.2403571999984706,None,0,0,0,0,,,,,0,0,0,0,,,,,23,0,23,0,389.61090650000006,,,,,,,,,,,,,,,,,,,,,,,,,,,,,,,,,,,,,,,,,,,,,,,,,,,,,,,,,Ei,4.405,389.59582319999936,389.59632299999976,389.5964270000004,389.61090650000006,394.0273362000007,394.0116806999995,394.0151674000008,394.0273362000007,394.0273362000007,394.0273362000007,394.0273362000007,396.0276656999995,396.0276656999995,396.0276656999995,396.0276656999995,396.01151200000095,2,0.8160371000012674,0.2403571999984706,None,,,,,,,,,,,,,,,,,,,,,,4215,1,2025-10-17_18h33.54.486,sm,2024.2.4,59.971813248267196,2025-10-17 18h34.03.712370 +0200,
24,0,24,,,,,,space,2.3383916999991925,None,None,3,1.334173200000805,0.2681280999986484,None,0,0,0,0,,,,,0,0,0,0,,,,,24,0,24,0,396.0276656999995,,,,,,,,,,,,,,,,,,,,,,,,,,,,,,,,,,,,,,,,,,,,,,,,,,,,,,,,,Lava,2.3394,396.0119599999998,396.0124474999993,396.012537300001,396.0276656999995,398.3771190999996,398.36182949999966,398.365449500001,398.3771190999996,398.3771190999996,398.3771190999996,398.3771190999996,400.3770946000004,400.3770946000004,400.3770946000004,400.3770946000004,400.361648600001,3,1.334173200000805,0.2681280999986484,None,,,,,,,,,,,,,,,,,,,,,,4215,1,2025-10-17_18h33.54.486,sm,2024.2.4,59.971813248267196,2025-10-17 18h34.03.712370 +0200,
25,0,25,,,,,,space,2.3383916999991925,None,None,3,0.834428599999228,0.2680839000004198,None,0,0,0,0,,,,,0,0,0,0,,,,,25,0,25,0,400.3770946000004,,,,,,,,,,,,,,,,,,,,,,,,,,,,,,,,,,,,,,,,,,,,,,,,,,,,,,,,,Gewürz,4.4157,400.3621550000007,400.3626619000006,400.3627682000006,400.3770946000004,404.79315680000036,404.77764729999944,404.7812821999996,404.79315680000036,404.79315680000036,404.79315680000036,404.79315680000036,406.7939072999998,406.7939072999998,406.7939072999998,406.7939072999998,406.7776154000003,3,0.834428599999228,0.2680839000004198,None,,,,,,,,,,,,,,,,,,,,,,4215,1,2025-10-17_18h33.54.486,sm,2024.2.4,59.971813248267196,2025-10-17 18h34.03.712370 +0200,
26,0,26,,,,,,space,2.3383916999991925,None,None,2,0.9231997000006231,0.22241360000043642,None,0,0,0,0,,,,,0,0,0,0,,,,,26,0,26,0,406.7939072999998,,,,,,,,,,,,,,,,,,,,,,,,,,,,,,,,,,,,,,,,,,,,,,,,,,,,,,,,,Klee,3.1572,406.77808659999937,406.7785805000003,406.7786797000008,406.7939072999998,409.95991850000064,409.94414920000054,409.9476396000009,409.95991850000064,409.95991850000064,409.95991850000064,409.95991850000064,411.9595346999995,411.9595346999995,411.9595346999995,411.9595346999995,411.9443202000002,2,0.9231997000006231,0.22241360000043642,None,,,,,,,,,,,,,,,,,,,,,,4215,1,2025-10-17_18h33.54.486,sm,2024.2.4,59.971813248267196,2025-10-17 18h34.03.712370 +0200,
27,0,27,,,,,,space,2.3383916999991925,None,None,3,1.954533399999491,None,None,0,0,0,0,,,,,0,0,0,0,,,,,27,0,27,0,411.9595346999995,,,,,,,,,,,,,,,,,,,,,,,,,,,,,,,,,,,,,,,,,,,,,,,,,,,,,,,,,Nebel,3.9726,411.94482980000066,411.9453422000006,411.9454504000005,411.9595346999995,415.9428710000011,415.9275673000011,415.9324641000003,415.9428710000011,415.9428710000011,415.9428710000011,415.9428710000011,417.94269130000066,417.94269130000066,417.94269130000066,417.94269130000066,417.9271368000009,3,1.954533399999491,None,None,,,,,,,,,,,,,,,,,,,,,,4215,1,2025-10-17_18h33.54.486,sm,2024.2.4,59.971813248267196,2025-10-17 18h34.03.712370 +0200,
28,0,28,,,,,,space,2.3383916999991925,None,None,3,0.9308987000003981,0.32434289999946486,None,0,0,0,0,,,,,0,0,0,0,,,,,28,0,28,0,417.94269130000066,,,,,,,,,,,,,,,,,,,,,,,,,,,,,,,,,,,,,,,,,,,,,,,,,,,,,,,,,Zug,2.067,417.9276442999999,417.9281948000007,417.9283011999996,417.94269130000066,420.00905319999947,419.9933460000011,419.9963152,420.00905319999947,420.00905319999947,420.00905319999947,420.00905319999947,422.00905950000015,422.00905950000015,422.00905950000015,422.00905950000015,421.9933710999994,3,0.9308987000003981,0.32434289999946486,None,,,,,,,,,,,,,,,,,,,,,,4215,1,2025-10-17_18h33.54.486,sm,2024.2.4,59.971813248267196,2025-10-17 18h34.03.712370 +0200,
29,0,29,,,,,,space,2.3383916999991925,None,None,2,1.0729991999978665,0.1960958000017854,None,0,0,0,0,,,,,0,0,0,0,,,,,29,0,29,0,422.00905950000015,,,,,,,,,,,,,,,,,,,,,,,,,,,,,,,,,,,,,,,,,,,,,,,,,,,,,,,,,Gelenk,2.309,421.9937948000006,421.9942747999994,421.99436480000077,422.00905950000015,424.3256489999985,424.31010759999845,424.3142736000009,424.3256489999985,424.3256489999985,424.3256489999985,424.3256489999985,426.3257459999986,426.3257459999986,426.3257459999986,426.3257459999986,426.30993260000105,2,1.0729991999978665,0.1960958000017854,None,,,,,,,,,,,,,,,,,,,,,,4215,1,2025-10-17_18h33.54.486,sm,2024.2.4,59.971813248267196,2025-10-17 18h34.03.712370 +0200,
30,0,30,,,,,,space,2.3383916999991925,None,None,3,1.5854761000009603,0.24438499999814667,None,0,0,0,0,,,,,0,0,0,0,,,,,30,0,30,0,426.3257459999986,,,,,,,,,,,,,,,,,,,,,,,,,,,,,,,,,,,,,,,,,,,,,,,,,,,,,,,,,Essen,4.291,426.3104759000016,426.31101639999906,426.3111288,426.3257459999986,430.6261344000013,430.6098012000002,430.61396199999945,430.6261344000013,430.6261344000013,430.6261344000013,430.6261344000013,432.62516870000036,432.62516870000036,432.62516870000036,432.62516870000036,432.6098982000003,3,1.5854761000009603,0.24438499999814667,None,,,,,,,,,,,,,,,,,,,,,,4215,1,2025-10-17_18h33.54.486,sm,2024.2.4,59.971813248267196,2025-10-17 18h34.03.712370 +0200,
31,0,31,,,,,,space,2.3383916999991925,None,None,3,1.4859133999998448,0.3245543000011821,None,0,0,0,0,,,,,0,0,0,0,,,,,31,0,31,0,432.62516870000036,,,,,,,,,,,,,,,,,,,,,,,,,,,,,,,,,,,,,,,,,,,,,,,,,,,,,,,,,Wüste,2.0917,432.61034429999927,432.6108413000002,432.61093489999985,432.62516870000036,434.7250275000006,434.709375800001,434.71322449999934,434.7250275000006,434.7250275000006,434.7250275000006,434.7250275000006,436.72496690000116,436.72496690000116,436.72496690000116,436.72496690000116,436.70943709999847,3,1.4859133999998448,0.3245543000011821,None,,,,,,,,,,,,,,,,,,,,,,4215,1,2025-10-17_18h33.54.486,sm,2024.2.4,59.971813248267196,2025-10-17 18h34.03.712370 +0200,
32,0,32,,,,,,space,2.3383916999991925,None,None,3,1.0899508000002243,0.3982591999993019,None,0,0,0,0,,,,,0,0,0,0,,,,,32,0,32,0,436.72496690000116,,,,,,,,,,,,,,,,,,,,,,,,,,,,,,,,,,,,,,,,,,,,,,,,,,,,,,,,,Frieden,3.1437,436.7099613999999,436.7108585999995,436.7109808999994,436.72496690000116,439.87451430000147,439.8591732999994,439.8626058000009,439.87451430000147,439.87451430000147,439.87451430000147,439.87451430000147,441.8746042999992,441.8746042999992,441.8746042999992,441.8746042999992,441.8589783999996,3,1.0899508000002243,0.3982591999993019,None,,,,,,,,,,,,,,,,,,,,,,4215,1,2025-10-17_18h33.54.486,sm,2024.2.4,59.971813248267196,2025-10-17 18h34.03.712370 +0200,
33,0,33,,,,,,space,2.3383916999991925,None,None,3,1.3503356000001077,0.33183869999993476,None,0,0,0,0,,,,,0,0,0,0,,,,,33,0,33,0,441.8746042999992,,,,,,,,,,,,,,,,,,,,,,,,,,,,,,,,,,,,,,,,,,,,,,,,,,,,,,,,,Schnee,2.4615,441.8594516000012,441.859947500001,441.8600456999993,441.8746042999992,444.34089550000135,444.32557069999893,444.32934699999896,444.34089550000135,444.34089550000135,444.34089550000135,444.34089550000135,446.34111119999943,446.34111119999943,446.34111119999943,446.34111119999943,446.32522320000135,3,1.3503356000001077,0.33183869999993476,None,,,,,,,,,,,,,,,,,,,,,,4215,1,2025-10-17_18h33.54.486,sm,2024.2.4,59.971813248267196,2025-10-17 18h34.03.712370 +0200,
34,0,34,,,,,,space,2.3383916999991925,None,None,2,0.8010928000003332,0.23764490000030492,None,0,0,0,0,,,,,0,0,0,0,,,,,34,0,34,0,446.34111119999943,,,,,,,,,,,,,,,,,,,,,,,,,,,,,,,,,,,,,,,,,,,,,,,,,,,,,,,,,Turnerin,3.0483,446.3256446999985,446.3261516999992,446.3262404999987,446.34111119999943,449.39081499999884,449.375240100002,449.37964959999954,449.39081499999884,449.39081499999884,449.39081499999884,449.39081499999884,451.3910751000003,451.3910751000003,451.3910751000003,451.3910751000003,451.37497710000025,2,0.8010928000003332,0.23764490000030492,None,,,,,,,,,,,,,,,,,,,,,,4215,1,2025-10-17_18h33.54.486,sm,2024.2.4,59.971813248267196,2025-10-17 18h34.03.712370 +0200,
35,0,35,,,,,,space,2.3383916999991925,None,None,3,1.0192879000023822,0.3125674999973853,None,0,0,0,0,,,,,0,0,0,0,,,,,35,0,35,0,451.3910751000003,,,,,,,,,,,,,,,,,,,,,,,,,,,,,,,,,,,,,,,,,,,,,,,,,,,,,,,,,Schwimmen,4.0515,451.3754211000014,451.37589350000053,451.375985900002,451.3910751000003,455.45684320000146,455.4413545999996,455.4450867000014,455.45684320000146,455.45684320000146,455.45684320000146,455.45684320000146,457.45714360000056,457.45714360000056,457.45714360000056,457.45714360000056,457.4420910000008,3,1.0192879000023822,0.3125674999973853,None,,,,,,,,,,,,,,,,,,,,,,4215,1,2025-10-17_18h33.54.486,sm,2024.2.4,59.971813248267196,2025-10-17 18h34.03.712370 +0200,
36,0,36,,,,,,space,2.3383916999991925,None,None,3,1.0185510000010254,0.3430499999994936,None,0,0,0,0,,,,,0,0,0,0,,,,,36,0,36,0,457.45714360000056,,,,,,,,,,,,,,,,,,,,,,,,,,,,,,,,,,,,,,,,,,,,,,,,,,,,,,,,,Poesie,2.7199,457.44261059999917,457.44326,457.4433643000011,457.45714360000056,460.19014759999845,460.17511260000174,460.1814188999997,460.19014759999845,460.19014759999845,460.19014759999845,460.19014759999845,462.1901892999995,462.1901892999995,462.1901892999995,462.1901892999995,462.1746911000009,3,1.0185510000010254,0.3430499999994936,None,,,,,,,,,,,,,,,,,,,,,,4215,1,2025-10-17_18h33.54.486,sm,2024.2.4,59.971813248267196,2025-10-17 18h34.03.712370 +0200,
37,0,37,,,,,,space,2.3383916999991925,None,None,2,0.8803255000020727,0.3034391000001051,None,0,0,0,0,,,,,0,0,0,0,,,,,37,0,37,0,462.1901892999995,,,,,,,,,,,,,,,,,,,,,,,,,,,,,,,,,,,,,,,,,,,,,,,,,,,,,,,,,Bruder,2.5717,462.17519360000006,462.1758402999985,462.1759462000009,462.1901892999995,464.77312879999954,464.757590600002,464.76142990000153,464.77312879999954,464.77312879999954,464.77312879999954,464.77312879999954,466.7732012000015,466.7732012000015,466.7732012000015,466.7732012000015,466.7575308000014,2,0.8803255000020727,0.3034391000001051,None,,,,,,,,,,,,,,,,,,,,,,4215,1,2025-10-17_18h33.54.486,sm,2024.2.4,59.971813248267196,2025-10-17 18h34.03.712370 +0200,
38,0,38,,,,,,space,2.3383916999991925,None,None,3,1.4472931999989669,0.2732132000019192,None,0,0,0,0,,,,,0,0,0,0,,,,,38,0,38,0,466.7732012000015,,,,,,,,,,,,,,,,,,,,,,,,,,,,,,,,,,,,,,,,,,,,,,,,,,,,,,,,,Bürste,2.7028,466.75803870000163,466.75861240000086,466.7587201999995,466.7732012000015,469.48998669999855,469.47443589999966,469.47863770000185,469.48998669999855,469.48998669999855,469.48998669999855,469.48998669999855,471.48955410000053,471.48955410000053,471.48955410000053,471.48955410000053,471.47401119999995,3,1.4472931999989669,0.2732132000019192,None,,,,,,,,,,,,,,,,,,,,,,4215,1,2025-10-17_18h33.54.486,sm,2024.2.4,59.971813248267196,2025-10-17 18h34.03.712370 +0200,
39,0,39,,,,,,space,2.3383916999991925,None,None,3,1.331219499999861,0.3819100000000617,None,0,0,0,0,,,,,0,0,0,0,,,,,39,0,39,0,471.48955410000053,,,,,,,,,,,,,,,,,,,,,,,,,,,,,,,,,,,,,,,,,,,,,,,,,,,,,,,,,Weihnachten,2.8541,471.47449609999967,471.4749953999999,471.475102299999,471.48955410000053,474.3562453000013,474.34027810000043,474.34360749999905,474.3562453000013,474.3562453000013,474.3562453000013,474.3562453000013,476.3563089999989,476.3563089999989,476.3563089999989,476.3563089999989,476.3405281000014,3,1.331219499999861,0.3819100000000617,None,,,,,,,,,,,,,,,,,,,,,,4215,1,2025-10-17_18h33.54.486,sm,2024.2.4,59.971813248267196,2025-10-17 18h34.03.712370 +0200,
40,0,40,,,,,,space,2.3383916999991925,None,None,2,0.7450251000009303,0.21196000000054482,None,0,0,0,0,,,,,0,0,0,0,,,,,40,0,40,0,476.3563089999989,,,,,,,,,,,,,,,,,,,,,,,,,,,,,,,,,,,,,,,,,,,,,,,,,,,,,,,,,Wurm,2.9563,476.3410349000005,476.34154879999915,476.3416533999989,476.3563089999989,479.322460899999,479.30667520000134,479.31092649999846,479.322460899999,479.322460899999,479.322460899999,479.322460899999,481.3224149000016,481.3224149000016,481.3224149000016,481.3224149000016,481.30680980000034,2,0.7450251000009303,0.21196000000054482,None,,,,,,,,,,,,,,,,,,,,,,4215,1,2025-10-17_18h33.54.486,sm,2024.2.4,59.971813248267196,2025-10-17 18h34.03.712370 +0200,
41,0,41,,,,,,space,2.3383916999991925,None,None,3,0.9978587000005064,0.26762070000040694,None,0,0,0,0,,,,,0,0,0,0,,,,,41,0,41,0,481.3224149000016,,,,,,,,,,,,,,,,,,,,,,,,,,,,,,,,,,,,,,,,,,,,,,,,,,,,,,,,,Geburtstag,3.0483,481.30732050000006,481.3078208000006,481.30792909999946,481.3224149000016,484.37180739999894,484.35638870000184,484.3601536999995,484.37180739999894,484.37180739999894,484.37180739999894,484.37180739999894,486.37208680000185,486.37208680000185,486.37208680000185,486.37208680000185,486.35644650000177,3,0.9978587000005064,0.26762070000040694,None,,,,,,,,,,,,,,,,,,,,,,4215,1,2025-10-17_18h33.54.486,sm,2024.2.4,59.971813248267196,2025-10-17 18h34.03.712370 +0200,
42,0,42,,,,,,space,2.3383916999991925,None,None,2,1.4378397000000405,0.2592680999987351,None,0,0,0,0,,,,,0,0,0,0,,,,,42,0,42,0,486.37208680000185,,,,,,,,,,,,,,,,,,,,,,,,,,,,,,,,,,,,,,,,,,,,,,,,,,,,,,,,,Gespräch,2.5255,486.3569200999991,486.35749489999944,486.3575911000007,486.37208680000185,488.90524260000166,488.88980420000007,488.89422289999857,488.90524260000166,488.90524260000166,488.90524260000166,488.90524260000166,490.9052617999987,490.9052617999987,490.9052617999987,490.9052617999987,490.8900829000013,2,1.4378397000000405,0.2592680999987351,None,,,,,,,,,,,,,,,,,,,,,,4215,1,2025-10-17_18h33.54.486,sm,2024.2.4,59.971813248267196,2025-10-17 18h34.03.712370 +0200,
43,0,43,,,,,,space,2.3383916999991925,None,None,3,1.6656703999979072,0.2208059000004141,None,0,0,0,0,,,,,0,0,0,0,,,,,43,0,43,0,490.9052617999987,,,,,,,,,,,,,,,,,,,,,,,,,,,,,,,,,,,,,,,,,,,,,,,,,,,,,,,,,Party,2.286,490.8905866999994,490.89111290000073,490.8912182999993,490.9052617999987,493.1878074000015,493.1747097000007,493.1813543999997,493.1878074000015,493.1878074000015,493.1878074000015,493.1878074000015,495.18837260000146,495.18837260000146,495.18837260000146,495.18837260000146,495.17273209999985,3,1.6656703999979072,0.2208059000004141,None,,,,,,,,,,,,,,,,,,,,,,4215,1,2025-10-17_18h33.54.486,sm,2024.2.4,59.971813248267196,2025-10-17 18h34.03.712370 +0200,
44,0,44,,,,,,space,2.3383916999991925,None,None,None,,,None,0,0,0,0,,,,,0,0,0,0,,,,,44,0,44,0,495.18837260000146,,,,,,,,,,,,,,,,,,,,,,,,,,,,,,,,,,,,,,,,,,,,,,,,,,,,,,,,,Kunst,3.1534,495.17323540000143,495.173748600002,495.17385529999956,495.18837260000146,498.3547007999987,498.33893890000036,498.3426005000001,498.3547007999987,498.3547007999987,498.3547007999987,498.3547007999987,500.3545661999997,500.3545661999997,500.3545661999997,500.3545661999997,500.3390940999998,None,,,None,,,,,,,,,,,,,,,,,,,,,,4215,1,2025-10-17_18h33.54.486,sm,2024.2.4,59.971813248267196,2025-10-17 18h34.03.712370 +0200,
45,0,45,,,,,,space,2.3383916999991925,None,None,3,0.8025665999994089,0.2299817000020994,None,0,0,0,0,,,,,0,0,0,0,,,,,45,0,45,0,500.3545661999997,,,,,,,,,,,,,,,,,,,,,,,,,,,,,,,,,,,,,,,,,,,,,,,,,,,,,,,,,Gold,3.5093,500.33956039999975,500.3401335000017,500.34024000000136,500.3545661999997,503.87078250000195,503.85527459999867,503.85839249999844,503.87078250000195,503.87078250000195,503.87078250000195,503.87078250000195,505.87119209999946,505.87119209999946,505.87119209999946,505.87119209999946,505.8555258000015,3,0.8025665999994089,0.2299817000020994,None,,,,,,,,,,,,,,,,,,,,,,4215,1,2025-10-17_18h33.54.486,sm,2024.2.4,59.971813248267196,2025-10-17 18h34.03.712370 +0200,
46,0,46,,,,,,space,2.3383916999991925,None,None,2,0.846697299999505,0.20306329999948503,None,0,0,0,0,,,,,0,0,0,0,,,,,46,0,46,0,505.87119209999946,,,,,,,,,,,,,,,,,,,,,,,,,,,,,,,,,,,,,,,,,,,,,,,,,,,,,,,,,Gast,2.5836,505.8560288000008,505.856620999999,505.85679710000113,505.87119209999946,508.4538391999995,508.43836960000044,508.4423932999998,508.4538391999995,508.4538391999995,508.4538391999995,508.4538391999995,510.4540201999989,510.4540201999989,510.4540201999989,510.4540201999989,510.43854250000004,2,0.846697299999505,0.20306329999948503,None,,,,,,,,,,,,,,,,,,,,,,4215,1,2025-10-17_18h33.54.486,sm,2024.2.4,59.971813248267196,2025-10-17 18h34.03.712370 +0200,
47,0,47,,,,,,space,2.3383916999991925,None,None,3,1.2851694999990286,0.28549760000169044,None,0,0,0,0,,,,,0,0,0,0,,,,,47,0,47,0,510.4540201999989,,,,,,,,,,,,,,,,,,,,,,,,,,,,,,,,,,,,,,,,,,,,,,,,,,,,,,,,,Geschäft,2.1429,510.43905209999866,510.43956420000177,510.4396731000015,510.4540201999989,512.6036353999989,512.5879893999991,512.5919723000006,512.6036353999989,512.6036353999989,512.6036353999989,512.6036353999989,514.6037671000013,514.6037671000013,514.6037671000013,514.6037671000013,514.5881012999998,3,1.2851694999990286,0.28549760000169044,None,,,,,,,,,,,,,,,,,,,,,,4215,1,2025-10-17_18h33.54.486,sm,2024.2.4,59.971813248267196,2025-10-17 18h34.03.712370 +0200,
48,0,48,,,,,,space,2.3383916999991925,None,None,3,0.8887447000015527,0.29747929999939515,None,0,0,0,0,,,,,0,0,0,0,,,,,48,0,48,0,514.6037671000013,,,,,,,,,,,,,,,,,,,,,,,,,,,,,,,,,,,,,,,,,,,,,,,,,,,,,,,,,Hemd,3.5452,514.5886027999986,514.5891120999986,514.5892162000018,514.6037671000013,518.1535475000019,518.1379904999994,518.1417602000001,518.1535475000019,518.1535475000019,518.1535475000019,518.1535475000019,520.1534796000014,520.1534796000014,520.1534796000014,520.1534796000014,520.1382675999994,3,0.8887447000015527,0.29747929999939515,None,,,,,,,,,,,,,,,,,,,,,,4215,1,2025-10-17_18h33.54.486,sm,2024.2.4,59.971813248267196,2025-10-17 18h34.03.712370 +0200,
49,0,49,,,,,,space,2.3383916999991925,None,None,3,1.2806330999992497,0.2722907000024861,None,0,0,0,0,,,,,0,0,0,0,,,,,49,0,49,0,520.1534796000014,,,,,,,,,,,,,,,,,,,,,,,,,,,,,,,,,,,,,,,,,,,,,,,,,,,,,,,,,Rot,2.6501,520.1387689000003,520.139278300001,520.1393824000006,520.1534796000014,522.803125800001,522.7874679999986,522.7906416000005,522.803125800001,522.803125800001,522.803125800001,522.803125800001,524.8031880999988,524.8031880999988,524.8031880999988,524.8031880999988,524.7874967999996,3,1.2806330999992497,0.2722907000024861,None,,,,,,,,,,,,,,,,,,,,,,4215,1,2025-10-17_18h33.54.486,sm,2024.2.4,59.971813248267196,2025-10-17 18h34.03.712370 +0200,
50,0,50,,,,,,space,2.3383916999991925,None,None,3,1.4005132999991474,0.26312719999987166,None,0,0,0,0,,,,,0,0,0,0,,,,,50,0,50,0,524.8031880999988,,,,,,,,,,,,,,,,,,,,,,,,,,,,,,,,,,,,,,,,,,,,,,,,,,,,,,,,,Scheidung,3.126,524.7879866000003,524.7886276999998,524.7887331999991,524.8031880999988,527.9360338000006,527.9208088000014,527.9245926000003,527.9360338000006,527.9360338000006,527.9360338000006,527.9360338000006,529.9362559000001,529.9362559000001,529.9362559000001,529.9362559000001,529.9207222000005,3,1.4005132999991474,0.26312719999987166,None,,,,,,,,,,,,,,,,,,,,,,4215,1,2025-10-17_18h33.54.486,sm,2024.2.4,59.971813248267196,2025-10-17 18h34.03.712370 +0200,
51,0,51,,,,,,space,2.3383916999991925,None,None,2,0.9322355000003881,0.20744729999933043,None,0,0,0,0,,,,,0,0,0,0,,,,,51,0,51,0,529.9362559000001,,,,,,,,,,,,,,,,,,,,,,,,,,,,,,,,,,,,,,,,,,,,,,,,,,,,,,,,,Zwerg,2.4228,529.9212248000003,529.9217161000015,529.9218202000011,529.9362559000001,532.3691591999996,532.3536267000018,532.3573393000006,532.3691591999996,532.3691591999996,532.3691591999996,532.3691591999996,534.3693773999985,534.3693773999985,534.3693773999985,534.3693773999985,534.3535548,2,0.9322355000003881,0.20744729999933043,None,,,,,,,,,,,,,,,,,,,,,,4215,1,2025-10-17_18h33.54.486,sm,2024.2.4,59.971813248267196,2025-10-17 18h34.03.712370 +0200,
52,0,52,,,,,,space,2.3383916999991925,None,None,2,1.4286195000022417,0.18486399999892456,None,0,0,0,0,,,,,0,0,0,0,,,,,52,0,52,0,534.3693773999985,,,,,,,,,,,,,,,,,,,,,,,,,,,,,,,,,,,,,,,,,,,,,,,,,,,,,,,,,Moor,2.1523,534.3540255000007,534.3545220999986,534.3546246000005,534.3693773999985,536.5358233000006,536.5199240000002,536.523030700002,536.5358233000006,536.5358233000006,536.5358233000006,536.5358233000006,538.5357483000007,538.5357483000007,538.5357483000007,538.5357483000007,538.5200657999994,2,1.4286195000022417,0.18486399999892456,None,,,,,,,,,,,,,,,,,,,,,,4215,1,2025-10-17_18h33.54.486,sm,2024.2.4,59.971813248267196,2025-10-17 18h34.03.712370 +0200,
53,0,53,,,,,,space,2.3383916999991925,None,None,2,0.8396661999977368,0.20684060000348836,None,0,0,0,0,,,,,0,0,0,0,,,,,53,0,53,0,538.5357483000007,,,,,,,,,,,,,,,,,,,,,,,,,,,,,,,,,,,,,,,,,,,,,,,,,,,,,,,,,Publikum,5.3544,538.5205693999997,538.521072399999,538.521177300001,538.5357483000007,543.9019885000016,543.8859268999986,543.8897178000007,543.9019885000016,543.9019885000016,543.9019885000016,543.9019885000016,545.9021486999991,545.9021486999991,545.9021486999991,545.9021486999991,545.8864533999986,2,0.8396661999977368,0.20684060000348836,None,,,,,,,,,,,,,,,,,,,,,,4215,1,2025-10-17_18h33.54.486,sm,2024.2.4,59.971813248267196,2025-10-17 18h34.03.712370 +0200,
54,0,54,,,,,,space,2.3383916999991925,None,None,3,1.1347698000026867,0.2682628999973531,None,0,0,0,0,,,,,0,0,0,0,,,,,54,0,54,0,545.9021486999991,,,,,,,,,,,,,,,,,,,,,,,,,,,,,,,,,,,,,,,,,,,,,,,,,,,,,,,,,Shampoo,2.9922,545.8869562,545.8875221999988,545.8876296999988,545.9021486999991,548.9016078999994,548.8866218000003,548.8902799999996,548.9016078999994,548.9016078999994,548.9016078999994,548.9016078999994,550.9019240000016,550.9019240000016,550.9019240000016,550.9019240000016,550.8862112999996,3,1.1347698000026867,0.2682628999973531,None,,,,,,,,,,,,,,,,,,,,,,4215,1,2025-10-17_18h33.54.486,sm,2024.2.4,59.971813248267196,2025-10-17 18h34.03.712370 +0200,
55,0,55,,,,,,space,2.3383916999991925,None,None,3,1.7411238999993657,None,None,0,0,0,0,,,,,0,0,0,0,,,,,55,0,55,0,550.9019240000016,,,,,,,,,,,,,,,,,,,,,,,,,,,,,,,,,,,,,,,,,,,,,,,,,,,,,,,,,Schmerz,3.9324,550.8867011000002,550.8872229000008,550.8873292999997,550.9019240000016,554.8346496000013,554.8192363000016,554.8229898999998,554.8346496000013,554.8346496000013,554.8346496000013,554.8346496000013,556.8345270999998,556.8345270999998,556.8345270999998,556.8345270999998,556.819013100001,3,1.7411238999993657,None,None,,,,,,,,,,,,,,,,,,,,,,4215,1,2025-10-17_18h33.54.486,sm,2024.2.4,59.971813248267196,2025-10-17 18h34.03.712370 +0200,
56,0,56,,,,,,space,2.3383916999991925,None,None,3,1.1449694999973872,0.27624310000101104,None,0,0,0,0,,,,,0,0,0,0,,,,,56,0,56,0,556.8345270999998,,,,,,,,,,,,,,,,,,,,,,,,,,,,,,,,,,,,,,,,,,,,,,,,,,,,,,,,,Sauber,4.4759,556.8194868999999,556.8200322000012,556.8201315000006,556.8345270999998,561.3176297999998,561.3022287999993,561.3062719000009,561.3176297999998,561.3176297999998,561.3176297999998,561.3176297999998,563.3180357000019,563.3180357000019,563.3180357000019,563.3180357000019,563.301903399999,3,1.1449694999973872,0.27624310000101104,None,,,,,,,,,,,,,,,,,,,,,,4215,1,2025-10-17_18h33.54.486,sm,2024.2.4,59.971813248267196,2025-10-17 18h34.03.712370 +0200,
57,0,57,,,,,,space,2.3383916999991925,None,None,3,0.8330213000008371,0.2803708999999799,None,0,0,0,0,,,,,0,0,0,0,,,,,57,0,57,0,563.3180357000019,,,,,,,,,,,,,,,,,,,,,,,,,,,,,,,,,,,,,,,,,,,,,,,,,,,,,,,,,Tasche,2.2884,563.3023767999985,563.3028952999994,563.302993199999,563.3180357000019,565.617858900001,565.6015970000008,565.6050007000013,565.617858900001,565.617858900001,565.617858900001,565.617858900001,567.6172311000009,567.6172311000009,567.6172311000009,567.6172311000009,567.6018919000016,3,0.8330213000008371,0.2803708999999799,None,,,,,,,,,,,,,,,,,,,,,,4215,1,2025-10-17_18h33.54.486,sm,2024.2.4,59.971813248267196,2025-10-17 18h34.03.712370 +0200,
58,0,58,,,,,,space,2.3383916999991925,None,None,3,0.9070747999976447,0.48078349999923375,None,0,0,0,0,,,,,0,0,0,0,,,,,58,0,58,0,567.6172311000009,,,,,,,,,,,,,,,,,,,,,,,,,,,,,,,,,,,,,,,,,,,,,,,,,,,,,,,,,Tasse,3.0301,567.602390600001,567.6030953000009,567.6032068999993,567.6172311000009,570.6504077999998,570.634825699999,570.6384966000005,570.6504077999998,570.6504077999998,570.6504077999998,570.6504077999998,572.6504658000013,572.6504658000013,572.6504658000013,572.6504658000013,572.6349128000002,3,0.9070747999976447,0.48078349999923375,None,,,,,,,,,,,,,,,,,,,,,,4215,1,2025-10-17_18h33.54.486,sm,2024.2.4,59.971813248267196,2025-10-17 18h34.03.712370 +0200,
59,0,59,,,,,,space,2.3383916999991925,None,None,3,0.952009900000121,0.2702945999990334,None,0,0,0,0,,,,,0,0,0,0,,,,,59,0,59,0,572.6504658000013,,,,,,,,,,,,,,,,,,,,,,,,,,,,,,,,,,,,,,,,,,,,,,,,,,,,,,,,,Hügel,2.1198,572.6354171999992,572.635932000001,572.6360351000003,572.6504658000013,574.7835258999985,574.7680485000019,574.7721462000009,574.7835258999985,574.7835258999985,574.7835258999985,574.7835258999985,576.7837585999987,576.7837585999987,576.7837585999987,576.7837585999987,576.7679572999987,3,0.952009900000121,0.2702945999990334,None,,,,,,,,,,,,,,,,,,,,,,4215,1,2025-10-17_18h33.54.486,sm,2024.2.4,59.971813248267196,2025-10-17 18h34.03.712370 +0200,
60,0,60,,,,,,space,2.3383916999991925,None,None,3,1.3187600000019302,0.3075258999997459,None,0,0,0,0,,,,,0,0,0,0,,,,,60,0,60,0,576.7837585999987,,,,,,,,,,,,,,,,,,,,,,,,,,,,,,,,,,,,,,,,,,,,,,,,,,,,,,,,,Pizza,2.6942,576.7684638999999,576.768968299999,576.7690722000007,576.7837585999987,579.4833537000013,579.4677735000005,579.4721522,579.4833537000013,579.4833537000013,579.4833537000013,579.4833537000013,581.4833332000017,581.4833332000017,581.4833332000017,581.4833332000017,581.4674612000017,3,1.3187600000019302,0.3075258999997459,None,,,,,,,,,,,,,,,,,,,,,,4215,1,2025-10-17_18h33.54.486,sm,2024.2.4,59.971813248267196,2025-10-17 18h34.03.712370 +0200,
61,0,61,,,,,,space,2.3383916999991925,None,None,None,,,None,0,0,0,0,,,,,0,0,0,0,,,,,61,0,61,0,581.4833332000017,,,,,,,,,,,,,,,,,,,,,,,,,,,,,,,,,,,,,,,,,,,,,,,,,,,,,,,,,Sicherheit,2.4918,581.4679619999988,581.4684755999988,581.4685840999991,581.4833332000017,583.9826715000017,583.9673160999992,583.9709174000018,583.9826715000017,583.9826715000017,583.9826715000017,583.9826715000017,585.9829377999995,585.9829377999995,585.9829377999995,585.9829377999995,585.967609700001,None,,,None,,,,,,,,,,,,,,,,,,,,,,4215,1,2025-10-17_18h33.54.486,sm,2024.2.4,59.971813248267196,2025-10-17 18h34.03.712370 +0200,
62,0,62,,,,,,space,2.3383916999991925,None,None,2,0.8294031999976141,0.2000982000026852,None,0,0,0,0,,,,,0,0,0,0,,,,,62,0,62,0,585.9829377999995,,,,,,,,,,,,,,,,,,,,,,,,,,,,,,,,,,,,,,,,,,,,,,,,,,,,,,,,,Ziege,2.6737,585.9680764000004,585.9685897000018,585.968695399999,585.9829377999995,588.6658730000017,588.6503985000018,588.6544121000006,588.6658730000017,588.6658730000017,588.6658730000017,588.6658730000017,590.665954,590.665954,590.665954,590.665954,590.6503647999998,2,0.8294031999976141,0.2000982000026852,None,,,,,,,,,,,,,,,,,,,,,,4215,1,2025-10-17_18h33.54.486,sm,2024.2.4,59.971813248267196,2025-10-17 18h34.03.712370 +0200,
63,0,63,,,,,,space,2.3383916999991925,None,None,3,0.8442126999980246,0.2603655999992043,None,0,0,0,0,,,,,0,0,0,0,,,,,63,0,63,0,590.665954,,,,,,,,,,,,,,,,,,,,,,,,,,,,,,,,,,,,,,,,,,,,,,,,,,,,,,,,,Hammer,2.3908,590.6508728000008,590.6515246000017,590.6516325000011,590.665954,593.0658956000007,593.0499899999995,593.0532516999992,593.0658956000007,593.0658956000007,593.0658956000007,593.0658956000007,595.0655836000005,595.0655836000005,595.0655836000005,595.0655836000005,595.0502001999994,3,0.8442126999980246,0.2603655999992043,None,,,,,,,,,,,,,,,,,,,,,,4215,1,2025-10-17_18h33.54.486,sm,2024.2.4,59.971813248267196,2025-10-17 18h34.03.712370 +0200,
64,0,64,,,,,,space,2.3383916999991925,None,None,3,1.090092000002187,0.2583606999978656,None,0,0,0,0,,,,,0,0,0,0,,,,,64,0,64,0,595.0655836000005,,,,,,,,,,,,,,,,,,,,,,,,,,,,,,,,,,,,,,,,,,,,,,,,,,,,,,,,,Kappe,2.1584,595.0507034000002,595.0512326999997,595.0513393000001,595.0655836000005,597.2320705999991,597.2163231000013,597.2196866999984,597.2320705999991,597.2320705999991,597.2320705999991,597.2320705999991,599.2322969999987,599.2322969999987,599.2322969999987,599.2322969999987,599.2170656000017,3,1.090092000002187,0.2583606999978656,None,,,,,,,,,,,,,,,,,,,,,,4215,1,2025-10-17_18h33.54.486,sm,2024.2.4,59.971813248267196,2025-10-17 18h34.03.712370 +0200,
65,0,65,,,,,,space,2.3383916999991925,None,None,3,1.2885077000028105,0.21860059999744408,None,0,0,0,0,,,,,0,0,0,0,,,,,65,0,65,0,599.2322969999987,,,,,,,,,,,,,,,,,,,,,,,,,,,,,,,,,,,,,,,,,,,,,,,,,,,,,,,,,Lernen,2.3125,599.2175776000004,599.2180896999998,599.2182037999992,599.2322969999987,601.5486889999993,601.5329426999997,601.5368269999999,601.5486889999993,601.5486889999993,601.5486889999993,601.5486889999993,603.5484834000017,603.5484834000017,603.5484834000017,603.5484834000017,603.5331649,3,1.2885077000028105,0.21860059999744408,None,,,,,,,,,,,,,,,,,,,,,,4215,1,2025-10-17_18h33.54.486,sm,2024.2.4,59.971813248267196,2025-10-17 18h34.03.712370 +0200,
66,0,66,,,,,,space,2.3383916999991925,None,None,3,0.9943743999974686,0.29580900000291876,None,0,0,0,0,,,,,0,0,0,0,,,,,66,0,66,0,603.5484834000017,,,,,,,,,,,,,,,,,,,,,,,,,,,,,,,,,,,,,,,,,,,,,,,,,,,,,,,,,Datei,2.3109,603.5336705000009,603.5341786999998,603.5342845000014,603.5484834000017,605.864977199999,605.8496908999987,605.8536964000014,605.864977199999,605.864977199999,605.864977199999,605.864977199999,607.864986200002,607.864986200002,607.864986200002,607.864986200002,607.8495722000007,3,0.9943743999974686,0.29580900000291876,None,,,,,,,,,,,,,,,,,,,,,,4215,1,2025-10-17_18h33.54.486,sm,2024.2.4,59.971813248267196,2025-10-17 18h34.03.712370 +0200,
67,0,67,,,,,,space,2.3383916999991925,None,None,2,1.5053417000017362,0.190218100000493,None,0,0,0,0,,,,,0,0,0,0,,,,,67,0,67,0,607.864986200002,,,,,,,,,,,,,,,,,,,,,,,,,,,,,,,,,,,,,,,,,,,,,,,,,,,,,,,,,Zeit,2.8755,607.8500568999989,607.8505527000016,607.8506582000009,607.864986200002,610.7480778999998,610.7322381000013,610.7370464000014,610.7480778999998,610.7480778999998,610.7480778999998,610.7480778999998,612.748374499999,612.748374499999,612.748374499999,612.748374499999,612.7324563000002,2,1.5053417000017362,0.190218100000493,None,,,,,,,,,,,,,,,,,,,,,,4215,1,2025-10-17_18h33.54.486,sm,2024.2.4,59.971813248267196,2025-10-17 18h34.03.712370 +0200,
68,0,68,,,,,,space,2.3383916999991925,None,None,3,1.5381846000018413,0.2031542000004265,None,0,0,0,0,,,,,0,0,0,0,,,,,68,0,68,0,612.748374499999,,,,,,,,,,,,,,,,,,,,,,,,,,,,,,,,,,,,,,,,,,,,,,,,,,,,,,,,,Safari,3.8219,612.7329281999992,612.7334135000019,612.7335174,612.748374499999,616.5809474000016,616.565232500001,616.5686750999994,616.5809474000016,616.5809474000016,616.5809474000016,616.5809474000016,618.5810114999986,618.5810114999986,618.5810114999986,618.5810114999986,618.5656357000007,3,1.5381846000018413,0.2031542000004265,None,,,,,,,,,,,,,,,,,,,,,,4215,1,2025-10-17_18h33.54.486,sm,2024.2.4,59.971813248267196,2025-10-17 18h34.03.712370 +0200,
69,0,69,,,,,,space,2.3383916999991925,None,None,2,1.5769162999968103,0.19198750000214204,None,0,0,0,0,,,,,0,0,0,0,,,,,69,0,69,0,618.5810114999986,,,,,,,,,,,,,,,,,,,,,,,,,,,,,,,,,,,,,,,,,,,,,,,,,,,,,,,,,Nase,2.07,618.5661542000016,618.5667969999995,618.5669051000004,618.5810114999986,620.6641810000001,620.6486509999995,620.6521787999991,620.6641810000001,620.6641810000001,620.6641810000001,620.6641810000001,622.6641567000006,622.6641567000006,622.6641567000006,622.6641567000006,622.6486188000017,2,1.5769162999968103,0.19198750000214204,None,,,,,,,,,,,,,,,,,,,,,,4215,1,2025-10-17_18h33.54.486,sm,2024.2.4,59.971813248267196,2025-10-17 18h34.03.712370 +0200,
70,0,70,,,,,,space,2.3383916999991925,None,None,2,0.8561785999991116,0.20586379999804194,None,0,0,0,0,,,,,0,0,0,0,,,,,70,0,70,0,622.6641567000006,,,,,,,,,,,,,,,,,,,,,,,,,,,,,,,,,,,,,,,,,,,,,,,,,,,,,,,,,Sport,2.32,622.6490866999993,622.6495890000006,622.6496893000003,622.6641567000006,624.9975507000017,624.9815788000014,624.9854861999993,624.9975507000017,624.9975507000017,624.9975507000017,624.9975507000017,626.9972832999993,626.9972832999993,626.9972832999993,626.9972832999993,626.9818287999988,2,0.8561785999991116,0.20586379999804194,None,,,,,,,,,,,,,,,,,,,,,,4215,1,2025-10-17_18h33.54.486,sm,2024.2.4,59.971813248267196,2025-10-17 18h34.03.712370 +0200,
71,0,71,,,,,,space,2.3383916999991925,None,None,3,1.2952450000011595,0.3631143999991764,None,0,0,0,0,,,,,0,0,0,0,,,,,71,0,71,0,626.9972832999993,,,,,,,,,,,,,,,,,,,,,,,,,,,,,,,,,,,,,,,,,,,,,,,,,,,,,,,,,Schläger,3.4751,626.9823428000018,626.9828454000017,626.9829514000012,626.9972832999993,630.4801905999993,630.4646933000004,630.4689804000009,630.4801905999993,630.4801905999993,630.4801905999993,630.4801905999993,632.4805283999995,632.4805283999995,632.4805283999995,632.4805283999995,632.4645793999989,3,1.2952450000011595,0.3631143999991764,None,,,,,,,,,,,,,,,,,,,,,,4215,1,2025-10-17_18h33.54.486,sm,2024.2.4,59.971813248267196,2025-10-17 18h34.03.712370 +0200,
72,0,72,,,,,,space,2.3383916999991925,None,None,3,1.378560799999832,0.2653387999998813,None,0,0,0,0,,,,,0,0,0,0,,,,,72,0,72,0,632.4805283999995,,,,,,,,,,,,,,,,,,,,,,,,,,,,,,,,,,,,,,,,,,,,,,,,,,,,,,,,,Waschbecken,2.3579,632.4650829999991,632.4655853000004,632.4656939000015,632.4805283999995,634.8468154000002,634.8307864000017,634.8344752000012,634.8468154000002,634.8468154000002,634.8468154000002,634.8468154000002,636.8466498000016,636.8466498000016,636.8466498000016,636.8466498000016,636.831126699999,3,1.378560799999832,0.2653387999998813,None,,,,,,,,,,,,,,,,,,,,,,4215,1,2025-10-17_18h33.54.486,sm,2024.2.4,59.971813248267196,2025-10-17 18h34.03.712370 +0200,
73,0,73,,,,,,space,2.3383916999991925,None,None,2,1.1756033999990905,0.23141759999998612,None,0,0,0,0,,,,,0,0,0,0,,,,,73,0,73,0,636.8466498000016,,,,,,,,,,,,,,,,,,,,,,,,,,,,,,,,,,,,,,,,,,,,,,,,,,,,,,,,,Vampir,2.304,636.8316397999988,636.8321533999988,636.832263100001,636.8466498000016,639.1631415000011,639.1474699999999,639.1515714000016,639.1631415000011,639.1631415000011,639.1631415000011,639.1631415000011,641.1631043000016,641.1631043000016,641.1631043000016,641.1631043000016,641.1476892999999,2,1.1756033999990905,0.23141759999998612,None,,,,,,,,,,,,,,,,,,,,,,4215,1,2025-10-17_18h33.54.486,sm,2024.2.4,59.971813248267196,2025-10-17 18h34.03.712370 +0200,
74,0,74,,,,,,space,2.3383916999991925,None,None,None,,,None,0,0,0,0,,,,,0,0,0,0,,,,,74,0,74,0,641.1631043000016,,,,,,,,,,,,,,,,,,,,,,,,,,,,,,,,,,,,,,,,,,,,,,,,,,,,,,,,,Klinge,2.1593,641.1481935000011,641.1486971999984,641.1488027000014,641.1631043000016,643.3294204000013,643.3139566999998,643.3186047000017,643.3294204000013,643.3294204000013,643.3294204000013,643.3294204000013,645.329503500001,645.329503500001,645.329503500001,645.329503500001,645.313924500002,None,,,None,,,,,,,,,,,,,,,,,,,,,,4215,1,2025-10-17_18h33.54.486,sm,2024.2.4,59.971813248267196,2025-10-17 18h34.03.712370 +0200,
75,0,75,,,,,,space,2.3383916999991925,None,None,2,1.2690145000015036,0.1954583000006096,None,0,0,0,0,,,,,0,0,0,0,,,,,75,0,75,0,645.329503500001,,,,,,,,,,,,,,,,,,,,,,,,,,,,,,,,,,,,,,,,,,,,,,,,,,,,,,,,,Rebe,3.3222,645.3143651999999,645.3148416000004,645.3149411000013,645.329503500001,648.6627939999998,648.6471949000006,648.6507686000004,648.6627939999998,648.6627939999998,648.6627939999998,648.6627939999998,650.6625683999991,650.6625683999991,650.6625683999991,650.6625683999991,650.6470111999988,2,1.2690145000015036,0.1954583000006096,None,,,,,,,,,,,,,,,,,,,,,,4215,1,2025-10-17_18h33.54.486,sm,2024.2.4,59.971813248267196,2025-10-17 18h34.03.712370 +0200,
76,0,76,,,,,,space,2.3383916999991925,None,None,3,1.0518728000024566,0.32348110000020824,None,0,0,0,0,,,,,0,0,0,0,,,,,76,0,76,0,650.6625683999991,,,,,,,,,,,,,,,,,,,,,,,,,,,,,,,,,,,,,,,,,,,,,,,,,,,,,,,,,Geheimnis,4.5278,650.647517100002,650.6480295000001,650.6481348000016,650.6625683999991,655.1956119999995,655.1797640000004,655.1839451000014,655.1956119999995,655.1956119999995,655.1956119999995,655.1956119999995,657.1955334999984,657.1955334999984,657.1955334999984,657.1955334999984,657.1800316000008,3,1.0518728000024566,0.32348110000020824,None,,,,,,,,,,,,,,,,,,,,,,4215,1,2025-10-17_18h33.54.486,sm,2024.2.4,59.971813248267196,2025-10-17 18h34.03.712370 +0200,
77,0,77,,,,,,space,2.3383916999991925,None,None,3,0.9155976999973063,0.244130099999893,None,0,0,0,0,,,,,0,0,0,0,,,,,77,0,77,0,657.1955334999984,,,,,,,,,,,,,,,,,,,,,,,,,,,,,,,,,,,,,,,,,,,,,,,,,,,,,,,,,Wohnung,4.8596,657.1805232000006,657.1810202000015,657.1811282000017,657.1955334999984,662.0618596999993,662.0465363000003,662.050654300001,662.0618596999993,662.0618596999993,662.0618596999993,662.0618596999993,664.0618125000001,664.0618125000001,664.0618125000001,664.0618125000001,664.0462661999991,3,0.9155976999973063,0.244130099999893,None,,,,,,,,,,,,,,,,,,,,,,4215,1,2025-10-17_18h33.54.486,sm,2024.2.4,59.971813248267196,2025-10-17 18h34.03.712370 +0200,
78,0,78,,,,,,space,2.3383916999991925,None,None,2,1.3828284000010171,0.20746259999941685,None,0,0,0,0,,,,,0,0,0,0,,,,,78,0,78,0,664.0618125000001,,,,,,,,,,,,,,,,,,,,,,,,,,,,,,,,,,,,,,,,,,,,,,,,,,,,,,,,,Radio,2.2294,664.0467768999988,664.0472990000017,664.047408800001,664.0618125000001,666.2947062999992,666.2791331000008,666.2826913999997,666.2947062999992,666.2947062999992,666.2947062999992,666.2947062999992,668.2948087000004,668.2948087000004,668.2948087000004,668.2948087000004,668.2795355000017,2,1.3828284000010171,0.20746259999941685,None,,,,,,,,,,,,,,,,,,,,,,4215,1,2025-10-17_18h33.54.486,sm,2024.2.4,59.971813248267196,2025-10-17 18h34.03.712370 +0200,
79,0,79,,,,,,space,2.3383916999991925,None,None,3,1.4256772000007913,0.2908351000005496,None,0,0,0,0,,,,,0,0,0,0,,,,,79,0,79,0,668.2948087000004,,,,,,,,,,,,,,,,,,,,,,,,,,,,,,,,,,,,,,,,,,,,,,,,,,,,,,,,,Wind,3.8285,668.2800300999988,668.2806788999987,668.280782400001,668.2948087000004,672.1278573999989,672.1125662999984,672.1162036999995,672.1278573999989,672.1278573999989,672.1278573999989,672.1278573999989,674.1394462999997,674.1394462999997,674.1394462999997,674.1394462999997,674.1124731000018,3,1.4256772000007913,0.2908351000005496,None,,,,,,,,,,,,,,,,,,,,,,4215,1,2025-10-17_18h33.54.486,sm,2024.2.4,59.971813248267196,2025-10-17 18h34.03.712370 +0200,
0,0,0,,,,,2.5255,space,2.4411935999996786,None,None,3,1.7561169000000518,None,None,0,0,0,0,,,,,1,0,1,0,0,79,79,40,0,0,0,0,724.1084369000018,,,,,,,,,,,,,,,,,,,,,,,,,,,,,,,,,,,,696.8405263999994,696.8407760000009,696.846986200002,696.8527137000019,696.8527137000019,699.3094531999996,space,2.4411935999996786,None,699.3096702000003,699.3264937999993,699.3264937999993,712.0769811999999,None,712.0843229999991,712.1087212999992,712.092272566668,713.2941535999998,722.0917785666682,723.0939152999999,724.0918291000016,Fiktion,2.5255,724.0932013999991,724.0938878000015,724.0940014000007,724.1084369000018,726.6414342999997,726.6257512000011,726.6297126999998,726.6414342999997,726.6414342999997,726.6414342999997,726.6414342999997,728.6413522000003,728.6413522000003,728.6413522000003,728.6413522000003,728.6259199999986,3,1.7561169000000518,None,None,686.1272041000011,686.1272650999999,None,686.1339947000015,686.1433539999998,690.1435586000007,690.1435586000007,690.1435586000007,696.7950740000015,2,6.648337499998888,None,,,,,,,,,,4215,1,2025-10-17_18h33.54.486,sm,2024.2.4,59.971813248267196,2025-10-17 18h34.03.712370 +0200,
1,0,1,,,,,,space,2.4411935999996786,None,None,2,0.869443700001284,0.21451150000211783,None,0,0,0,0,,,,,1,0,1,0,,,,,1,0,1,0,728.6413522000003,,,,,,,,,,,,,,,,,,,,,,,,,,,,,,,,,,,,,,,,,,,,,,,,,,,,,,,,,Garten,2.065,728.6264278000017,728.6269788999998,728.627083899999,728.6413522000003,730.7075817000004,730.6919114000011,730.6954389999992,730.7075817000004,730.7075817000004,730.7075817000004,730.7075817000004,732.7082416000012,732.7082416000012,732.7082416000012,732.7082416000012,732.6921761000012,2,0.869443700001284,0.21451150000211783,None,,,,,,,,,,,,,,,,,,,,,,4215,1,2025-10-17_18h33.54.486,sm,2024.2.4,59.971813248267196,2025-10-17 18h34.03.712370 +0200,
2,0,2,,,,,,space,2.4411935999996786,None,None,3,0.8831211999968218,0.2560836000011477,None,0,0,0,0,,,,,1,0,1,0,,,,,2,0,2,0,732.7082416000012,,,,,,,,,,,,,,,,,,,,,,,,,,,,,,,,,,,,,,,,,,,,,,,,,,,,,,,,,Ordner,3.9324,732.6926889999995,732.6932090000009,732.6933156000014,732.7082416000012,736.6412797000012,736.624985800001,736.632311100002,736.6412797000012,736.6412797000012,736.6412797000012,736.6412797000012,738.6407411,738.6407411,738.6407411,738.6407411,738.6251823999992,3,0.8831211999968218,0.2560836000011477,None,,,,,,,,,,,,,,,,,,,,,,4215,1,2025-10-17_18h33.54.486,sm,2024.2.4,59.971813248267196,2025-10-17 18h34.03.712370 +0200,
3,0,3,,,,,,space,2.4411935999996786,None,None,2,1.497350199999346,0.22650749999957043,None,0,0,0,0,,,,,1,0,1,0,,,,,3,0,3,0,738.6407411,,,,,,,,,,,,,,,,,,,,,,,,,,,,,,,,,,,,,,,,,,,,,,,,,,,,,,,,,Foto,4.8596,738.6256791000014,738.6263166999997,738.6264248000007,738.6407411,743.5068788999997,743.4912237999997,743.4944761000006,743.5068788999997,743.5068788999997,743.5068788999997,743.5068788999997,745.507095500001,745.507095500001,745.507095500001,745.507095500001,745.4916045999998,2,1.497350199999346,0.22650749999957043,None,,,,,,,,,,,,,,,,,,,,,,4215,1,2025-10-17_18h33.54.486,sm,2024.2.4,59.971813248267196,2025-10-17 18h34.03.712370 +0200,
4,0,4,,,,,,space,2.4411935999996786,None,None,3,1.363574899998639,0.2763816000006045,None,0,0,0,0,,,,,1,0,1,0,,,,,4,0,4,0,745.507095500001,,,,,,,,,,,,,,,,,,,,,,,,,,,,,,,,,,,,,,,,,,,,,,,,,,,,,,,,,Loch,3.0739,745.4921168000001,745.492633599999,745.4927390000012,745.507095500001,748.5898153999988,748.574445000002,748.5778413000007,748.5898153999988,748.5898153999988,748.5898153999988,748.5898153999988,750.5902587000019,750.5902587000019,750.5902587000019,750.5902587000019,750.5749772999989,3,1.363574899998639,0.2763816000006045,None,,,,,,,,,,,,,,,,,,,,,,4215,1,2025-10-17_18h33.54.486,sm,2024.2.4,59.971813248267196,2025-10-17 18h34.03.712370 +0200,
5,0,5,,,,,,space,2.4411935999996786,None,None,2,1.6974501000004238,0.2407308000001649,None,0,0,0,0,,,,,1,0,1,0,,,,,5,0,5,0,750.5902587000019,,,,,,,,,,,,,,,,,,,,,,,,,,,,,,,,,,,,,,,,,,,,,,,,,,,,,,,,,Sendung,2.91,750.5754837999993,750.5759957000009,750.5760989000009,750.5902587000019,753.506612000001,753.4912192000011,753.4953496999988,753.506612000001,753.506612000001,753.506612000001,753.506612000001,755.5065575000008,755.5065575000008,755.5065575000008,755.5065575000008,755.4907760999995,2,1.6974501000004238,0.2407308000001649,None,,,,,,,,,,,,,,,,,,,,,,4215,1,2025-10-17_18h33.54.486,sm,2024.2.4,59.971813248267196,2025-10-17 18h34.03.712370 +0200,
6,0,6,,,,,,space,2.4411935999996786,None,None,3,0.881876999999804,0.2716067000001203,None,0,0,0,0,,,,,1,0,1,0,,,,,6,0,6,0,755.5065575000008,,,,,,,,,,,,,,,,,,,,,,,,,,,,,,,,,,,,,,,,,,,,,,,,,,,,,,,,,Tisch,2.1773,755.491277000001,755.4919281000002,755.4920332000002,755.5065575000008,757.6896855999985,757.6739311000019,757.6780426000005,757.6896855999985,757.6896855999985,757.6896855999985,757.6896855999985,759.6896522999996,759.6896522999996,759.6896522999996,759.6896522999996,759.6739106999994,3,0.881876999999804,0.2716067000001203,None,,,,,,,,,,,,,,,,,,,,,,4215,1,2025-10-17_18h33.54.486,sm,2024.2.4,59.971813248267196,2025-10-17 18h34.03.712370 +0200,
7,0,7,,,,,,space,2.4411935999996786,None,None,3,0.9254426999978023,0.3147915000008652,None,0,0,0,0,,,,,1,0,1,0,,,,,7,0,7,0,759.6896522999996,,,,,,,,,,,,,,,,,,,,,,,,,,,,,,,,,,,,,,,,,,,,,,,,,,,,,,,,,Spaghetti,3.4751,759.6743518000003,759.6749703999994,759.6750629000016,759.6896522999996,763.1724314999992,763.1570323999986,763.1610369000009,763.1724314999992,763.1724314999992,763.1724314999992,763.1724314999992,765.1727672999987,765.1727672999987,765.1727672999987,765.1727672999987,765.1569616000015,3,0.9254426999978023,0.3147915000008652,None,,,,,,,,,,,,,,,,,,,,,,4215,1,2025-10-17_18h33.54.486,sm,2024.2.4,59.971813248267196,2025-10-17 18h34.03.712370 +0200,
8,0,8,,,,,,space,2.4411935999996786,None,None,3,1.7516194999989239,None,None,0,0,0,0,,,,,1,0,1,0,,,,,8,0,8,0,765.1727672999987,,,,,,,,,,,,,,,,,,,,,,,,,,,,,,,,,,,,,,,,,,,,,,,,,,,,,,,,,Rock,2.0917,765.1574685999985,765.1579791000004,765.1580887000018,765.1727672999987,767.2722484000005,767.2565479000004,767.2596893000009,767.2722484000005,767.2722484000005,767.2722484000005,767.2722484000005,769.2722160000012,769.2722160000012,769.2722160000012,769.2722160000012,769.2567436999998,3,1.7516194999989239,None,None,,,,,,,,,,,,,,,,,,,,,,4215,1,2025-10-17_18h33.54.486,sm,2024.2.4,59.971813248267196,2025-10-17 18h34.03.712370 +0200,
9,0,9,,,,,,space,2.4411935999996786,None,None,3,1.232310100000177,0.2842142999979842,None,0,0,0,0,,,,,1,0,1,0,,,,,9,0,9,0,769.2722160000012,,,,,,,,,,,,,,,,,,,,,,,,,,,,,,,,,,,,,,,,,,,,,,,,,,,,,,,,,Herbst,2.0987,769.2572695999988,769.2578939000014,769.2579998000001,769.2722160000012,771.3720509000013,771.3564461999995,771.3612818000001,771.3720509000013,771.3720509000013,771.3720509000013,771.3720509000013,773.3720891000012,773.3720891000012,773.3720891000012,773.3720891000012,773.3564389999992,3,1.232310100000177,0.2842142999979842,None,,,,,,,,,,,,,,,,,,,,,,4215,1,2025-10-17_18h33.54.486,sm,2024.2.4,59.971813248267196,2025-10-17 18h34.03.712370 +0200,
10,0,10,,,,,,space,2.4411935999996786,None,None,3,1.7955651999982365,None,None,0,0,0,0,,,,,1,0,1,0,,,,,10,0,10,0,773.3720891000012,,,,,,,,,,,,,,,,,,,,,,,,,,,,,,,,,,,,,,,,,,,,,,,,,,,,,,,,,Geschmack,2.1429,773.3569438999984,773.3574611000004,773.3575669999991,773.3720891000012,775.5227024999986,775.506117500001,775.5097108000009,775.5227024999986,775.5227024999986,775.5227024999986,775.5227024999986,777.5218444999991,777.5218444999991,777.5218444999991,777.5218444999991,777.506362600001,3,1.7955651999982365,None,None,,,,,,,,,,,,,,,,,,,,,,4215,1,2025-10-17_18h33.54.486,sm,2024.2.4,59.971813248267196,2025-10-17 18h34.03.712370 +0200,
11,0,11,,,,,,space,2.4411935999996786,None,None,3,1.0041687000011734,0.32011590000183787,None,0,0,0,0,,,,,1,0,1,0,,,,,11,0,11,0,777.5218444999991,,,,,,,,,,,,,,,,,,,,,,,,,,,,,,,,,,,,,,,,,,,,,,,,,,,,,,,,,Bett,2.4418,777.5068730999992,777.507437799999,777.507544,777.5218444999991,779.9716770999985,779.9558776000013,779.959270899999,779.9716770999985,779.9716770999985,779.9716770999985,779.9716770999985,781.9714190000013,781.9714190000013,781.9714190000013,781.9714190000013,781.9556846999985,3,1.0041687000011734,0.32011590000183787,None,,,,,,,,,,,,,,,,,,,,,,4215,1,2025-10-17_18h33.54.486,sm,2024.2.4,59.971813248267196,2025-10-17 18h34.03.712370 +0200,
12,0,12,,,,,,space,2.4411935999996786,None,None,None,,,None,0,0,0,0,,,,,1,0,1,0,,,,,12,0,12,0,781.9714190000013,,,,,,,,,,,,,,,,,,,,,,,,,,,,,,,,,,,,,,,,,,,,,,,,,,,,,,,,,Schlamm,2.7056,781.9560856999997,781.9565589000013,781.9566439000009,781.9714190000013,784.6878605999991,784.6724472999995,784.6766975999999,784.6878605999991,784.6878605999991,784.6878605999991,784.6878605999991,786.6880005999992,786.6880005999992,786.6880005999992,786.6880005999992,786.6725592000003,None,,,None,,,,,,,,,,,,,,,,,,,,,,4215,1,2025-10-17_18h33.54.486,sm,2024.2.4,59.971813248267196,2025-10-17 18h34.03.712370 +0200,
13,0,13,,,,,,space,2.4411935999996786,None,None,2,1.0213638999994146,0.20288419999997132,None,0,0,0,0,,,,,1,0,1,0,,,,,13,0,13,0,786.6880005999992,,,,,,,,,,,,,,,,,,,,,,,,,,,,,,,,,,,,,,,,,,,,,,,,,,,,,,,,,Blut,4.5278,786.6730229999994,786.673563700002,786.6736708999997,786.6880005999992,791.2210352000002,791.205616700001,791.209316299999,791.2210352000002,791.2210352000002,791.2210352000002,791.2210352000002,793.2209632000013,793.2209632000013,793.2209632000013,793.2209632000013,793.2052331000014,2,1.0213638999994146,0.20288419999997132,None,,,,,,,,,,,,,,,,,,,,,,4215,1,2025-10-17_18h33.54.486,sm,2024.2.4,59.971813248267196,2025-10-17 18h34.03.712370 +0200,
14,0,14,,,,,,space,2.4411935999996786,None,None,2,1.3152708000015991,0.19467249999797787,None,0,0,0,0,,,,,1,0,1,0,,,,,14,0,14,0,793.2209632000013,,,,,,,,,,,,,,,,,,,,,,,,,,,,,,,,,,,,,,,,,,,,,,,,,,,,,,,,,Bart,2.2057,793.2057124999992,793.2063277999987,793.2065055999992,793.2209632000013,795.4372788000001,795.4219147000003,795.4257316000003,795.4372788000001,795.4372788000001,795.4372788000001,795.4372788000001,797.4373512999991,797.4373512999991,797.4373512999991,797.4373512999991,797.4218499000017,2,1.3152708000015991,0.19467249999797787,None,,,,,,,,,,,,,,,,,,,,,,4215,1,2025-10-17_18h33.54.486,sm,2024.2.4,59.971813248267196,2025-10-17 18h34.03.712370 +0200,
15,0,15,,,,,,space,2.4411935999996786,None,None,3,1.6023282000023755,0.3175604999996722,None,0,0,0,0,,,,,1,0,1,0,,,,,15,0,15,0,797.4373512999991,,,,,,,,,,,,,,,,,,,,,,,,,,,,,,,,,,,,,,,,,,,,,,,,,,,,,,,,,Schreibtisch,3.0483,797.4223578000019,797.4228588000005,797.4229677000003,797.4373512999991,800.4870744,800.4713187000016,800.4754906000016,800.4870744,800.4870744,800.4870744,800.4870744,802.4872930999991,802.4872930999991,802.4872930999991,802.4872930999991,802.4715346000012,3,1.6023282000023755,0.3175604999996722,None,,,,,,,,,,,,,,,,,,,,,,4215,1,2025-10-17_18h33.54.486,sm,2024.2.4,59.971813248267196,2025-10-17 18h34.03.712370 +0200,
16,0,16,,,,,,space,2.4411935999996786,None,None,2,1.3352448000005097,0.21350299999903655,None,0,0,0,0,,,,,1,0,1,0,,,,,16,0,16,0,802.4872930999991,,,,,,,,,,,,,,,,,,,,,,,,,,,,,,,,,,,,,,,,,,,,,,,,,,,,,,,,,Kartoffel,2.2719,802.4720362000007,802.4725392,802.4726465999993,802.4872930999991,804.7700441999987,804.7545929000007,804.7596346999999,804.7700441999987,804.7700441999987,804.7700441999987,804.7700441999987,806.7706154000007,806.7706154000007,806.7706154000007,806.7706154000007,806.7547594999996,2,1.3352448000005097,0.21350299999903655,None,,,,,,,,,,,,,,,,,,,,,,4215,1,2025-10-17_18h33.54.486,sm,2024.2.4,59.971813248267196,2025-10-17 18h34.03.712370 +0200,
17,0,17,,,,,,space,2.4411935999996786,None,None,2,0.872463699997752,0.22241180000128224,None,0,0,0,0,,,,,1,0,1,0,,,,,17,0,17,0,806.7706154000007,,,,,,,,,,,,,,,,,,,,,,,,,,,,,,,,,,,,,,,,,,,,,,,,,,,,,,,,,Apfel,3.5452,806.7552643000017,806.7558075000015,806.7559121999984,806.7706154000007,810.3197488000005,810.3044594999992,810.3086097000014,810.3197488000005,810.3197488000005,810.3197488000005,810.3197488000005,812.3197357999998,812.3197357999998,812.3197357999998,812.3197357999998,812.3043705000018,2,0.872463699997752,0.22241180000128224,None,,,,,,,,,,,,,,,,,,,,,,4215,1,2025-10-17_18h33.54.486,sm,2024.2.4,59.971813248267196,2025-10-17 18h34.03.712370 +0200,
18,0,18,,,,,,space,2.4411935999996786,None,None,2,0.8809516000001167,0.21479010000257404,None,0,0,0,0,,,,,1,0,1,0,,,,,18,0,18,0,812.3197357999998,,,,,,,,,,,,,,,,,,,,,,,,,,,,,,,,,,,,,,,,,,,,,,,,,,,,,,,,,Freund,2.1523,812.3048831000015,812.3053975000003,812.3055053999997,812.3197357999998,814.4863624999998,814.470844200001,814.4749463000007,814.4863624999998,814.4863624999998,814.4863624999998,814.4863624999998,816.4862076999998,816.4862076999998,816.4862076999998,816.4862076999998,816.4707216999996,2,0.8809516000001167,0.21479010000257404,None,,,,,,,,,,,,,,,,,,,,,,4215,1,2025-10-17_18h33.54.486,sm,2024.2.4,59.971813248267196,2025-10-17 18h34.03.712370 +0200,
19,0,19,,,,,,space,2.4411935999996786,None,None,3,1.4013976999995066,0.24914589999752934,None,0,0,0,0,,,,,1,0,1,0,,,,,19,0,19,0,816.4862076999998,,,,,,,,,,,,,,,,,,,,,,,,,,,,,,,,,,,,,,,,,,,,,,,,,,,,,,,,,Skizze,2.2884,816.4712206000004,816.4718756000002,816.4719814000018,816.4862076999998,818.7858952999995,818.7701295000006,818.7736457999999,818.7858952999995,818.7858952999995,818.7858952999995,818.7858952999995,820.785818700002,820.785818700002,820.785818700002,820.785818700002,820.7704606000007,3,1.4013976999995066,0.24914589999752934,None,,,,,,,,,,,,,,,,,,,,,,4215,1,2025-10-17_18h33.54.486,sm,2024.2.4,59.971813248267196,2025-10-17 18h34.03.712370 +0200,
20,0,20,,,,,,space,2.4411935999996786,None,None,3,0.8862363999978697,0.2813480000004347,None,0,0,0,0,,,,,1,0,1,0,,,,,20,0,20,0,820.785818700002,,,,,,,,,,,,,,,,,,,,,,,,,,,,,,,,,,,,,,,,,,,,,,,,,,,,,,,,,Bildung,2.1064,820.7709641000001,820.7714789999991,820.7715822999999,820.785818700002,822.9021092000003,822.886798399999,822.8902481000005,822.9021092000003,822.9021092000003,822.9021092000003,822.9021092000003,824.9027320999994,824.9027320999994,824.9027320999994,824.9027320999994,824.8869752999999,3,0.8862363999978697,0.2813480000004347,None,,,,,,,,,,,,,,,,,,,,,,4215,1,2025-10-17_18h33.54.486,sm,2024.2.4,59.971813248267196,2025-10-17 18h34.03.712370 +0200,
21,0,21,,,,,,space,2.4411935999996786,None,None,3,1.2697674999981245,0.24633449999964796,None,0,0,0,0,,,,,1,0,1,0,,,,,21,0,21,0,824.9027320999994,,,,,,,,,,,,,,,,,,,,,,,,,,,,,,,,,,,,,,,,,,,,,,,,,,,,,,,,,Gabel,2.3958,824.8874724000016,824.8881408000016,824.8882458000007,824.9027320999994,827.3028580999999,827.2866689000002,827.2908271000015,827.3028580999999,827.3028580999999,827.3028580999999,827.3028580999999,829.3025425999986,829.3025425999986,829.3025425999986,829.3025425999986,829.2866952000004,3,1.2697674999981245,0.24633449999964796,None,,,,,,,,,,,,,,,,,,,,,,4215,1,2025-10-17_18h33.54.486,sm,2024.2.4,59.971813248267196,2025-10-17 18h34.03.712370 +0200,
22,0,22,,,,,,space,2.4411935999996786,None,None,3,1.3284697000017331,0.2720886999995855,None,0,0,0,0,,,,,1,0,1,0,,,,,22,0,22,0,829.3025425999986,,,,,,,,,,,,,,,,,,,,,,,,,,,,,,,,,,,,,,,,,,,,,,,,,,,,,,,,,Hütte,3.1572,829.2872031000006,829.287722699999,829.2878268999993,829.3025425999986,832.4685691000013,832.453105200002,832.4571708000003,832.4685691000013,832.4685691000013,832.4685691000013,832.4685691000013,834.4685017000011,834.4685017000011,834.4685017000011,834.4685017000011,834.4529833000015,3,1.3284697000017331,0.2720886999995855,None,,,,,,,,,,,,,,,,,,,,,,4215,1,2025-10-17_18h33.54.486,sm,2024.2.4,59.971813248267196,2025-10-17 18h34.03.712370 +0200,
23,0,23,,,,,,space,2.4411935999996786,None,None,3,0.9026349000014307,0.27518480000071577,None,0,0,0,0,,,,,1,0,1,0,,,,,23,0,23,0,834.4685017000011,,,,,,,,,,,,,,,,,,,,,,,,,,,,,,,,,,,,,,,,,,,,,,,,,,,,,,,,,Kino,2.3908,834.4534930000009,834.4540015999992,834.4541051999986,834.4685017000011,836.8683404000003,836.8525905999995,836.8570645,836.8683404000003,836.8683404000003,836.8683404000003,836.8683404000003,838.8684520999996,838.8684520999996,838.8684520999996,838.8684520999996,838.8527584000003,3,0.9026349000014307,0.27518480000071577,None,,,,,,,,,,,,,,,,,,,,,,4215,1,2025-10-17_18h33.54.486,sm,2024.2.4,59.971813248267196,2025-10-17 18h34.03.712370 +0200,
24,0,24,,,,,,space,2.4411935999996786,None,None,2,1.3073369000012462,0.24948930000027758,None,0,0,0,0,,,,,1,0,1,0,,,,,24,0,24,0,838.8684520999996,,,,,,,,,,,,,,,,,,,,,,,,,,,,,,,,,,,,,,,,,,,,,,,,,,,,,,,,,Tanz,2.286,838.8532631999988,838.8538345999987,838.8539414000006,838.8684520999996,841.1676838999992,841.1525287000004,841.1556101999995,841.1676838999992,841.1676838999992,841.1676838999992,841.1676838999992,843.1679546000014,843.1679546000014,843.1679546000014,843.1679546000014,843.1525327000018,2,1.3073369000012462,0.24948930000027758,None,,,,,,,,,,,,,,,,,,,,,,4215,1,2025-10-17_18h33.54.486,sm,2024.2.4,59.971813248267196,2025-10-17 18h34.03.712370 +0200,
25,0,25,,,,,,space,2.4411935999996786,None,None,2,1.2372663999994984,0.21403120000104536,None,0,0,0,0,,,,,1,0,1,0,,,,,25,0,25,0,843.1679546000014,,,,,,,,,,,,,,,,,,,,,,,,,,,,,,,,,,,,,,,,,,,,,,,,,,,,,,,,,Applaus,2.6501,843.1530349999994,843.1535523999992,843.1536598999992,843.1679546000014,845.817783800001,845.8023074000012,845.806511499999,845.817783800001,845.817783800001,845.817783800001,845.817783800001,847.8179146000002,847.8179146000002,847.8179146000002,847.8179146000002,847.802135599999,2,1.2372663999994984,0.21403120000104536,None,,,,,,,,,,,,,,,,,,,,,,4215,1,2025-10-17_18h33.54.486,sm,2024.2.4,59.971813248267196,2025-10-17 18h34.03.712370 +0200,
26,0,26,,,,,,space,2.4411935999996786,None,None,2,1.0629602000008163,0.2357676999999967,None,0,0,0,0,,,,,1,0,1,0,,,,,26,0,26,0,847.8179146000002,,,,,,,,,,,,,,,,,,,,,,,,,,,,,,,,,,,,,,,,,,,,,,,,,,,,,,,,,Haare,2.4228,847.8026394000008,847.8031879000009,847.8032939000004,847.8179146000002,850.2503633999986,850.2350842000014,850.2382924000012,850.2503633999986,850.2503633999986,850.2503633999986,850.2503633999986,852.2509133999993,852.2509133999993,852.2509133999993,852.2509133999993,852.2350882999999,2,1.0629602000008163,0.2357676999999967,None,,,,,,,,,,,,,,,,,,,,,,4215,1,2025-10-17_18h33.54.486,sm,2024.2.4,59.971813248267196,2025-10-17 18h34.03.712370 +0200,
27,0,27,,,,,,space,2.4411935999996786,None,None,3,1.955069799998455,None,None,0,0,0,0,,,,,1,0,1,0,,,,,27,0,27,0,852.2509133999993,,,,,,,,,,,,,,,,,,,,,,,,,,,,,,,,,,,,,,,,,,,,,,,,,,,,,,,,,Anruf,2.8259,852.2355940000016,852.2361055000001,852.2362089999988,852.2509133999993,855.0839626999987,855.0683979999994,855.0721553000003,855.0839626999987,855.0839626999987,855.0839626999987,855.0839626999987,857.0837906999986,857.0837906999986,857.0837906999986,857.0837906999986,857.0681794000011,3,1.955069799998455,None,None,,,,,,,,,,,,,,,,,,,,,,4215,1,2025-10-17_18h33.54.486,sm,2024.2.4,59.971813248267196,2025-10-17 18h34.03.712370 +0200,
28,0,28,,,,,,space,2.4411935999996786,None,None,2,1.5117785000002186,0.1924481999994896,None,0,0,0,0,,,,,1,0,1,0,,,,,28,0,28,0,857.0837906999986,,,,,,,,,,,,,,,,,,,,,,,,,,,,,,,,,,,,,,,,,,,,,,,,,,,,,,,,,Olympia,3.2175,857.068643300001,857.0691673000001,857.0692659000015,857.0837906999986,860.300336100001,860.2846672000014,860.2894373000017,860.300336100001,860.300336100001,860.300336100001,860.300336100001,862.3001829999994,862.3001829999994,862.3001829999994,862.3001829999994,862.2843377999998,2,1.5117785000002186,0.1924481999994896,None,,,,,,,,,,,,,,,,,,,,,,4215,1,2025-10-17_18h33.54.486,sm,2024.2.4,59.971813248267196,2025-10-17 18h34.03.712370 +0200,
29,0,29,,,,,,space,2.4411935999996786,None,None,3,1.1139467000029981,0.22934389999863924,None,0,0,0,0,,,,,1,0,1,0,,,,,29,0,29,0,862.3001829999994,,,,,,,,,,,,,,,,,,,,,,,,,,,,,,,,,,,,,,,,,,,,,,,,,,,,,,,,,Ball,3.8219,862.2847375000019,862.2853155000012,862.2854002999993,862.3001829999994,866.1331922999998,866.1179431000019,866.1223382999997,866.1331922999998,866.1331922999998,866.1331922999998,866.1331922999998,868.1331307,868.1331307,868.1331307,868.1331307,868.117680899999,3,1.1139467000029981,0.22934389999863924,None,,,,,,,,,,,,,,,,,,,,,,4215,1,2025-10-17_18h33.54.486,sm,2024.2.4,59.971813248267196,2025-10-17 18h34.03.712370 +0200,
30,0,30,,,,,,space,2.4411935999996786,None,None,2,0.9878224999993108,0.21702649999861023,None,0,0,0,0,,,,,1,0,1,0,,,,,30,0,30,0,868.1331307,,,,,,,,,,,,,,,,,,,,,,,,,,,,,,,,,,,,,,,,,,,,,,,,,,,,,,,,,Liebe,2.7028,868.1181455000005,868.1186471000001,868.1187467000018,868.1331307,870.8494261999986,870.8336726000016,870.8371048000008,870.8494261999986,870.8494261999986,870.8494261999986,870.8494261999986,872.8496167000012,872.8496167000012,872.8496167000012,872.8496167000012,872.8341959999998,2,0.9878224999993108,0.21702649999861023,None,,,,,,,,,,,,,,,,,,,,,,4215,1,2025-10-17_18h33.54.486,sm,2024.2.4,59.971813248267196,2025-10-17 18h34.03.712370 +0200,
31,0,31,,,,,,space,2.4411935999996786,None,None,None,,,None,0,0,0,0,,,,,1,0,1,0,,,,,31,0,31,0,872.8496167000012,,,,,,,,,,,,,,,,,,,,,,,,,,,,,,,,,,,,,,,,,,,,,,,,,,,,,,,,,Krone,2.3109,872.8347079000014,872.8352225000017,872.8353270000007,872.8496167000012,875.165985399999,875.1504425999992,875.1541585999985,875.165985399999,875.165985399999,875.165985399999,875.165985399999,877.166502,877.166502,877.166502,877.166502,877.1509031999994,None,,,None,,,,,,,,,,,,,,,,,,,,,,4215,1,2025-10-17_18h33.54.486,sm,2024.2.4,59.971813248267196,2025-10-17 18h34.03.712370 +0200,
32,0,32,,,,,,space,2.4411935999996786,None,None,3,1.007534400003351,0.22644709999804036,None,0,0,0,0,,,,,1,0,1,0,,,,,32,0,32,0,877.166502,,,,,,,,,,,,,,,,,,,,,,,,,,,,,,,,,,,,,,,,,,,,,,,,,,,,,,,,,Schwarz,3.0301,877.1514128999988,877.1519278000014,877.1520363000018,877.166502,880.1988108000005,880.1837536999992,880.1875319999999,880.1988108000005,880.1988108000005,880.1988108000005,880.1988108000005,882.1991091999989,882.1991091999989,882.1991091999989,882.1991091999989,882.1834139999992,3,1.007534400003351,0.22644709999804036,None,,,,,,,,,,,,,,,,,,,,,,4215,1,2025-10-17_18h33.54.486,sm,2024.2.4,59.971813248267196,2025-10-17 18h34.03.712370 +0200,
33,0,33,,,,,,space,2.4411935999996786,None,None,2,0.9119416000030469,0.2354364999991958,None,0,0,0,0,,,,,1,0,1,0,,,,,33,0,33,0,882.1991091999989,,,,,,,,,,,,,,,,,,,,,,,,,,,,,,,,,,,,,,,,,,,,,,,,,,,,,,,,,Anwalt,2.1593,882.1839222999988,882.1844138999986,882.1845247000019,882.1991091999989,884.3654419000013,884.3498709999985,884.3540204000019,884.3654419000013,884.3654419000013,884.3654419000013,884.3654419000013,886.3654786000006,886.3654786000006,886.3654786000006,886.3654786000006,886.3500213000007,2,0.9119416000030469,0.2354364999991958,None,,,,,,,,,,,,,,,,,,,,,,4215,1,2025-10-17_18h33.54.486,sm,2024.2.4,59.971813248267196,2025-10-17 18h34.03.712370 +0200,
34,0,34,,,,,,space,2.4411935999996786,None,None,3,1.0991561000009824,0.26727609999943525,None,0,0,0,0,,,,,1,0,1,0,,,,,34,0,34,0,886.3654786000006,,,,,,,,,,,,,,,,,,,,,,,,,,,,,,,,,,,,,,,,,,,,,,,,,,,,,,,,,Monument,3.1534,886.350526000002,886.3510400000014,886.3511493000005,886.3654786000006,889.5316841999993,889.5163068000002,889.5196313000015,889.5316841999993,889.5316841999993,889.5316841999993,889.5316841999993,891.5318455999986,891.5318455999986,891.5318455999986,891.5318455999986,891.5163624000015,3,1.0991561000009824,0.26727609999943525,None,,,,,,,,,,,,,,,,,,,,,,4215,1,2025-10-17_18h33.54.486,sm,2024.2.4,59.971813248267196,2025-10-17 18h34.03.712370 +0200,
35,0,35,,,,,,space,2.4411935999996786,None,None,3,1.1563646999966295,0.22328870000274037,None,0,0,0,0,,,,,1,0,1,0,,,,,35,0,35,0,891.5318455999986,,,,,,,,,,,,,,,,,,,,,,,,,,,,,,,,,,,,,,,,,,,,,,,,,,,,,,,,,Winter,2.4918,891.5168706000004,891.5173972000011,891.5175029999991,891.5318455999986,894.0314212000012,894.0160265000013,894.0193423000019,894.0314212000012,894.0314212000012,894.0314212000012,894.0314212000012,896.0315664000009,896.0315664000009,896.0315664000009,896.0315664000009,896.0163175999987,3,1.1563646999966295,0.22328870000274037,None,,,,,,,,,,,,,,,,,,,,,,4215,1,2025-10-17_18h33.54.486,sm,2024.2.4,59.971813248267196,2025-10-17 18h34.03.712370 +0200,
36,0,36,,,,,,space,2.4411935999996786,None,None,3,1.224117900001147,0.30513430000064545,None,0,0,0,0,,,,,1,0,1,0,,,,,36,0,36,0,896.0315664000009,,,,,,,,,,,,,,,,,,,,,,,,,,,,,,,,,,,,,,,,,,,,,,,,,,,,,,,,,Flut,2.3394,896.0168311999987,896.0173638999986,896.0174688000006,896.0315664000009,898.3813527999991,898.3658912999999,898.371658,898.3813527999991,898.3813527999991,898.3813527999991,898.3813527999991,900.3813117999998,900.3813117999998,900.3813117999998,900.3813117999998,900.3655999000002,3,1.224117900001147,0.30513430000064545,None,,,,,,,,,,,,,,,,,,,,,,4215,1,2025-10-17_18h33.54.486,sm,2024.2.4,59.971813248267196,2025-10-17 18h34.03.712370 +0200,
37,0,37,,,,,,space,2.4411935999996786,None,None,3,1.5564212999997835,0.25737129999833996,None,0,0,0,0,,,,,1,0,1,0,,,,,37,0,37,0,900.3813117999998,,,,,,,,,,,,,,,,,,,,,,,,,,,,,,,,,,,,,,,,,,,,,,,,,,,,,,,,,Ecke,4.405,900.366109999999,900.3666239000013,900.3667272999992,900.3813117999998,904.7974585000011,904.7817211000001,904.7846940999989,904.7974585000011,904.7974585000011,904.7974585000011,904.7974585000011,906.797502100002,906.797502100002,906.797502100002,906.797502100002,906.7820820000015,3,1.5564212999997835,0.25737129999833996,None,,,,,,,,,,,,,,,,,,,,,,4215,1,2025-10-17_18h33.54.486,sm,2024.2.4,59.971813248267196,2025-10-17 18h34.03.712370 +0200,
38,0,38,,,,,,space,2.4411935999996786,None,None,2,0.981947799999034,0.2802668000003905,None,0,0,0,0,,,,,1,0,1,0,,,,,38,0,38,0,906.797502100002,,,,,,,,,,,,,,,,,,,,,,,,,,,,,,,,,,,,,,,,,,,,,,,,,,,,,,,,,Känguru,3.8984,906.7825845000007,906.7832371000004,906.783344200001,906.797502100002,910.6971798999984,910.6819030000006,910.6849249000006,910.6971798999984,910.6971798999984,910.6971798999984,910.6971798999984,912.6973285999993,912.6973285999993,912.6973285999993,912.6973285999993,912.6817014000007,2,0.981947799999034,0.2802668000003905,None,,,,,,,,,,,,,,,,,,,,,,4215,1,2025-10-17_18h33.54.486,sm,2024.2.4,59.971813248267196,2025-10-17 18h34.03.712370 +0200,
39,0,39,,,,,,space,2.4411935999996786,None,None,2,0.8838348999997834,0.19935090000217315,None,0,0,0,0,,,,,1,0,1,0,,,,,39,0,39,0,912.6973285999993,,,,,,,,,,,,,,,,,,,,,,,,,,,,,,,,,,,,,,,,,,,,,,,,,,,,,,,,,Familie,2.3346,912.6822008999989,912.6828507999999,912.6829532000011,912.6973285999993,915.0303888999988,915.0153524000016,915.0190296000001,915.0303888999988,915.0303888999988,915.0303888999988,915.0303888999988,917.0305178000017,917.0305178000017,917.0305178000017,917.0305178000017,917.0146152000016,2,0.8838348999997834,0.19935090000217315,None,,,,,,,,,,,,,,,,,,,,,,4215,1,2025-10-17_18h33.54.486,sm,2024.2.4,59.971813248267196,2025-10-17 18h34.03.712370 +0200,
40,0,40,,,,,,space,2.4411935999996786,None,None,3,0.8675547999991977,0.28365149999808636,None,0,0,0,0,,,,,1,0,1,0,,,,,40,0,40,0,917.0305178000017,,,,,,,,,,,,,,,,,,,,,,,,,,,,,,,,,,,,,,,,,,,,,,,,,,,,,,,,,Gipfel,3.4475,917.0150876000007,917.0155734,917.015674000002,917.0305178000017,920.4806768999988,920.4644239000008,920.468162000001,920.4806768999988,920.4806768999988,920.4806768999988,920.4806768999988,922.480086800002,922.480086800002,922.480086800002,922.480086800002,922.4643477999998,3,0.8675547999991977,0.28365149999808636,None,,,,,,,,,,,,,,,,,,,,,,4215,1,2025-10-17_18h33.54.486,sm,2024.2.4,59.971813248267196,2025-10-17 18h34.03.712370 +0200,
41,0,41,,,,,,space,2.4411935999996786,None,None,3,1.2501238000004378,0.33504220000031637,None,0,0,0,0,,,,,1,0,1,0,,,,,41,0,41,0,922.480086800002,,,,,,,,,,,,,,,,,,,,,,,,,,,,,,,,,,,,,,,,,,,,,,,,,,,,,,,,,Pflege,3.126,922.4648514,922.4655047999986,922.4656088000011,922.480086800002,925.6130655000015,925.5979202000017,925.6020405000017,925.6130655000015,925.6130655000015,925.6130655000015,925.6130655000015,927.6132356999988,927.6132356999988,927.6132356999988,927.6132356999988,927.5980421999993,3,1.2501238000004378,0.33504220000031637,None,,,,,,,,,,,,,,,,,,,,,,4215,1,2025-10-17_18h33.54.486,sm,2024.2.4,59.971813248267196,2025-10-17 18h34.03.712370 +0200,
42,0,42,,,,,,space,2.4411935999996786,None,None,2,1.156787500000064,0.23828560000038124,None,0,0,0,0,,,,,1,0,1,0,,,,,42,0,42,0,927.6132356999988,,,,,,,,,,,,,,,,,,,,,,,,,,,,,,,,,,,,,,,,,,,,,,,,,,,,,,,,,Blätter,2.07,927.5985704999985,927.5993450999995,927.5994610000016,927.6132356999988,929.6959811000015,929.680264300001,929.683885800001,929.6959811000015,929.6959811000015,929.6959811000015,929.6959811000015,931.6962418000003,931.6962418000003,931.6962418000003,931.6962418000003,931.6805142000012,2,1.156787500000064,0.23828560000038124,None,,,,,,,,,,,,,,,,,,,,,,4215,1,2025-10-17_18h33.54.486,sm,2024.2.4,59.971813248267196,2025-10-17 18h34.03.712370 +0200,
43,0,43,,,,,,space,2.4411935999996786,None,None,2,0.6681196999998065,0.20292919999701553,None,0,0,0,0,,,,,1,0,1,0,,,,,43,0,43,0,931.6962418000003,,,,,,,,,,,,,,,,,,,,,,,,,,,,,,,,,,,,,,,,,,,,,,,,,,,,,,,,,Vogel,2.5717,931.6810240000013,931.6815901000009,931.681696399999,931.6962418000003,934.2790634000012,934.2636524000009,934.268037400001,934.2790634000012,934.2790634000012,934.2790634000012,934.2790634000012,936.2792359000014,936.2792359000014,936.2792359000014,936.2792359000014,936.263599599999,2,0.6681196999998065,0.20292919999701553,None,,,,,,,,,,,,,,,,,,,,,,4215,1,2025-10-17_18h33.54.486,sm,2024.2.4,59.971813248267196,2025-10-17 18h34.03.712370 +0200,
44,0,44,,,,,,space,2.4411935999996786,None,None,2,1.4385723000013968,None,None,0,0,0,0,,,,,1,0,1,0,,,,,44,0,44,0,936.2792359000014,,,,,,,,,,,,,,,,,,,,,,,,,,,,,,,,,,,,,,,,,,,,,,,,,,,,,,,,,Tube,3.5093,936.2641034000007,936.2646190999985,936.2647226000008,936.2792359000014,939.7963424000009,939.7797773999991,939.7826725000014,939.7963424000009,939.7963424000009,939.7963424000009,939.7963424000009,941.7960741999996,941.7960741999996,941.7960741999996,941.7960741999996,941.7798495999996,2,1.4385723000013968,None,None,,,,,,,,,,,,,,,,,,,,,,4215,1,2025-10-17_18h33.54.486,sm,2024.2.4,59.971813248267196,2025-10-17 18h34.03.712370 +0200,
45,0,45,,,,,,space,2.4411935999996786,None,None,2,1.2621627999978955,0.1811446000028809,None,0,0,0,0,,,,,1,0,1,0,,,,,45,0,45,0,941.7960741999996,,,,,,,,,,,,,,,,,,,,,,,,,,,,,,,,,,,,,,,,,,,,,,,,,,,,,,,,,Finger,4.4759,941.7802659000008,941.780777,941.780870300001,941.7960741999996,946.2785218999998,946.2630520999992,946.2671689000017,946.2785218999998,946.2785218999998,946.2785218999998,946.2785218999998,948.2785642000017,948.2785642000017,948.2785642000017,948.2785642000017,948.2630093000007,2,1.2621627999978955,0.1811446000028809,None,,,,,,,,,,,,,,,,,,,,,,4215,1,2025-10-17_18h33.54.486,sm,2024.2.4,59.971813248267196,2025-10-17 18h34.03.712370 +0200,
46,0,46,,,,,,space,2.4411935999996786,None,None,3,0.9297812000004342,0.21612739999909536,None,0,0,0,0,,,,,1,0,1,0,,,,,46,0,46,0,948.2785642000017,,,,,,,,,,,,,,,,,,,,,,,,,,,,,,,,,,,,,,,,,,,,,,,,,,,,,,,,,Ostern,2.1788,948.2635158000012,948.2640366999985,948.2641406000002,948.2785642000017,950.461338699999,950.4459855999994,950.4498617999998,950.461338699999,950.461338699999,950.461338699999,950.461338699999,952.461495399999,952.461495399999,952.461495399999,952.461495399999,952.4460204999996,3,0.9297812000004342,0.21612739999909536,None,,,,,,,,,,,,,,,,,,,,,,4215,1,2025-10-17_18h33.54.486,sm,2024.2.4,59.971813248267196,2025-10-17 18h34.03.712370 +0200,
47,0,47,,,,,,space,2.4411935999996786,None,None,2,1.361445200000162,0.19616080000196234,None,0,0,0,0,,,,,1,0,1,0,,,,,47,0,47,0,952.461495399999,,,,,,,,,,,,,,,,,,,,,,,,,,,,,,,,,,,,,,,,,,,,,,,,,,,,,,,,,Atem,4.291,952.4465340999996,952.4470356999991,952.4471410000006,952.461495399999,956.7612406000007,956.7455962999993,956.7488985999989,956.7612406000007,956.7612406000007,956.7612406000007,956.7612406000007,958.7614291999998,958.7614291999998,958.7614291999998,958.7614291999998,958.7456361000004,2,1.361445200000162,0.19616080000196234,None,,,,,,,,,,,,,,,,,,,,,,4215,1,2025-10-17_18h33.54.486,sm,2024.2.4,59.971813248267196,2025-10-17 18h34.03.712370 +0200,
48,0,48,,,,,,space,2.4411935999996786,None,None,None,,,None,0,0,0,0,,,,,1,0,1,0,,,,,48,0,48,0,958.7614291999998,,,,,,,,,,,,,,,,,,,,,,,,,,,,,,,,,,,,,,,,,,,,,,,,,,,,,,,,,Luft,4.4157,958.7460845999994,958.7465660999987,958.7466596000013,958.7614291999998,963.1774508999988,963.1620919999987,963.1651296000018,963.1774508999988,963.1774508999988,963.1774508999988,963.1774508999988,965.1776867000008,965.1776867000008,965.1776867000008,965.1776867000008,965.1621021999999,None,,,None,,,,,,,,,,,,,,,,,,,,,,4215,1,2025-10-17_18h33.54.486,sm,2024.2.4,59.971813248267196,2025-10-17 18h34.03.712370 +0200,
49,0,49,,,,,,space,2.4411935999996786,None,None,2,0.8217592999972112,0.22398120000070776,None,0,0,0,0,,,,,1,0,1,0,,,,,49,0,49,0,965.1776867000008,,,,,,,,,,,,,,,,,,,,,,,,,,,,,,,,,,,,,,,,,,,,,,,,,,,,,,,,,Geschwister,3.0483,965.1625673000017,965.1630785000016,965.1631859000008,965.1776867000008,968.2271849999997,968.2117051999994,968.2157879000006,968.2271849999997,968.2271849999997,968.2271849999997,968.2271849999997,970.2273013000013,970.2273013000013,970.2273013000013,970.2273013000013,970.2117676000016,2,0.8217592999972112,0.22398120000070776,None,,,,,,,,,,,,,,,,,,,,,,4215,1,2025-10-17_18h33.54.486,sm,2024.2.4,59.971813248267196,2025-10-17 18h34.03.712370 +0200,
50,0,50,,,,,,space,2.4411935999996786,None,None,2,1.4016032999970776,0.2173173000010138,None,0,0,0,0,,,,,1,0,1,0,,,,,50,0,50,0,970.2273013000013,,,,,,,,,,,,,,,,,,,,,,,,,,,,,,,,,,,,,,,,,,,,,,,,,,,,,,,,,Knöchel,2.8541,970.2122748000002,970.2127992999995,970.2129071000018,970.2273013000013,973.0934082999993,973.0779075999999,973.0822350000017,973.0934082999993,973.0934082999993,973.0934082999993,973.0934082999993,975.093654100001,975.093654100001,975.093654100001,975.093654100001,975.078183900001,2,1.4016032999970776,0.2173173000010138,None,,,,,,,,,,,,,,,,,,,,,,4215,1,2025-10-17_18h33.54.486,sm,2024.2.4,59.971813248267196,2025-10-17 18h34.03.712370 +0200,
51,0,51,,,,,,space,2.4411935999996786,None,None,3,0.9697696000002907,0.26038509999852977,None,0,0,0,0,,,,,1,0,1,0,,,,,51,0,51,0,975.093654100001,,,,,,,,,,,,,,,,,,,,,,,,,,,,,,,,,,,,,,,,,,,,,,,,,,,,,,,,,Kuchen ,2.8269,975.0786852000019,975.079209800002,975.0793147000004,975.093654100001,977.9272530000017,977.911619999999,977.9153717000008,977.9272530000017,977.9272530000017,977.9272530000017,977.9272530000017,979.9267065999993,979.9267065999993,979.9267065999993,979.9267065999993,979.9112330999997,3,0.9697696000002907,0.26038509999852977,None,,,,,,,,,,,,,,,,,,,,,,4215,1,2025-10-17_18h33.54.486,sm,2024.2.4,59.971813248267196,2025-10-17 18h34.03.712370 +0200,
52,0,52,,,,,,space,2.4411935999996786,None,None,2,0.9856785000010859,0.24913670000023558,None,0,0,0,0,,,,,1,0,1,0,,,,,52,0,52,0,979.9267065999993,,,,,,,,,,,,,,,,,,,,,,,,,,,,,,,,,,,,,,,,,,,,,,,,,,,,,,,,,Tischler,2.5836,979.9117350000015,979.9123814999984,979.9124864000005,979.9267065999993,982.5099847999991,982.494279999999,982.4986251000009,982.5099847999991,982.5099847999991,982.5099847999991,982.5099847999991,984.5098079000018,984.5098079000018,984.5098079000018,984.5098079000018,984.4941695999987,2,0.9856785000010859,0.24913670000023558,None,,,,,,,,,,,,,,,,,,,,,,4215,1,2025-10-17_18h33.54.486,sm,2024.2.4,59.971813248267196,2025-10-17 18h34.03.712370 +0200,
53,0,53,,,,,,space,2.4411935999996786,None,None,2,1.1158551999978954,0.22578790000261506,None,0,0,0,0,,,,,1,0,1,0,,,,,53,0,53,0,984.5098079000018,,,,,,,,,,,,,,,,,,,,,,,,,,,,,,,,,,,,,,,,,,,,,,,,,,,,,,,,,Lachen,5.3544,984.4946834000002,984.4951886999988,984.4953066999988,984.5098079000018,989.8762296999994,989.8604013000004,989.8644710000008,989.8762296999994,989.8762296999994,989.8762296999994,989.8762296999994,991.8762457000012,991.8762457000012,991.8762457000012,991.8762457000012,991.8603823000012,2,1.1158551999978954,0.22578790000261506,None,,,,,,,,,,,,,,,,,,,,,,4215,1,2025-10-17_18h33.54.486,sm,2024.2.4,59.971813248267196,2025-10-17 18h34.03.712370 +0200,
54,0,54,,,,,,space,2.4411935999996786,None,None,3,0.8540723000005528,0.3050622000009753,None,0,0,0,0,,,,,1,0,1,0,,,,,54,0,54,0,991.8762457000012,,,,,,,,,,,,,,,,,,,,,,,,,,,,,,,,,,,,,,,,,,,,,,,,,,,,,,,,,Schloss,2.9563,991.8608236,991.8614645000016,991.8615601999991,991.8762457000012,994.8425520000019,994.8269326000009,994.8311752000009,994.8425520000019,994.8425520000019,994.8425520000019,994.8425520000019,996.8425647000004,996.8425647000004,996.8425647000004,996.8425647000004,996.8267816000007,3,0.8540723000005528,0.3050622000009753,None,,,,,,,,,,,,,,,,,,,,,,4215,1,2025-10-17_18h33.54.486,sm,2024.2.4,59.971813248267196,2025-10-17 18h34.03.712370 +0200,
55,0,55,,,,,,space,2.4411935999996786,None,None,3,0.9505466000009619,0.2979946999985259,None,0,0,0,0,,,,,1,0,1,0,,,,,55,0,55,0,996.8425647000004,,,,,,,,,,,,,,,,,,,,,,,,,,,,,,,,,,,,,,,,,,,,,,,,,,,,,,,,,Auto,2.32,996.8272873999995,996.8277892000006,996.8278940000018,996.8425647000004,999.175351599999,999.1594895000017,999.162469400002,999.175351599999,999.175351599999,999.175351599999,999.175351599999,1001.1758933000019,1001.1758933000019,1001.1758933000019,1001.1758933000019,1001.1598773000005,3,0.9505466000009619,0.2979946999985259,None,,,,,,,,,,,,,,,,,,,,,,4215,1,2025-10-17_18h33.54.486,sm,2024.2.4,59.971813248267196,2025-10-17 18h34.03.712370 +0200,
56,0,56,,,,,,space,2.4411935999996786,None,None,3,0.9999782999984745,0.5724111000017729,None,0,0,0,0,,,,,1,0,1,0,,,,,56,0,56,0,1001.1758933000019,,,,,,,,,,,,,,,,,,,,,,,,,,,,,,,,,,,,,,,,,,,,,,,,,,,,,,,,,Postkarte,2.304,1001.1603947000003,1001.1609177999999,1001.1610242999996,1001.1758933000019,1003.4918806999995,1003.4765006000016,1003.4808010000015,1003.4918806999995,1003.4918806999995,1003.4918806999995,1003.4918806999995,1005.4922165999997,1005.4922165999997,1005.4922165999997,1005.4922165999997,1005.4762808999985,3,0.9999782999984745,0.5724111000017729,None,,,,,,,,,,,,,,,,,,,,,,4215,1,2025-10-17_18h33.54.486,sm,2024.2.4,59.971813248267196,2025-10-17 18h34.03.712370 +0200,
57,0,57,,,,,,space,2.4411935999996786,None,None,2,0.8519054999997024,0.27820839999913005,None,0,0,0,0,,,,,1,0,1,0,,,,,57,0,57,0,1005.4922165999997,,,,,,,,,,,,,,,,,,,,,,,,,,,,,,,,,,,,,,,,,,,,,,,,,,,,,,,,,Journalistin,3.9726,1005.4767878999992,1005.4773010999997,1005.4774050000015,1005.4922165999997,1009.4755036999995,1009.4592097999994,1009.4672257999991,1009.4755036999995,1009.4755036999995,1009.4755036999995,1009.4755036999995,1011.4753659999988,1011.4753659999988,1011.4753659999988,1011.4753659999988,1011.4593673000018,2,0.8519054999997024,0.27820839999913005,None,,,,,,,,,,,,,,,,,,,,,,4215,1,2025-10-17_18h33.54.486,sm,2024.2.4,59.971813248267196,2025-10-17 18h34.03.712370 +0200,
58,0,58,,,,,,space,2.4411935999996786,None,None,2,1.0881898000006913,0.22483509999801754,None,0,0,0,0,,,,,1,0,1,0,,,,,58,0,58,0,1011.4753659999988,,,,,,,,,,,,,,,,,,,,,,,,,,,,,,,,,,,,,,,,,,,,,,,,,,,,,,,,,Weinen,3.8285,1011.4598674000008,1011.4603927999997,1011.4604972999987,1011.4753659999988,1015.3078620000015,1015.2925324999997,1015.2965158000006,1015.3078620000015,1015.3078620000015,1015.3078620000015,1015.3078620000015,1017.308361899999,1017.308361899999,1017.308361899999,1017.308361899999,1017.2924606000015,2,1.0881898000006913,0.22483509999801754,None,,,,,,,,,,,,,,,,,,,,,,4215,1,2025-10-17_18h33.54.486,sm,2024.2.4,59.971813248267196,2025-10-17 18h34.03.712370 +0200,
59,0,59,,,,,,space,2.4411935999996786,None,None,2,1.6942477999982657,None,None,0,0,0,0,,,,,1,0,1,0,,,,,59,0,59,0,1017.308361899999,,,,,,,,,,,,,,,,,,,,,,,,,,,,,,,,,,,,,,,,,,,,,,,,,,,,,,,,,Ausbruch,2.4615,1017.292964799999,1017.2934868000011,1017.2935913000001,1017.308361899999,1019.7743485999999,1019.7585805999988,1019.7624080999994,1019.7743485999999,1019.7743485999999,1019.7743485999999,1019.7743485999999,1021.774278500001,1021.774278500001,1021.774278500001,1021.774278500001,1021.7586109000003,2,1.6942477999982657,None,None,,,,,,,,,,,,,,,,,,,,,,4215,1,2025-10-17_18h33.54.486,sm,2024.2.4,59.971813248267196,2025-10-17 18h34.03.712370 +0200,
60,0,60,,,,,,space,2.4411935999996786,None,None,3,0.9344049999999697,0.23148829999990994,None,0,0,0,0,,,,,1,0,1,0,,,,,60,0,60,0,1021.774278500001,,,,,,,,,,,,,,,,,,,,,,,,,,,,,,,,,,,,,,,,,,,,,,,,,,,,,,,,,Schuh,2.1584,1021.7591147999992,1021.7596589999994,1021.7597645999995,1021.774278500001,1023.9407222000009,1023.9249485,1023.928487600002,1023.9407222000009,1023.9407222000009,1023.9407222000009,1023.9407222000009,1025.9407863000015,1025.9407863000015,1025.9407863000015,1025.9407863000015,1025.9252510000006,3,0.9344049999999697,0.23148829999990994,None,,,,,,,,,,,,,,,,,,,,,,4215,1,2025-10-17_18h33.54.486,sm,2024.2.4,59.971813248267196,2025-10-17 18h34.03.712370 +0200,
61,0,61,,,,,,space,2.4411935999996786,None,None,3,0.9602432000028784,0.2400497999988147,None,0,0,0,0,,,,,1,0,1,0,,,,,61,0,61,0,1025.9407863000015,,,,,,,,,,,,,,,,,,,,,,,,,,,,,,,,,,,,,,,,,,,,,,,,,,,,,,,,,Zimt,3.1437,1025.9257555000004,1025.9262778000011,1025.9263820999986,1025.9407863000015,1029.0902754999988,1029.0752404999985,1029.078194400001,1029.0902754999988,1029.0902754999988,1029.0902754999988,1029.0902754999988,1031.0905727999998,1031.0905727999998,1031.0905727999998,1031.0905727999998,1031.0748103000005,3,0.9602432000028784,0.2400497999988147,None,,,,,,,,,,,,,,,,,,,,,,4215,1,2025-10-17_18h33.54.486,sm,2024.2.4,59.971813248267196,2025-10-17 18h34.03.712370 +0200,
62,0,62,,,,,,space,2.4411935999996786,None,None,2,0.9708131000006688,0.20691609999994398,None,0,0,0,0,,,,,1,0,1,0,,,,,62,0,62,0,1031.0905727999998,,,,,,,,,,,,,,,,,,,,,,,,,,,,,,,,,,,,,,,,,,,,,,,,,,,,,,,,,Rose,2.1198,1031.0753112999992,1031.075820500002,1031.075936000001,1031.0905727999998,1033.223458299999,1033.2079039000018,1033.2109463999986,1033.223458299999,1033.223458299999,1033.223458299999,1033.223458299999,1035.2234645999997,1035.2234645999997,1035.2234645999997,1035.2234645999997,1035.207863300002,2,0.9708131000006688,0.20691609999994398,None,,,,,,,,,,,,,,,,,,,,,,4215,1,2025-10-17_18h33.54.486,sm,2024.2.4,59.971813248267196,2025-10-17 18h34.03.712370 +0200,
