thisN,thisTrialN,thisRepN,Cue,Target,Mediator1,Mediator2,iti,scanner_ready_press.keys,scanner_ready_press.rt,scanner_ready_press.duration,skip_trigger.keys,living_nonliving.keys,living_nonliving.rt,living_nonliving.duration,end_mapping.keys,blocks.thisRepN,blocks.thisTrialN,blocks.thisN,blocks.thisIndex,load_and_shuffle.thisRepN,load_and_shuffle.thisTrialN,load_and_shuffle.thisN,load_and_shuffle.thisIndex,runs.thisRepN,runs.thisTrialN,runs.thisN,runs.thisIndex,iti_loading_loop.thisRepN,iti_loading_loop.thisTrialN,iti_loading_loop.thisN,iti_loading_loop.thisIndex,semantic_mapping_run.thisRepN,semantic_mapping_run.thisTrialN,semantic_mapping_run.thisN,semantic_mapping_run.thisIndex,thisRow.t,notes,welcome.started,welcome_text.started,key_resp__welcome.started,welcome.stopped,key_resp__welcome.keys,key_resp__welcome.rt,key_resp__welcome.duration,scout.started,scout_text.started,key_resp.started,scout.stopped,key_resp.keys,key_resp.rt,key_resp.duration,instructions_semantic_mapping1.started,sm_instructions1_text.started,sm_instructions1_key.started,instructions_semantic_mapping1.stopped,sm_instructions1_key.keys,sm_instructions1_key.rt,sm_instructions1_key.duration,instructions_semantic_mapping2.started,sm_instructions2_text.started,sm_instructions2_key.started,instructions_semantic_mapping2.stopped,sm_instructions2_key.keys,sm_instructions2_key.rt,sm_instructions2_key.duration,reset_run.started,reset_run.stopped,shuffle_items.started,shuffle_items.stopped,set_up_runs.started,set_up_runs.stopped,load_iti.started,load_iti.stopped,prep_scanner.started,scanner_ready_press.started,ready_set_text.started,prep_scanner.stopped,runs.scanner_ready_press.keys,runs.scanner_ready_press.rt,runs.scanner_ready_press.duration,wait_for_trigger.started,starting_soon.started,skip_trigger.started,wait_for_trigger.stopped,runs.skip_trigger.keys,blank.started,begin_end_run_cross.started,sound_1.started,sound_1.stopped,sound_2.started,sound_2.stopped,begin_end_run_cross.stopped,blank.stopped,CurrentItem,CurrentITI,set_up_trial.started,set_up_trial.stopped,sm_iti.started,iti_cross.started,iti_cross.stopped,sm_iti.stopped,item.started,living_nonliving.started,end_mapping.started,living_nonliving_text.started,semantic_map_item.started,living_nonliving.stopped,end_mapping.stopped,living_nonliving_text.stopped,semantic_map_item.stopped,item.stopped,semantic_mapping_run.living_nonliving.keys,semantic_mapping_run.living_nonliving.rt,semantic_mapping_run.living_nonliving.duration,semantic_mapping_run.end_mapping.keys,fieldmap.started,fieldmap.stopped,runs.fm_key.keys,task_break.started,feeback_text.started,task_break_text.started,task_break_resp.started,feeback_text.stopped,task_break.stopped,runs.task_break_resp.keys,runs.task_break_resp.rt,runs.task_break_resp.duration,fm_text.started,fm_key.started,runs.fm_key.rt,runs.fm_key.duration,thanks.started,thanks_text.started,thanks_text.stopped,thanks.stopped,PID,MRI,date,expName,psychopyVersion,frameRate,expStart,
,,,,,,,,,,,,,,,,,,,,,,,,,,,,,,,,,,,,,,0.0034931999998661922,0.008816899999146699,0.008816899999146699,137.5942288999995,space,137.57517910000024,None,,,,,,,,,,,,,,,,,,,,,,,,,,,,,,,,,,,,,,,,,,,,,,,,,,,,,,,,,,,,,,,,,,,,,,,,,,,,,,,,,,,,,,,,,,,,4660,1,2025-07-28_18h59.33.053,sm,2024.2.4,59.93978449234982,2025-07-28 18h59.53.397643 +0200,
,,,,,,,,,,,,,,,,,,,,,,,,,,,,,,,,,,,,,,,,,,,,,137.5943671999994,137.60368769999877,137.60368769999877,266.12983519999943,space,128.50832739999896,None,,,,,,,,,,,,,,,,,,,,,,,,,,,,,,,,,,,,,,,,,,,,,,,,,,,,,,,,,,,,,,,,,,,,,,,,,,,,,,,,,,,,,4660,1,2025-07-28_18h59.33.053,sm,2024.2.4,59.93978449234982,2025-07-28 18h59.53.397643 +0200,
,,,,,,,,,,,,,,,,,,,,,,,,,,,,,,,,,,,,,,,,,,,,,,,,,,,,266.1299549999985,266.1444871999993,266.1444871999993,270.5112645999998,2,4.364292899999782,None,,,,,,,,,,,,,,,,,,,,,,,,,,,,,,,,,,,,,,,,,,,,,,,,,,,,,,,,,,,,,,,,,,,,,,,,,,,,,,4660,1,2025-07-28_18h59.33.053,sm,2024.2.4,59.93978449234982,2025-07-28 18h59.53.397643 +0200,
,,,,,,,,,,,,,,,,,,,,,,,,,,,,,,,,,,,,,,,,,,,,,,,,,,,,,,,,,,,270.51138699999865,270.52586340000016,270.52586340000016,279.9101518999996,2,9.373429400000532,None,,,,,,,,,,,,,,,,,,,,,,,,,,,,,,,,,,,,,,,,,,,,,,,,,,,,,,,,,,,,,,,,,,,,,,,4660,1,2025-07-28_18h59.33.053,sm,2024.2.4,59.93978449234982,2025-07-28 18h59.53.397643 +0200,
0,0,0,Eule,Augen,Vogel,Nacht,3.3555,space,4.679738599999837,None,None,3,1.3515575000001263,0.24326529999962077,None,0,0,0,0,0,79,79,15,0,0,0,0,0,79,79,70,0,0,0,0,345.5062281999999,,,,,,,,,,,,,,,,,,,,,,,,,,,,,,279.91109119999965,279.91188069999953,279.9792086999987,279.9794391999985,279.9839323999986,279.98425080000015,280.0137634999992,280.01397369999904,280.0205086999995,280.0246933999988,280.0246933999988,284.71391009999934,space,4.679738599999837,None,284.7140647999986,284.72702859999845,284.72702859999845,333.49007829999937,None,333.49951659999897,333.50699539999914,333.5054951666664,334.7149138999994,343.49046866666527,344.494923799999,345.5062281999999,345.49085019999984,Auto,3.3555,345.4922564999997,345.49301679999917,345.49604179999915,345.5062281999999,348.8726566999994,348.8573220999988,348.8603289999992,348.8726566999994,348.8726566999994,348.8726566999994,348.8726566999994,350.8730104999995,350.8730104999995,350.8730104999995,350.8730104999995,350.8576959999991,3,1.3515575000001263,0.24326529999962077,None,,,,,,,,,,,,,,,,,,,,,4660,1,2025-07-28_18h59.33.053,sm,2024.2.4,59.93978449234982,2025-07-28 18h59.53.397643 +0200,
1,0,1,,,,,,space,4.679738599999837,None,None,3,0.819356300000436,0.31311339999956544,None,0,0,0,0,,,,,0,0,0,0,,,,,1,0,1,0,350.8730104999995,,,,,,,,,,,,,,,,,,,,,,,,,,,,,,,,,,,,,,,,,,,,,,,,,,,,,,,,,,Salz,4.1117,350.8582263999997,350.8587403999991,350.85884429999896,350.8730104999995,354.98921789999986,354.9735879,354.9767849,354.98921789999986,354.98921789999986,354.98921789999986,354.98921789999986,356.9894753999997,356.9894753999997,356.9894753999997,356.9894753999997,356.9736809999995,3,0.819356300000436,0.31311339999956544,None,,,,,,,,,,,,,,,,,,,,,4660,1,2025-07-28_18h59.33.053,sm,2024.2.4,59.93978449234982,2025-07-28 18h59.53.397643 +0200,
2,0,2,,,,,,space,4.679738599999837,None,None,3,0.8931164000005083,0.2506792999993195,None,0,0,0,0,,,,,0,0,0,0,,,,,2,0,2,0,356.9894753999997,,,,,,,,,,,,,,,,,,,,,,,,,,,,,,,,,,,,,,,,,,,,,,,,,,,,,,,,,,Zapfen,3.4748,356.9741938999996,356.9746951999987,356.9748037999998,356.9894753999997,360.4728125999991,360.4566476,360.4635656999999,360.4728125999991,360.4728125999991,360.4728125999991,360.4728125999991,362.47245699999985,362.47245699999985,362.47245699999985,362.47245699999985,362.45707819999916,3,0.8931164000005083,0.2506792999993195,None,,,,,,,,,,,,,,,,,,,,,4660,1,2025-07-28_18h59.33.053,sm,2024.2.4,59.93978449234982,2025-07-28 18h59.53.397643 +0200,
3,0,3,,,,,,space,4.679738599999837,None,None,3,1.0738149999997404,0.23098360000039975,None,0,0,0,0,,,,,0,0,0,0,,,,,3,0,3,0,362.47245699999985,,,,,,,,,,,,,,,,,,,,,,,,,,,,,,,,,,,,,,,,,,,,,,,,,,,,,,,,,,Schulter,3.1779,362.457592499999,362.45811390000017,362.4582197999989,362.47245699999985,365.65509199999906,365.6396152999987,365.64314769999874,365.65509199999906,365.65509199999906,365.65509199999906,365.65509199999906,367.65543830000024,367.65543830000024,367.65543830000024,367.65543830000024,367.63998639999954,3,1.0738149999997404,0.23098360000039975,None,,,,,,,,,,,,,,,,,,,,,4660,1,2025-07-28_18h59.33.053,sm,2024.2.4,59.93978449234982,2025-07-28 18h59.53.397643 +0200,
4,0,4,,,,,,space,4.679738599999837,None,None,3,0.8823866000002454,0.24765760000082082,None,0,0,0,0,,,,,0,0,0,0,,,,,4,0,4,0,367.65543830000024,,,,,,,,,,,,,,,,,,,,,,,,,,,,,,,,,,,,,,,,,,,,,,,,,,,,,,,,,,Küche,5.2722,367.6404929,367.6409825999999,367.6410856000002,367.65543830000024,372.93794699999853,372.92336219999925,372.928522799999,372.93794699999853,372.93794699999853,372.93794699999853,372.93794699999853,374.9382614999995,374.9382614999995,374.9382614999995,374.9382614999995,374.9226301999988,3,0.8823866000002454,0.24765760000082082,None,,,,,,,,,,,,,,,,,,,,,4660,1,2025-07-28_18h59.33.053,sm,2024.2.4,59.93978449234982,2025-07-28 18h59.53.397643 +0200,
5,0,5,,,,,,space,4.679738599999837,None,None,3,1.1131345000012516,0.2668315999999322,None,0,0,0,0,,,,,0,0,0,0,,,,,5,0,5,0,374.9382614999995,,,,,,,,,,,,,,,,,,,,,,,,,,,,,,,,,,,,,,,,,,,,,,,,,,,,,,,,,,Zeigen,3.0297,374.923143,374.92365299999983,374.9237575999996,374.9382614999995,377.97109499999897,377.95566899999903,377.95927709999887,377.97109499999897,377.97109499999897,377.97109499999897,377.97109499999897,379.97145329999876,379.97145329999876,379.97145329999876,379.97145329999876,379.9556685999996,3,1.1131345000012516,0.2668315999999322,None,,,,,,,,,,,,,,,,,,,,,4660,1,2025-07-28_18h59.33.053,sm,2024.2.4,59.93978449234982,2025-07-28 18h59.53.397643 +0200,
6,0,6,,,,,,space,4.679738599999837,None,None,2,1.7222082999996928,0.20940390000032494,None,0,0,0,0,,,,,0,0,0,0,,,,,6,0,6,0,379.97145329999876,,,,,,,,,,,,,,,,,,,,,,,,,,,,,,,,,,,,,,,,,,,,,,,,,,,,,,,,,,Nacht,2.3263,379.9561821999996,379.95669409999937,379.95680099999845,379.97145329999876,382.30456049999884,382.2887916999989,382.29242989999875,382.30456049999884,382.30456049999884,382.30456049999884,382.30456049999884,384.3043283999996,384.3043283999996,384.3043283999996,384.3043283999996,384.2886476999993,2,1.7222082999996928,0.20940390000032494,None,,,,,,,,,,,,,,,,,,,,,4660,1,2025-07-28_18h59.33.053,sm,2024.2.4,59.93978449234982,2025-07-28 18h59.53.397643 +0200,
7,0,7,,,,,,space,4.679738599999837,None,None,2,1.0519517000011547,0.2123338999990665,None,0,0,0,0,,,,,0,0,0,0,,,,,7,0,7,0,384.3043283999996,,,,,,,,,,,,,,,,,,,,,,,,,,,,,,,,,,,,,,,,,,,,,,,,,,,,,,,,,,Schwimmen,2.6975,384.2891536999996,384.2898148999993,384.2899254999993,384.3043283999996,387.00391709999894,386.9882843999985,386.991951,387.00391709999894,387.00391709999894,387.00391709999894,387.00391709999894,389.00417670000024,389.00417670000024,389.00417670000024,389.00417670000024,388.98864030000004,2,1.0519517000011547,0.2123338999990665,None,,,,,,,,,,,,,,,,,,,,,4660,1,2025-07-28_18h59.33.053,sm,2024.2.4,59.93978449234982,2025-07-28 18h59.53.397643 +0200,
8,0,8,,,,,,space,4.679738599999837,None,None,3,0.6813751000008779,0.2692332999995415,None,0,0,0,0,,,,,0,0,0,0,,,,,8,0,8,0,389.00417670000024,,,,,,,,,,,,,,,,,,,,,,,,,,,,,,,,,,,,,,,,,,,,,,,,,,,,,,,,,,Stiefel,4.674,388.9891480999995,388.98964759999944,388.9897519999995,389.00417670000024,393.6868904999992,393.6712821000001,393.67528219999986,393.6868904999992,393.6868904999992,393.6868904999992,393.6868904999992,395.6869657999996,395.6869657999996,395.6869657999996,395.6869657999996,395.6716000999986,3,0.6813751000008779,0.2692332999995415,None,,,,,,,,,,,,,,,,,,,,,4660,1,2025-07-28_18h59.33.053,sm,2024.2.4,59.93978449234982,2025-07-28 18h59.53.397643 +0200,
9,0,9,,,,,,space,4.679738599999837,None,None,2,1.2876880999992864,0.19617029999972146,None,0,0,0,0,,,,,0,0,0,0,,,,,9,0,9,0,395.6869657999996,,,,,,,,,,,,,,,,,,,,,,,,,,,,,,,,,,,,,,,,,,,,,,,,,,,,,,,,,,Geheimnis,2.4988,395.6721134999989,395.67260759999954,395.67271289999917,395.6869657999996,398.1873082000002,398.1709531999986,398.1744130999996,398.1873082000002,398.1873082000002,398.1873082000002,398.1873082000002,400.1868431999992,400.1868431999992,400.1868431999992,400.1868431999992,400.17108599999847,2,1.2876880999992864,0.19617029999972146,None,,,,,,,,,,,,,,,,,,,,,4660,1,2025-07-28_18h59.33.053,sm,2024.2.4,59.93978449234982,2025-07-28 18h59.53.397643 +0200,
10,0,10,,,,,,space,4.679738599999837,None,None,3,1.215796299999056,0.348913600000742,None,0,0,0,0,,,,,0,0,0,0,,,,,10,0,10,0,400.1868431999992,,,,,,,,,,,,,,,,,,,,,,,,,,,,,,,,,,,,,,,,,,,,,,,,,,,,,,,,,,Rot,3.0155,400.17160030000014,400.1721086999987,400.1722142999988,400.1868431999992,403.2029946999992,403.18751749999865,403.19079859999874,403.2029946999992,403.2029946999992,403.2029946999992,403.2029946999992,405.20318769999903,405.20318769999903,405.20318769999903,405.20318769999903,405.1877594999987,3,1.215796299999056,0.348913600000742,None,,,,,,,,,,,,,,,,,,,,,4660,1,2025-07-28_18h59.33.053,sm,2024.2.4,59.93978449234982,2025-07-28 18h59.53.397643 +0200,
11,0,11,,,,,,space,4.679738599999837,None,None,2,0.699786099999983,0.20823589999963588,None,0,0,0,0,,,,,0,0,0,0,,,,,11,0,11,0,405.20318769999903,,,,,,,,,,,,,,,,,,,,,,,,,,,,,,,,,,,,,,,,,,,,,,,,,,,,,,,,,,Ziege,2.5819,405.18828439999925,405.1887971999986,405.18890569999894,405.20318769999903,407.78532899999846,407.76908489999914,407.77066860000014,407.78532899999846,407.78532899999846,407.78532899999846,407.78532899999846,,,,,409.7697565999988,2,0.699786099999983,0.20823589999963588,None,,,,,,,,,,,,,,,,,,,,,4660,1,2025-07-28_18h59.33.053,sm,2024.2.4,59.93978449234982,2025-07-28 18h59.53.397643 +0200,
12,0,12,,,,,,space,4.679738599999837,None,None,2,0.8619039000004705,0.18661950000023353,None,0,0,0,0,,,,,0,0,0,0,,,,,12,0,12,0,409.7861548000001,,,,,,,,,,,,,,,,,,,,,,,,,,,,,,,,,,,,,,,,,,,,,,,,,,,,,,,,,,Trauben,4.5551,409.7702432999995,409.7709942999991,409.771111,409.7861548000001,414.3527787999992,414.3369797999985,414.3404426999987,414.3527787999992,414.3527787999992,414.3527787999992,414.3527787999992,416.35264039999856,416.35264039999856,416.35264039999856,416.35264039999856,416.3373458999995,2,0.8619039000004705,0.18661950000023353,None,,,,,,,,,,,,,,,,,,,,,4660,1,2025-07-28_18h59.33.053,sm,2024.2.4,59.93978449234982,2025-07-28 18h59.53.397643 +0200,
13,0,13,,,,,,space,4.679738599999837,None,None,2,1.3846374999993714,0.18993220000083966,None,0,0,0,0,,,,,0,0,0,0,,,,,13,0,13,0,416.35264039999856,,,,,,,,,,,,,,,,,,,,,,,,,,,,,,,,,,,,,,,,,,,,,,,,,,,,,,,,,,Blatt,3.5446,416.33785519999947,416.3383690999999,416.3384744999985,416.35264039999856,419.9023165999988,419.8865587,419.88998249999895,419.9023165999988,419.9023165999988,419.9023165999988,419.9023165999988,421.90236769999865,421.90236769999865,421.90236769999865,421.90236769999865,421.8868430000002,2,1.3846374999993714,0.18993220000083966,None,,,,,,,,,,,,,,,,,,,,,4660,1,2025-07-28_18h59.33.053,sm,2024.2.4,59.93978449234982,2025-07-28 18h59.53.397643 +0200,
14,0,14,,,,,,space,4.679738599999837,None,None,3,1.3888153999996575,0.2761050000008254,None,0,0,0,0,,,,,0,0,0,0,,,,,14,0,14,0,421.90236769999865,,,,,,,,,,,,,,,,,,,,,,,,,,,,,,,,,,,,,,,,,,,,,,,,,,,,,,,,,,Schlamm,2.9149,421.88735049999923,421.8878704999988,421.88797519999935,421.90236769999865,424.81863059999887,424.80306070000006,424.8075885999988,424.81863059999887,424.81863059999887,424.81863059999887,424.81863059999887,426.8185943999997,426.8185943999997,426.8185943999997,426.8185943999997,426.8029846999998,3,1.3888153999996575,0.2761050000008254,None,,,,,,,,,,,,,,,,,,,,,4660,1,2025-07-28_18h59.33.053,sm,2024.2.4,59.93978449234982,2025-07-28 18h59.53.397643 +0200,
15,0,15,,,,,,space,4.679738599999837,None,None,3,1.0190738000001147,0.2652561999984755,None,0,0,0,0,,,,,0,0,0,0,,,,,15,0,15,0,426.8185943999997,,,,,,,,,,,,,,,,,,,,,,,,,,,,,,,,,,,,,,,,,,,,,,,,,,,,,,,,,,Rock,4.5088,426.80349939999905,426.80412400000023,426.8042338999985,426.8185943999997,431.3349598999994,431.3194508999986,431.3227345999985,431.3349598999994,431.3349598999994,431.3349598999994,431.3349598999994,433.3348987999998,433.3348987999998,433.3348987999998,433.3348987999998,433.31920159999936,3,1.0190738000001147,0.2652561999984755,None,,,,,,,,,,,,,,,,,,,,,4660,1,2025-07-28_18h59.33.053,sm,2024.2.4,59.93978449234982,2025-07-28 18h59.53.397643 +0200,
16,0,16,,,,,,space,4.679738599999837,None,None,2,0.9146723000012571,0.20346380000046338,None,0,0,0,0,,,,,0,0,0,0,,,,,16,0,16,0,433.3348987999998,,,,,,,,,,,,,,,,,,,,,,,,,,,,,,,,,,,,,,,,,,,,,,,,,,,,,,,,,,Sport,3.0293,433.3196905999994,433.3203451999998,433.3204544,433.3348987999998,436.36794389999886,436.35223439999936,436.355732,436.36794389999886,436.36794389999886,436.36794389999886,436.36794389999886,438.3681627999995,438.3681627999995,438.3681627999995,438.3681627999995,438.35259509999923,2,0.9146723000012571,0.20346380000046338,None,,,,,,,,,,,,,,,,,,,,,4660,1,2025-07-28_18h59.33.053,sm,2024.2.4,59.93978449234982,2025-07-28 18h59.53.397643 +0200,
17,0,17,,,,,,space,4.679738599999837,None,None,2,1.262499000000389,0.18946539999888046,None,0,0,0,0,,,,,0,0,0,0,,,,,17,0,17,0,438.3681627999995,,,,,,,,,,,,,,,,,,,,,,,,,,,,,,,,,,,,,,,,,,,,,,,,,,,,,,,,,,Geschichte,2.3642,438.3531046999997,438.35360729999957,438.35371249999844,438.3681627999995,440.7340878999985,440.71867629999906,440.72271439999895,440.7340878999985,440.7340878999985,440.7340878999985,440.7340878999985,442.734543999999,442.734543999999,442.734543999999,442.734543999999,442.7188169000001,2,1.262499000000389,0.18946539999888046,None,,,,,,,,,,,,,,,,,,,,,4660,1,2025-07-28_18h59.33.053,sm,2024.2.4,59.93978449234982,2025-07-28 18h59.53.397643 +0200,
18,0,18,,,,,,space,4.679738599999837,None,None,3,1.0495998000005784,0.285276900000099,None,0,0,0,0,,,,,0,0,0,0,,,,,18,0,18,0,442.734543999999,,,,,,,,,,,,,,,,,,,,,,,,,,,,,,,,,,,,,,,,,,,,,,,,,,,,,,,,,,Lernen,2.0617,442.7193282999997,442.71983029999865,442.7199376999997,442.734543999999,444.8009241999989,444.7854669999997,444.7895295999988,444.8009241999989,444.8009241999989,444.8009241999989,444.8009241999989,446.80093059999854,446.80093059999854,446.80093059999854,446.80093059999854,446.7854900000002,3,1.0495998000005784,0.285276900000099,None,,,,,,,,,,,,,,,,,,,,,4660,1,2025-07-28_18h59.33.053,sm,2024.2.4,59.93978449234982,2025-07-28 18h59.53.397643 +0200,
19,0,19,,,,,,space,4.679738599999837,None,None,3,1.0247258999988844,0.24002410000139207,None,0,0,0,0,,,,,0,0,0,0,,,,,19,0,19,0,446.80093059999854,,,,,,,,,,,,,,,,,,,,,,,,,,,,,,,,,,,,,,,,,,,,,,,,,,,,,,,,,,Beutel,2.0099,446.78599810000014,446.7866527999995,446.78676319999977,446.80093059999854,448.8173279999992,448.8014631999995,448.8049291999996,448.8173279999992,448.8173279999992,448.8173279999992,448.8173279999992,450.8173902999988,450.8173902999988,450.8173902999988,450.8173902999988,450.8019244999996,3,1.0247258999988844,0.24002410000139207,None,,,,,,,,,,,,,,,,,,,,,4660,1,2025-07-28_18h59.33.053,sm,2024.2.4,59.93978449234982,2025-07-28 18h59.53.397643 +0200,
20,0,20,,,,,,space,4.679738599999837,None,None,3,1.163223300000027,0.21505969999998342,None,0,0,0,0,,,,,0,0,0,0,,,,,20,0,20,0,450.8173902999988,,,,,,,,,,,,,,,,,,,,,,,,,,,,,,,,,,,,,,,,,,,,,,,,,,,,,,,,,,Ball,5.9832,450.80243100000007,450.8029701999985,450.8030732999996,450.8173902999988,456.8002661999999,456.78445420000025,456.78750129999935,456.8002661999999,456.8002661999999,456.8002661999999,456.8002661999999,458.80000440000003,458.80000440000003,458.80000440000003,458.80000440000003,458.7845946999987,3,1.163223300000027,0.21505969999998342,None,,,,,,,,,,,,,,,,,,,,,4660,1,2025-07-28_18h59.33.053,sm,2024.2.4,59.93978449234982,2025-07-28 18h59.53.397643 +0200,
21,0,21,,,,,,space,4.679738599999837,None,None,3,1.305111699999543,0.22698530000161554,None,0,0,0,0,,,,,0,0,0,0,,,,,21,0,21,0,458.80000440000003,,,,,,,,,,,,,,,,,,,,,,,,,,,,,,,,,,,,,,,,,,,,,,,,,,,,,,,,,,Krieg,2.5182,458.7851011999992,458.7857404999995,458.78584769999907,458.80000440000003,461.333252299999,461.31814739999936,461.3229937999986,461.333252299999,461.333252299999,461.333252299999,461.333252299999,463.33340659999885,463.33340659999885,463.33340659999885,463.33340659999885,463.3177469000002,3,1.305111699999543,0.22698530000161554,None,,,,,,,,,,,,,,,,,,,,,4660,1,2025-07-28_18h59.33.053,sm,2024.2.4,59.93978449234982,2025-07-28 18h59.53.397643 +0200,
22,0,22,,,,,,space,4.679738599999837,None,None,3,1.4397190999989107,0.24019090000001597,None,0,0,0,0,,,,,0,0,0,0,,,,,22,0,22,0,463.33340659999885,,,,,,,,,,,,,,,,,,,,,,,,,,,,,,,,,,,,,,,,,,,,,,,,,,,,,,,,,,Trennung,3.0341,463.3182485999987,463.31879089999893,463.3188969999992,463.33340659999885,466.3660497000001,466.3508641999997,466.3550469999991,466.3660497000001,466.3660497000001,466.3660497000001,466.3660497000001,468.3662233999985,468.3662233999985,468.3662233999985,468.3662233999985,468.35057919999963,3,1.4397190999989107,0.24019090000001597,None,,,,,,,,,,,,,,,,,,,,,4660,1,2025-07-28_18h59.33.053,sm,2024.2.4,59.93978449234982,2025-07-28 18h59.53.397643 +0200,
23,0,23,,,,,,space,4.679738599999837,None,None,3,0.9559829000008904,0.23337519999950018,None,0,0,0,0,,,,,0,0,0,0,,,,,23,0,23,0,468.3662233999985,,,,,,,,,,,,,,,,,,,,,,,,,,,,,,,,,,,,,,,,,,,,,,,,,,,,,,,,,,Brief,2.104,468.3510869999991,468.35161419999895,468.35171999999875,468.3662233999985,470.4829589000001,470.46716689999994,470.47053159999996,470.4829589000001,470.4829589000001,470.4829589000001,470.4829589000001,472.4827934999994,472.4827934999994,472.4827934999994,472.4827934999994,472.46732150000025,3,0.9559829000008904,0.23337519999950018,None,,,,,,,,,,,,,,,,,,,,,4660,1,2025-07-28_18h59.33.053,sm,2024.2.4,59.93978449234982,2025-07-28 18h59.53.397643 +0200,
24,0,24,,,,,,space,4.679738599999837,None,None,3,0.8828856999989512,0.21422619999975723,None,0,0,0,0,,,,,0,0,0,0,,,,,24,0,24,0,472.4827934999994,,,,,,,,,,,,,,,,,,,,,,,,,,,,,,,,,,,,,,,,,,,,,,,,,,,,,,,,,,Platz,4.8291,472.4678299999996,472.46834320000016,472.46844789999886,472.4827934999994,477.3156713999997,477.3002311,477.3062560999988,477.3156713999997,477.3156713999997,477.3156713999997,477.3156713999997,479.31624199999897,479.31624199999897,479.31624199999897,479.31624199999897,479.2999788999987,3,0.8828856999989512,0.21422619999975723,None,,,,,,,,,,,,,,,,,,,,,4660,1,2025-07-28_18h59.33.053,sm,2024.2.4,59.93978449234982,2025-07-28 18h59.53.397643 +0200,
25,0,25,,,,,,space,4.679738599999837,None,None,3,0.943392600000152,0.2300187000000733,None,0,0,0,0,,,,,0,0,0,0,,,,,25,0,25,0,479.31624199999897,,,,,,,,,,,,,,,,,,,,,,,,,,,,,,,,,,,,,,,,,,,,,,,,,,,,,,,,,,Zimmer,3.139,479.3004850999987,479.30112779999945,479.30123379999895,479.31624199999897,482.46529349999946,482.44971949999854,482.45290289999866,482.46529349999946,482.46529349999946,482.46529349999946,482.46529349999946,484.4653638999989,484.4653638999989,484.4653638999989,484.4653638999989,484.4497209000001,3,0.943392600000152,0.2300187000000733,None,,,,,,,,,,,,,,,,,,,,,4660,1,2025-07-28_18h59.33.053,sm,2024.2.4,59.93978449234982,2025-07-28 18h59.53.397643 +0200,
26,0,26,,,,,,space,4.679738599999837,None,None,2,1.0952149000004283,0.19288849999975355,None,0,0,0,0,,,,,0,0,0,0,,,,,26,0,26,0,484.4653638999989,,,,,,,,,,,,,,,,,,,,,,,,,,,,,,,,,,,,,,,,,,,,,,,,,,,,,,,,,,Fliegen,2.1697,484.4502381000002,484.45087989999956,484.45098789999975,484.4653638999989,486.6486453999987,486.6329141999995,486.63788849999946,486.6486453999987,486.6486453999987,486.6486453999987,486.6486453999987,488.64863270000023,488.64863270000023,488.64863270000023,488.64863270000023,488.63296009999976,2,1.0952149000004283,0.19288849999975355,None,,,,,,,,,,,,,,,,,,,,,4660,1,2025-07-28_18h59.33.053,sm,2024.2.4,59.93978449234982,2025-07-28 18h59.53.397643 +0200,
27,0,27,,,,,,space,4.679738599999837,None,None,3,1.305128899999545,0.21743010000136564,None,0,0,0,0,,,,,0,0,0,0,,,,,27,0,27,0,488.64863270000023,,,,,,,,,,,,,,,,,,,,,,,,,,,,,,,,,,,,,,,,,,,,,,,,,,,,,,,,,,Nebel,2.1686,488.63346060000003,488.6340344,488.6341391999995,488.64863270000023,490.8324331999993,490.81629149999935,490.82110829999874,490.8324331999993,490.8324331999993,490.8324331999993,490.8324331999993,492.83199409999906,492.83199409999906,492.83199409999906,492.83199409999906,492.81623729999956,3,1.305128899999545,0.21743010000136564,None,,,,,,,,,,,,,,,,,,,,,4660,1,2025-07-28_18h59.33.053,sm,2024.2.4,59.93978449234982,2025-07-28 18h59.53.397643 +0200,
28,0,28,,,,,,space,4.679738599999837,None,None,2,1.3742727999997442,0.19072079999932612,None,0,0,0,0,,,,,0,0,0,0,,,,,28,0,28,0,492.83199409999906,,,,,,,,,,,,,,,,,,,,,,,,,,,,,,,,,,,,,,,,,,,,,,,,,,,,,,,,,,Applaus,2.2252,492.8167477999996,492.817387699999,492.81749149999996,492.83199409999906,495.06442499999866,495.04878370000006,495.0523205999998,495.06442499999866,495.06442499999866,495.06442499999866,495.06442499999866,497.0646276999996,497.0646276999996,497.0646276999996,497.0646276999996,497.04881209999985,2,1.3742727999997442,0.19072079999932612,None,,,,,,,,,,,,,,,,,,,,,4660,1,2025-07-28_18h59.33.053,sm,2024.2.4,59.93978449234982,2025-07-28 18h59.53.397643 +0200,
29,0,29,,,,,,space,4.679738599999837,None,None,3,0.8068669000003865,0.2260095999990881,None,0,0,0,0,,,,,0,0,0,0,,,,,29,0,29,0,497.0646276999996,,,,,,,,,,,,,,,,,,,,,,,,,,,,,,,,,,,,,,,,,,,,,,,,,,,,,,,,,,Gleis,2.2866,497.04924690000007,497.0497171999996,497.0498057999994,497.0646276999996,499.36446649999925,499.34902390000025,499.3531086999992,499.36446649999925,499.36446649999925,499.36446649999925,499.36446649999925,501.36441190000005,501.36441190000005,501.36441190000005,501.36441190000005,501.34897249999995,3,0.8068669000003865,0.2260095999990881,None,,,,,,,,,,,,,,,,,,,,,4660,1,2025-07-28_18h59.33.053,sm,2024.2.4,59.93978449234982,2025-07-28 18h59.53.397643 +0200,
30,0,30,,,,,,space,4.679738599999837,None,None,3,1.032071999999971,0.22778220000145666,None,0,0,0,0,,,,,0,0,0,0,,,,,30,0,30,0,501.36441190000005,,,,,,,,,,,,,,,,,,,,,,,,,,,,,,,,,,,,,,,,,,,,,,,,,,,,,,,,,,Diamant,4.6881,501.3494856999987,501.3499880999989,501.3500942999999,501.36441190000005,506.06402459999845,506.0481968999993,506.0518945999993,506.06402459999845,506.06402459999845,506.06402459999845,506.06402459999845,508.064225099999,508.064225099999,508.064225099999,508.064225099999,508.04853919999914,3,1.032071999999971,0.22778220000145666,None,,,,,,,,,,,,,,,,,,,,,4660,1,2025-07-28_18h59.33.053,sm,2024.2.4,59.93978449234982,2025-07-28 18h59.53.397643 +0200,
31,0,31,,,,,,space,4.679738599999837,None,None,2,0.8049707999998645,0.19775750000007974,None,0,0,0,0,,,,,0,0,0,0,,,,,31,0,31,0,508.064225099999,,,,,,,,,,,,,,,,,,,,,,,,,,,,,,,,,,,,,,,,,,,,,,,,,,,,,,,,,,Atem,2.1885,508.0490312999991,508.0495230999986,508.04962929999965,508.064225099999,510.2636996000001,510.2485093999985,510.25202869999885,510.2636996000001,510.2636996000001,510.2636996000001,510.2636996000001,512.2638848999995,512.2638848999995,512.2638848999995,512.2638848999995,512.2485519999991,2,0.8049707999998645,0.19775750000007974,None,,,,,,,,,,,,,,,,,,,,,4660,1,2025-07-28_18h59.33.053,sm,2024.2.4,59.93978449234982,2025-07-28 18h59.53.397643 +0200,
32,0,32,,,,,,space,4.679738599999837,None,None,2,0.8372534999998607,0.19408479999947303,None,0,0,0,0,,,,,0,0,0,0,,,,,32,0,32,0,512.2638848999995,,,,,,,,,,,,,,,,,,,,,,,,,,,,,,,,,,,,,,,,,,,,,,,,,,,,,,,,,,Professor,2.2138,512.2490044999995,512.2494807999992,512.2495746999994,512.2638848999995,514.4803161,514.4649081999996,514.4691998999988,514.4803161,514.4803161,514.4803161,514.4803161,516.480125,516.480125,516.480125,516.480125,516.4646090999995,2,0.8372534999998607,0.19408479999947303,None,,,,,,,,,,,,,,,,,,,,,4660,1,2025-07-28_18h59.33.053,sm,2024.2.4,59.93978449234982,2025-07-28 18h59.53.397643 +0200,
33,0,33,,,,,,space,4.679738599999837,None,None,3,0.6970993999984785,0.2483120000015333,None,0,0,0,0,,,,,0,0,0,0,,,,,33,0,33,0,516.480125,,,,,,,,,,,,,,,,,,,,,,,,,,,,,,,,,,,,,,,,,,,,,,,,,,,,,,,,,,Büro,3.297,516.4651237999988,516.4657647999993,516.4658696999995,516.480125,519.7801485999989,519.7644351999988,519.7680248999986,519.7801485999989,519.7801485999989,519.7801485999989,519.7801485999989,521.7801903,521.7801903,521.7801903,521.7801903,521.7645163999987,3,0.6970993999984785,0.2483120000015333,None,,,,,,,,,,,,,,,,,,,,,4660,1,2025-07-28_18h59.33.053,sm,2024.2.4,59.93978449234982,2025-07-28 18h59.53.397643 +0200,
34,0,34,,,,,,space,4.679738599999837,None,None,3,0.8341620999999577,0.21050020000075165,None,0,0,0,0,,,,,0,0,0,0,,,,,34,0,34,0,521.7801903,,,,,,,,,,,,,,,,,,,,,,,,,,,,,,,,,,,,,,,,,,,,,,,,,,,,,,,,,,Gel,3.3797,521.7650562999988,521.7655507999989,521.7656568999992,521.7801903,525.1628927999991,525.1473909999986,525.1510418999987,525.1628927999991,525.1628927999991,525.1628927999991,525.1628927999991,527.1630779999996,527.1630779999996,527.1630779999996,527.1630779999996,527.1473620999986,3,0.8341620999999577,0.21050020000075165,None,,,,,,,,,,,,,,,,,,,,,4660,1,2025-07-28_18h59.33.053,sm,2024.2.4,59.93978449234982,2025-07-28 18h59.53.397643 +0200,
35,0,35,,,,,,space,4.679738599999837,None,None,3,0.7703946999990876,0.23060650000115857,None,0,0,0,0,,,,,0,0,0,0,,,,,35,0,35,0,527.1630779999996,,,,,,,,,,,,,,,,,,,,,,,,,,,,,,,,,,,,,,,,,,,,,,,,,,,,,,,,,,Tür,2.2644,527.1478726999994,527.1484094999996,527.1485163999987,527.1630779999996,529.4292315999992,529.4136468999986,529.4164775999998,529.4292315999992,529.4292315999992,529.4292315999992,529.4292315999992,531.4293385000001,531.4293385000001,531.4293385000001,531.4293385000001,531.4140591999985,3,0.7703946999990876,0.23060650000115857,None,,,,,,,,,,,,,,,,,,,,,4660,1,2025-07-28_18h59.33.053,sm,2024.2.4,59.93978449234982,2025-07-28 18h59.53.397643 +0200,
36,0,36,,,,,,space,4.679738599999837,None,None,3,1.047588800000085,0.2202352999993309,None,0,0,0,0,,,,,0,0,0,0,,,,,36,0,36,0,531.4293385000001,,,,,,,,,,,,,,,,,,,,,,,,,,,,,,,,,,,,,,,,,,,,,,,,,,,,,,,,,,Film,2.0456,531.4145768999988,531.4150734999985,531.4151791999993,531.4293385000001,533.4791820999999,533.4637270999992,533.4674356999985,533.4791820999999,533.4791820999999,533.4791820999999,533.4791820999999,535.4791577999986,535.4791577999986,535.4791577999986,535.4791577999986,535.4635610999994,3,1.047588800000085,0.2202352999993309,None,,,,,,,,,,,,,,,,,,,,,4660,1,2025-07-28_18h59.33.053,sm,2024.2.4,59.93978449234982,2025-07-28 18h59.53.397643 +0200,
37,0,37,,,,,,space,4.679738599999837,None,None,2,0.8511467000007542,0.21644849999938742,None,0,0,0,0,,,,,0,0,0,0,,,,,37,0,37,0,535.4791577999986,,,,,,,,,,,,,,,,,,,,,,,,,,,,,,,,,,,,,,,,,,,,,,,,,,,,,,,,,,Monster,2.4185,535.4640657,535.4647850999991,535.4648940999996,535.4791577999986,537.9122571999997,537.8966757999988,537.9007502999993,537.9122571999997,537.9122571999997,537.9122571999997,537.9122571999997,539.912170399999,539.912170399999,539.912170399999,539.912170399999,539.896707599999,2,0.8511467000007542,0.21644849999938742,None,,,,,,,,,,,,,,,,,,,,,4660,1,2025-07-28_18h59.33.053,sm,2024.2.4,59.93978449234982,2025-07-28 18h59.53.397643 +0200,
38,0,38,,,,,,space,4.679738599999837,None,None,2,0.6522465999987617,0.21852680000120017,None,0,0,0,0,,,,,0,0,0,0,,,,,38,0,38,0,539.912170399999,,,,,,,,,,,,,,,,,,,,,,,,,,,,,,,,,,,,,,,,,,,,,,,,,,,,,,,,,,Kunde,3.9103,539.8971848000001,539.8978522999987,539.8979537999985,539.912170399999,543.8285356999986,543.8129317999992,543.8166102999985,543.8285356999986,543.8285356999986,543.8285356999986,543.8285356999986,545.8284810999994,545.8284810999994,545.8284810999994,545.8284810999994,545.8135015999997,2,0.6522465999987617,0.21852680000120017,None,,,,,,,,,,,,,,,,,,,,,4660,1,2025-07-28_18h59.33.053,sm,2024.2.4,59.93978449234982,2025-07-28 18h59.53.397643 +0200,
39,0,39,,,,,,space,4.679738599999837,None,None,3,0.7506964000003791,0.21948949999932665,None,0,0,0,0,,,,,0,0,0,0,,,,,39,0,39,0,545.8284810999994,,,,,,,,,,,,,,,,,,,,,,,,,,,,,,,,,,,,,,,,,,,,,,,,,,,,,,,,,,Hügel,2.4674,545.814014399999,545.8145200999988,545.8146261000002,545.8284810999994,548.2946295000002,548.2794123999993,548.2849356999996,548.2946295000002,548.2946295000002,548.2946295000002,548.2946295000002,550.2949673999992,550.2949673999992,550.2949673999992,550.2949673999992,550.2795337999996,3,0.7506964000003791,0.21948949999932665,None,,,,,,,,,,,,,,,,,,,,,4660,1,2025-07-28_18h59.33.053,sm,2024.2.4,59.93978449234982,2025-07-28 18h59.53.397643 +0200,
40,0,40,,,,,,space,4.679738599999837,None,None,3,0.8929878999988432,0.26726810000036494,None,0,0,0,0,,,,,0,0,0,0,,,,,40,0,40,0,550.2949673999992,,,,,,,,,,,,,,,,,,,,,,,,,,,,,,,,,,,,,,,,,,,,,,,,,,,,,,,,,,Foto,2.2918,550.2800455999986,550.2805551999991,550.2806686999993,550.2949673999992,552.5948114999992,552.5790300999997,552.5820112000001,552.5948114999992,552.5948114999992,552.5948114999992,552.5948114999992,554.5947158999988,554.5947158999988,554.5947158999988,554.5947158999988,554.579263399999,3,0.8929878999988432,0.26726810000036494,None,,,,,,,,,,,,,,,,,,,,,4660,1,2025-07-28_18h59.33.053,sm,2024.2.4,59.93978449234982,2025-07-28 18h59.53.397643 +0200,
41,0,41,,,,,,space,4.679738599999837,None,None,2,1.44749419999971,0.20548760000019684,None,0,0,0,0,,,,,0,0,0,0,,,,,41,0,41,0,554.5947158999988,,,,,,,,,,,,,,,,,,,,,,,,,,,,,,,,,,,,,,,,,,,,,,,,,,,,,,,,,,Vers,2.1206,554.5797656999985,554.5804107999993,554.5805185999998,554.5947158999988,556.7272352999989,556.7118393000001,556.7166751999994,556.7272352999989,556.7272352999989,556.7272352999989,556.7272352999989,558.7283153999997,558.7283153999997,558.7283153999997,558.7283153999997,558.7119948999989,2,1.44749419999971,0.20548760000019684,None,,,,,,,,,,,,,,,,,,,,,4660,1,2025-07-28_18h59.33.053,sm,2024.2.4,59.93978449234982,2025-07-28 18h59.53.397643 +0200,
42,0,42,,,,,,space,4.679738599999837,None,None,2,0.6670279999998456,0.18359919999966223,None,0,0,0,0,,,,,0,0,0,0,,,,,42,0,42,0,558.7283153999997,,,,,,,,,,,,,,,,,,,,,,,,,,,,,,,,,,,,,,,,,,,,,,,,,,,,,,,,,,Geschwister,2.6937,558.712470299999,558.7130386999997,558.7131379000002,558.7283153999997,561.4276820999985,561.4120421999996,561.4166076000001,561.4276820999985,561.4276820999985,561.4276820999985,561.4276820999985,563.4276682,563.4276682,563.4276682,563.4276682,563.4120170999995,2,0.6670279999998456,0.18359919999966223,None,,,,,,,,,,,,,,,,,,,,,4660,1,2025-07-28_18h59.33.053,sm,2024.2.4,59.93978449234982,2025-07-28 18h59.53.397643 +0200,
43,0,43,,,,,,space,4.679738599999837,None,None,3,1.186006500000076,0.249270999998771,None,0,0,0,0,,,,,0,0,0,0,,,,,43,0,43,0,563.4276682,,,,,,,,,,,,,,,,,,,,,,,,,,,,,,,,,,,,,,,,,,,,,,,,,,,,,,,,,,Telefon,2.3363,563.4124914999993,563.4130114999989,563.4131113999993,563.4276682,565.7773994999989,565.7615716,565.7649925999995,565.7773994999989,565.7773994999989,565.7773994999989,565.7773994999989,567.7771456999999,567.7771456999999,567.7771456999999,567.7771456999999,567.7617862999996,3,1.186006500000076,0.249270999998771,None,,,,,,,,,,,,,,,,,,,,,4660,1,2025-07-28_18h59.33.053,sm,2024.2.4,59.93978449234982,2025-07-28 18h59.53.397643 +0200,
44,0,44,,,,,,space,4.679738599999837,None,None,2,0.7976931000011973,0.21911009999894304,None,0,0,0,0,,,,,0,0,0,0,,,,,44,0,44,0,567.7771456999999,,,,,,,,,,,,,,,,,,,,,,,,,,,,,,,,,,,,,,,,,,,,,,,,,,,,,,,,,,Haare,2.0291,567.7622628999998,567.7628057999991,567.7628996999993,567.7771456999999,569.8114057000003,569.7948476000001,569.7988893999991,569.8114057000003,569.8114057000003,569.8114057000003,569.8114057000003,571.8105066999997,571.8105066999997,571.8105066999997,571.8105066999997,571.7948115999989,2,0.7976931000011973,0.21911009999894304,None,,,,,,,,,,,,,,,,,,,,,4660,1,2025-07-28_18h59.33.053,sm,2024.2.4,59.93978449234982,2025-07-28 18h59.53.397643 +0200,
45,0,45,,,,,,space,4.679738599999837,None,None,3,1.0728775000006863,0.227247199998601,None,0,0,0,0,,,,,0,0,0,0,,,,,45,0,45,0,571.8105066999997,,,,,,,,,,,,,,,,,,,,,,,,,,,,,,,,,,,,,,,,,,,,,,,,,,,,,,,,,,Kaffee,3.0285,571.7953187999992,571.7959013,571.7960055999993,571.8105066999997,574.8434323999991,574.8277210999986,574.8307917000002,574.8434323999991,574.8434323999991,574.8434323999991,574.8434323999991,576.8435336000002,576.8435336000002,576.8435336000002,576.8435336000002,576.8277201000001,3,1.0728775000006863,0.227247199998601,None,,,,,,,,,,,,,,,,,,,,,4660,1,2025-07-28_18h59.33.053,sm,2024.2.4,59.93978449234982,2025-07-28 18h59.53.397643 +0200,
46,0,46,,,,,,space,4.679738599999837,None,None,2,1.0622106999999232,0.20310330000029353,None,0,0,0,0,,,,,0,0,0,0,,,,,46,0,46,0,576.8435336000002,,,,,,,,,,,,,,,,,,,,,,,,,,,,,,,,,,,,,,,,,,,,,,,,,,,,,,,,,,Weihnachten,3.5489,576.8282328999994,576.8287392000002,576.8288421999987,576.8435336000002,580.3933892999994,580.3773786000002,580.3807934999986,580.3933892999994,580.3933892999994,580.3933892999994,580.3933892999994,582.393150599999,582.393150599999,582.393150599999,582.393150599999,582.3775566999993,2,1.0622106999999232,0.20310330000029353,None,,,,,,,,,,,,,,,,,,,,,4660,1,2025-07-28_18h59.33.053,sm,2024.2.4,59.93978449234982,2025-07-28 18h59.53.397643 +0200,
47,0,47,,,,,,space,4.679738599999837,None,None,3,1.1705115999993723,0.21441349999986414,None,0,0,0,0,,,,,0,0,0,0,,,,,47,0,47,0,582.393150599999,,,,,,,,,,,,,,,,,,,,,,,,,,,,,,,,,,,,,,,,,,,,,,,,,,,,,,,,,,Saft,2.2399,582.3780650999997,582.3786442,582.3787529000001,582.393150599999,584.6429451999993,584.6276038999986,584.6311060999997,584.6429451999993,584.6429451999993,584.6429451999993,584.6429451999993,586.6432478999996,586.6432478999996,586.6432478999996,586.6432478999996,586.6272040999993,3,1.1705115999993723,0.21441349999986414,None,,,,,,,,,,,,,,,,,,,,,4660,1,2025-07-28_18h59.33.053,sm,2024.2.4,59.93978449234982,2025-07-28 18h59.53.397643 +0200,
48,0,48,,,,,,space,4.679738599999837,None,None,3,0.8094891999990068,0.22537890000057814,None,0,0,0,0,,,,,0,0,0,0,,,,,48,0,48,0,586.6432478999996,,,,,,,,,,,,,,,,,,,,,,,,,,,,,,,,,,,,,,,,,,,,,,,,,,,,,,,,,,Teleskop,4.7688,586.6276268000001,586.6281041999991,586.6281956000003,586.6432478999996,591.4266289999996,591.4101787999989,591.414197099999,591.4266289999996,591.4266289999996,591.4266289999996,591.4266289999996,593.4258388999988,593.4258388999988,593.4258388999988,593.4258388999988,593.4104441,3,0.8094891999990068,0.22537890000057814,None,,,,,,,,,,,,,,,,,,,,,4660,1,2025-07-28_18h59.33.053,sm,2024.2.4,59.93978449234982,2025-07-28 18h59.53.397643 +0200,
49,0,49,,,,,,space,4.679738599999837,None,None,3,1.2242944999998144,0.23294449999957578,None,0,0,0,0,,,,,0,0,0,0,,,,,49,0,49,0,593.4258388999988,,,,,,,,,,,,,,,,,,,,,,,,,,,,,,,,,,,,,,,,,,,,,,,,,,,,,,,,,,Sand,5.5336,593.4109530999995,593.4114594000002,593.4115653999997,593.4258388999988,598.958642399999,598.9431667999997,598.9465203999989,598.958642399999,598.958642399999,598.958642399999,598.958642399999,600.9587883999993,600.9587883999993,600.9587883999993,600.9587883999993,600.9433356999998,3,1.2242944999998144,0.23294449999957578,None,,,,,,,,,,,,,,,,,,,,,4660,1,2025-07-28_18h59.33.053,sm,2024.2.4,59.93978449234982,2025-07-28 18h59.53.397643 +0200,
50,0,50,,,,,,space,4.679738599999837,None,None,3,1.3396214000003965,0.20745499999975436,None,0,0,0,0,,,,,0,0,0,0,,,,,50,0,50,0,600.9587883999993,,,,,,,,,,,,,,,,,,,,,,,,,,,,,,,,,,,,,,,,,,,,,,,,,,,,,,,,,,Netz,2.0413,600.9438379999992,600.9446288999989,600.9447314999998,600.9587883999993,603.0086866000001,602.9930248000001,602.9966501999988,603.0086866000001,603.0086866000001,603.0086866000001,603.0086866000001,605.0089520000001,605.0089520000001,605.0089520000001,605.0089520000001,604.9930046999998,3,1.3396214000003965,0.20745499999975436,None,,,,,,,,,,,,,,,,,,,,,4660,1,2025-07-28_18h59.33.053,sm,2024.2.4,59.93978449234982,2025-07-28 18h59.53.397643 +0200,
51,0,51,,,,,,space,4.679738599999837,None,None,2,1.006684599999062,0.19674300000042422,None,0,0,0,0,,,,,0,0,0,0,,,,,51,0,51,0,605.0089520000001,,,,,,,,,,,,,,,,,,,,,,,,,,,,,,,,,,,,,,,,,,,,,,,,,,,,,,,,,,Ferien,2.9144,604.993522499999,604.9940482000002,604.9941543999994,605.0089520000001,607.9249024000001,607.9093104999993,607.9130515999987,607.9249024000001,607.9249024000001,607.9249024000001,607.9249024000001,609.9248984999995,609.9248984999995,609.9248984999995,609.9248984999995,609.9100414999994,2,1.006684599999062,0.19674300000042422,None,,,,,,,,,,,,,,,,,,,,,4660,1,2025-07-28_18h59.33.053,sm,2024.2.4,59.93978449234982,2025-07-28 18h59.53.397643 +0200,
52,0,52,,,,,,space,4.679738599999837,None,None,2,1.3304707000006601,0.19035900000017136,None,0,0,0,0,,,,,0,0,0,0,,,,,52,0,52,0,609.9248984999995,,,,,,,,,,,,,,,,,,,,,,,,,,,,,,,,,,,,,,,,,,,,,,,,,,,,,,,,,,Zeichnung,2.0905,609.9105552000001,609.9110618999985,609.9111653,609.9248984999995,612.0248132999986,612.0093512999993,612.0137684999991,612.0248132999986,612.0248132999986,612.0248132999986,612.0248132999986,614.0247732999997,614.0247732999997,614.0247732999997,614.0247732999997,614.0092233999985,2,1.3304707000006601,0.19035900000017136,None,,,,,,,,,,,,,,,,,,,,,4660,1,2025-07-28_18h59.33.053,sm,2024.2.4,59.93978449234982,2025-07-28 18h59.53.397643 +0200,
53,0,53,,,,,,space,4.679738599999837,None,None,2,0.7597692999988794,0.21082720000049449,None,0,0,0,0,,,,,0,0,0,0,,,,,53,0,53,0,614.0247732999997,,,,,,,,,,,,,,,,,,,,,,,,,,,,,,,,,,,,,,,,,,,,,,,,,,,,,,,,,,Geburtstag,2.1177,614.0099547999998,614.0106397999989,614.0107506999993,614.0247732999997,616.1578469999986,616.1421689999988,616.1465171,616.1578469999986,616.1578469999986,616.1578469999986,616.1578469999986,618.1578841999999,618.1578841999999,618.1578841999999,618.1578841999999,618.1424043999996,2,0.7597692999988794,0.21082720000049449,None,,,,,,,,,,,,,,,,,,,,,4660,1,2025-07-28_18h59.33.053,sm,2024.2.4,59.93978449234982,2025-07-28 18h59.53.397643 +0200,
54,0,54,,,,,,space,4.679738599999837,None,None,2,0.6833673000000999,0.20719959999951243,None,0,0,0,0,,,,,0,0,0,0,,,,,54,0,54,0,618.1578841999999,,,,,,,,,,,,,,,,,,,,,,,,,,,,,,,,,,,,,,,,,,,,,,,,,,,,,,,,,,Klempner,3.6185,618.1429114000002,618.1434149999986,618.1435205999987,618.1578841999999,621.7910973999988,621.7753643999986,621.7792571999998,621.7910973999988,621.7910973999988,621.7910973999988,621.7910973999988,623.7910803999985,623.7910803999985,623.7910803999985,623.7910803999985,623.775388099999,2,0.6833673000000999,0.20719959999951243,None,,,,,,,,,,,,,,,,,,,,,4660,1,2025-07-28_18h59.33.053,sm,2024.2.4,59.93978449234982,2025-07-28 18h59.53.397643 +0200,
55,0,55,,,,,,space,4.679738599999837,None,None,3,0.6863760999985971,0.2429786000011518,None,0,0,0,0,,,,,0,0,0,0,,,,,55,0,55,0,623.7910803999985,,,,,,,,,,,,,,,,,,,,,,,,,,,,,,,,,,,,,,,,,,,,,,,,,,,,,,,,,,Rasen,2.5145,623.775893,623.7766420999997,623.7767441999986,623.7910803999985,626.307181799999,626.2916206999998,626.2961077,626.307181799999,626.307181799999,626.307181799999,626.307181799999,628.3073294999995,628.3073294999995,628.3073294999995,628.3073294999995,628.2917829999988,3,0.6863760999985971,0.2429786000011518,None,,,,,,,,,,,,,,,,,,,,,4660,1,2025-07-28_18h59.33.053,sm,2024.2.4,59.93978449234982,2025-07-28 18h59.53.397643 +0200,
56,0,56,,,,,,space,4.679738599999837,None,None,3,0.805489000000307,0.20428999999967346,None,0,0,0,0,,,,,0,0,0,0,,,,,56,0,56,0,628.3073294999995,,,,,,,,,,,,,,,,,,,,,,,,,,,,,,,,,,,,,,,,,,,,,,,,,,,,,,,,,,Wanne,2.7245,628.2922294,628.2927075999996,628.2928006999991,628.3073294999995,631.0401133999985,631.0246209999987,631.0278327999986,631.0401133999985,631.0401133999985,631.0401133999985,631.0401133999985,633.0403948999992,633.0403948999992,633.0403948999992,633.0403948999992,633.0247234999988,3,0.805489000000307,0.20428999999967346,None,,,,,,,,,,,,,,,,,,,,,4660,1,2025-07-28_18h59.33.053,sm,2024.2.4,59.93978449234982,2025-07-28 18h59.53.397643 +0200,
57,0,57,,,,,,space,4.679738599999837,None,None,2,0.9490127000008215,0.1944192999999359,None,0,0,0,0,,,,,0,0,0,0,,,,,57,0,57,0,633.0403948999992,,,,,,,,,,,,,,,,,,,,,,,,,,,,,,,,,,,,,,,,,,,,,,,,,,,,,,,,,,Winter,3.0759,633.0252337000002,633.0258118999991,633.0259185999985,633.0403948999992,636.1231778000001,636.1077565999985,636.1116946999991,636.1231778000001,636.1231778000001,636.1231778000001,636.1231778000001,638.1236056999987,638.1236056999987,638.1236056999987,638.1236056999987,638.1077948000002,2,0.9490127000008215,0.1944192999999359,None,,,,,,,,,,,,,,,,,,,,,4660,1,2025-07-28_18h59.33.053,sm,2024.2.4,59.93978449234982,2025-07-28 18h59.53.397643 +0200,
58,0,58,,,,,,space,4.679738599999837,None,None,3,0.7742665999994642,0.24234819999946922,None,0,0,0,0,,,,,0,0,0,0,,,,,58,0,58,0,638.1236056999987,,,,,,,,,,,,,,,,,,,,,,,,,,,,,,,,,,,,,,,,,,,,,,,,,,,,,,,,,,Klippe,2.5364,638.1083057999986,638.1088159999999,638.1089253999999,638.1236056999987,640.6731795999985,640.6576311999997,640.6610844999996,640.6731795999985,640.6731795999985,640.6731795999985,640.6731795999985,642.6730864000001,642.6730864000001,642.6730864000001,642.6730864000001,642.6576108999998,3,0.7742665999994642,0.24234819999946922,None,,,,,,,,,,,,,,,,,,,,,4660,1,2025-07-28_18h59.33.053,sm,2024.2.4,59.93978449234982,2025-07-28 18h59.53.397643 +0200,
59,0,59,,,,,,space,4.679738599999837,None,None,2,0.8284282000004168,0.20546269999977085,None,0,0,0,0,,,,,0,0,0,0,,,,,59,0,59,0,642.6730864000001,,,,,,,,,,,,,,,,,,,,,,,,,,,,,,,,,,,,,,,,,,,,,,,,,,,,,,,,,,Gemüse,3.4527,642.6581216999984,642.6588824999999,642.6590372999999,642.6730864000001,646.1396218999998,646.1242462999999,646.1282632000002,646.1396218999998,646.1396218999998,646.1396218999998,646.1396218999998,648.1396562999998,648.1396562999998,648.1396562999998,648.1396562999998,648.1241088999996,2,0.8284282000004168,0.20546269999977085,None,,,,,,,,,,,,,,,,,,,,,4660,1,2025-07-28_18h59.33.053,sm,2024.2.4,59.93978449234982,2025-07-28 18h59.53.397643 +0200,
60,0,60,,,,,,space,4.679738599999837,None,None,2,1.1912295000001905,0.20209599999907368,None,0,0,0,0,,,,,0,0,0,0,,,,,60,0,60,0,648.1396562999998,,,,,,,,,,,,,,,,,,,,,,,,,,,,,,,,,,,,,,,,,,,,,,,,,,,,,,,,,,Wahrheit,3.2481,648.1246188999994,648.1251192999989,648.1252248000001,648.1396562999998,651.3892022,651.3736344999998,651.3777926000002,651.3892022,651.3892022,651.3892022,651.3892022,653.389613899999,653.389613899999,653.389613899999,653.389613899999,653.3737487999988,2,1.1912295000001905,0.20209599999907368,None,,,,,,,,,,,,,,,,,,,,,4660,1,2025-07-28_18h59.33.053,sm,2024.2.4,59.93978449234982,2025-07-28 18h59.53.397643 +0200,
61,0,61,,,,,,space,4.679738599999837,None,None,3,0.8818919000004826,0.23234559999946214,None,0,0,0,0,,,,,0,0,0,0,,,,,61,0,61,0,653.389613899999,,,,,,,,,,,,,,,,,,,,,,,,,,,,,,,,,,,,,,,,,,,,,,,,,,,,,,,,,,Teller,2.983,653.3742611999987,653.374886399999,653.3749889999999,653.389613899999,656.3720986999997,656.3565153999989,656.3598864999985,656.3720986999997,656.3720986999997,656.3720986999997,656.3720986999997,658.3725784999988,658.3725784999988,658.3725784999988,658.3725784999988,658.3571020999989,3,0.8818919000004826,0.23234559999946214,None,,,,,,,,,,,,,,,,,,,,,4660,1,2025-07-28_18h59.33.053,sm,2024.2.4,59.93978449234982,2025-07-28 18h59.53.397643 +0200,
62,0,62,,,,,,space,4.679738599999837,None,None,3,0.7283841000007669,0.23141369999939343,None,0,0,0,0,,,,,0,0,0,0,,,,,62,0,62,0,658.3725784999988,,,,,,,,,,,,,,,,,,,,,,,,,,,,,,,,,,,,,,,,,,,,,,,,,,,,,,,,,,Papier,2.2251,658.3575997999997,658.3581063000001,658.3582131999992,658.3725784999988,660.6053510999991,660.5898455999995,660.5947403999999,660.6053510999991,660.6053510999991,660.6053510999991,660.6053510999991,662.6058051,662.6058051,662.6058051,662.6058051,662.5898565999996,3,0.7283841000007669,0.23141369999939343,None,,,,,,,,,,,,,,,,,,,,,4660,1,2025-07-28_18h59.33.053,sm,2024.2.4,59.93978449234982,2025-07-28 18h59.53.397643 +0200,
63,0,63,,,,,,space,4.679738599999837,None,None,3,0.8500681999994413,0.259292099999584,None,0,0,0,0,,,,,0,0,0,0,,,,,63,0,63,0,662.6058051,,,,,,,,,,,,,,,,,,,,,,,,,,,,,,,,,,,,,,,,,,,,,,,,,,,,,,,,,,Helm,2.3946,662.5903621999987,662.5908960999986,662.5910007000002,662.6058051,665.0050858999984,664.9893726999999,664.9927269999989,665.0050858999984,665.0050858999984,665.0050858999984,665.0050858999984,667.0052658999994,667.0052658999994,667.0052658999994,667.0052658999994,666.9899831000002,3,0.8500681999994413,0.259292099999584,None,,,,,,,,,,,,,,,,,,,,,4660,1,2025-07-28_18h59.33.053,sm,2024.2.4,59.93978449234982,2025-07-28 18h59.53.397643 +0200,
64,0,64,,,,,,space,4.679738599999837,None,None,3,0.7208304000014323,0.212573999999222,None,0,0,0,0,,,,,0,0,0,0,,,,,64,0,64,0,667.0052658999994,,,,,,,,,,,,,,,,,,,,,,,,,,,,,,,,,,,,,,,,,,,,,,,,,,,,,,,,,,Brille,2.5034,666.9905017000001,666.9912746999998,666.991387099999,667.0052658999994,669.5213803999995,669.5058781999996,669.5099391999993,669.5213803999995,669.5213803999995,669.5213803999995,669.5213803999995,671.5214113999991,671.5214113999991,671.5214113999991,671.5214113999991,671.5059419999998,3,0.7208304000014323,0.212573999999222,None,,,,,,,,,,,,,,,,,,,,,4660,1,2025-07-28_18h59.33.053,sm,2024.2.4,59.93978449234982,2025-07-28 18h59.53.397643 +0200,
65,0,65,,,,,,space,4.679738599999837,None,None,2,0.7790681999995286,0.19582980000086536,None,0,0,0,0,,,,,0,0,0,0,,,,,65,0,65,0,671.5214113999991,,,,,,,,,,,,,,,,,,,,,,,,,,,,,,,,,,,,,,,,,,,,,,,,,,,,,,,,,,Afrika,2.253,671.5064567999998,671.5069570999985,671.5070645999986,671.5214113999991,673.7876956,673.7720910999997,673.7756402999985,673.7876956,673.7876956,673.7876956,673.7876956,675.7877677999986,675.7877677999986,675.7877677999986,675.7877677999986,675.7723841999996,2,0.7790681999995286,0.19582980000086536,None,,,,,,,,,,,,,,,,,,,,,4660,1,2025-07-28_18h59.33.053,sm,2024.2.4,59.93978449234982,2025-07-28 18h59.53.397643 +0200,
66,0,66,,,,,,space,4.679738599999837,None,None,2,0.7866770000000542,0.19953870000063034,None,0,0,0,0,,,,,0,0,0,0,,,,,66,0,66,0,675.7877677999986,,,,,,,,,,,,,,,,,,,,,,,,,,,,,,,,,,,,,,,,,,,,,,,,,,,,,,,,,,Sprache,3.8195,675.772890799999,675.7734039999996,675.7735089999987,675.7877677999986,679.6208408000002,679.6054680999987,679.6097426999986,679.6208408000002,679.6208408000002,679.6208408000002,679.6208408000002,681.6209005000001,681.6209005000001,681.6209005000001,681.6209005000001,681.6053651000002,2,0.7866770000000542,0.19953870000063034,None,,,,,,,,,,,,,,,,,,,,,4660,1,2025-07-28_18h59.33.053,sm,2024.2.4,59.93978449234982,2025-07-28 18h59.53.397643 +0200,
67,0,67,,,,,,space,4.679738599999837,None,None,2,0.9968903999997565,0.1848826999994344,None,0,0,0,0,,,,,0,0,0,0,,,,,67,0,67,0,681.6209005000001,,,,,,,,,,,,,,,,,,,,,,,,,,,,,,,,,,,,,,,,,,,,,,,,,,,,,,,,,,Knie,2.2942,681.605879499999,681.6063814999998,681.6064864999989,681.6209005000001,683.9205578000001,683.9051929999987,683.9084746999997,683.9205578000001,683.9205578000001,683.9205578000001,683.9205578000001,685.9206937999988,685.9206937999988,685.9206937999988,685.9206937999988,685.9050661000001,2,0.9968903999997565,0.1848826999994344,None,,,,,,,,,,,,,,,,,,,,,4660,1,2025-07-28_18h59.33.053,sm,2024.2.4,59.93978449234982,2025-07-28 18h59.53.397643 +0200,
68,0,68,,,,,,space,4.679738599999837,None,None,3,0.80652740000005,0.22737439999946218,None,0,0,0,0,,,,,0,0,0,0,,,,,68,0,68,0,685.9206937999988,,,,,,,,,,,,,,,,,,,,,,,,,,,,,,,,,,,,,,,,,,,,,,,,,,,,,,,,,,Anhänger,2.1867,685.9055644,685.9060653999986,685.9061735999985,685.9206937999988,688.1201313000001,688.1045254,688.1080813999997,688.1201313000001,688.1201313000001,688.1201313000001,688.1201313000001,690.1205746999985,690.1205746999985,690.1205746999985,690.1205746999985,690.1046874999993,3,0.80652740000005,0.22737439999946218,None,,,,,,,,,,,,,,,,,,,,,4660,1,2025-07-28_18h59.33.053,sm,2024.2.4,59.93978449234982,2025-07-28 18h59.53.397643 +0200,
69,0,69,,,,,,space,4.679738599999837,None,None,2,1.0382265000007465,0.19085509999968053,None,0,0,0,0,,,,,0,0,0,0,,,,,69,0,69,0,690.1205746999985,,,,,,,,,,,,,,,,,,,,,,,,,,,,,,,,,,,,,,,,,,,,,,,,,,,,,,,,,,Brise,2.2195,690.1051936999993,690.105701299999,690.1058040999997,690.1205746999985,692.3533122999997,692.3381390999984,692.3443869999992,692.3533122999997,692.3533122999997,692.3533122999997,692.3533122999997,694.3534469999995,694.3534469999995,694.3534469999995,694.3534469999995,694.3378159999993,2,1.0382265000007465,0.19085509999968053,None,,,,,,,,,,,,,,,,,,,,,4660,1,2025-07-28_18h59.33.053,sm,2024.2.4,59.93978449234982,2025-07-28 18h59.53.397643 +0200,
70,0,70,,,,,,space,4.679738599999837,None,None,2,1.0167411000002176,0.17459559999952035,None,0,0,0,0,,,,,0,0,0,0,,,,,70,0,70,0,694.3534469999995,,,,,,,,,,,,,,,,,,,,,,,,,,,,,,,,,,,,,,,,,,,,,,,,,,,,,,,,,,Gewürz,2.5485,694.3383267999998,694.3389872999996,694.339092799999,694.3534469999995,696.9031550999989,696.8877622,696.8920017,696.9031550999989,696.9031550999989,696.9031550999989,696.9031550999989,698.9032869999992,698.9032869999992,698.9032869999992,698.9032869999992,698.8877838999997,2,1.0167411000002176,0.17459559999952035,None,,,,,,,,,,,,,,,,,,,,,4660,1,2025-07-28_18h59.33.053,sm,2024.2.4,59.93978449234982,2025-07-28 18h59.53.397643 +0200,
71,0,71,,,,,,space,4.679738599999837,None,None,3,0.6502635000015289,0.2135467999996763,None,0,0,0,0,,,,,0,0,0,0,,,,,71,0,71,0,698.9032869999992,,,,,,,,,,,,,,,,,,,,,,,,,,,,,,,,,,,,,,,,,,,,,,,,,,,,,,,,,,Stein,2.3383,698.8882966000001,698.8889473999989,698.8890531999987,698.9032869999992,701.2530599000002,701.2373372000002,701.2410621999989,701.2530599000002,701.2530599000002,701.2530599000002,701.2530599000002,703.2531528,703.2531528,703.2531528,703.2531528,703.2375919999995,3,0.6502635000015289,0.2135467999996763,None,,,,,,,,,,,,,,,,,,,,,4660,1,2025-07-28_18h59.33.053,sm,2024.2.4,59.93978449234982,2025-07-28 18h59.53.397643 +0200,
72,0,72,,,,,,space,4.679738599999837,None,None,2,0.8531669000003603,0.19753029999992577,None,0,0,0,0,,,,,0,0,0,0,,,,,72,0,72,0,703.2531528,,,,,,,,,,,,,,,,,,,,,,,,,,,,,,,,,,,,,,,,,,,,,,,,,,,,,,,,,,Gruppe,4.1918,703.2381231999989,703.2387682999997,703.2389158999995,703.2531528,707.4525032000001,707.4371051999988,707.4406411999989,707.4525032000001,707.4525032000001,707.4525032000001,707.4525032000001,709.452680299999,709.452680299999,709.452680299999,709.452680299999,709.4372399999993,2,0.8531669000003603,0.19753029999992577,None,,,,,,,,,,,,,,,,,,,,,4660,1,2025-07-28_18h59.33.053,sm,2024.2.4,59.93978449234982,2025-07-28 18h59.53.397643 +0200,
73,0,73,,,,,,space,4.679738599999837,None,None,2,0.6612851000008959,0.19331880000027013,None,0,0,0,0,,,,,0,0,0,0,,,,,73,0,73,0,709.452680299999,,,,,,,,,,,,,,,,,,,,,,,,,,,,,,,,,,,,,,,,,,,,,,,,,,,,,,,,,,Spaß,3.074,709.437749499999,709.4383352999994,709.4384386999991,709.452680299999,712.5358627999994,712.5198153000001,712.5225389999996,712.5358627999994,712.5358627999994,712.5358627999994,712.5358627999994,714.5356441999993,714.5356441999993,714.5356441999993,714.5356441999993,714.5202754999991,2,0.6612851000008959,0.19331880000027013,None,,,,,,,,,,,,,,,,,,,,,4660,1,2025-07-28_18h59.33.053,sm,2024.2.4,59.93978449234982,2025-07-28 18h59.53.397643 +0200,
74,0,74,,,,,,space,4.679738599999837,None,None,2,1.4828919999999925,0.20583499999884225,None,0,0,0,0,,,,,0,0,0,0,,,,,74,0,74,0,714.5356441999993,,,,,,,,,,,,,,,,,,,,,,,,,,,,,,,,,,,,,,,,,,,,,,,,,,,,,,,,,,Pizza,2.202,714.5207937999985,714.5213422999987,714.5214484999997,714.5356441999993,716.7520691999998,716.7364476999992,716.7397893999987,716.7520691999998,716.7520691999998,716.7520691999998,716.7520691999998,718.7519936999997,718.7519936999997,718.7519936999997,718.7519936999997,718.7367190999994,2,1.4828919999999925,0.20583499999884225,None,,,,,,,,,,,,,,,,,,,,,4660,1,2025-07-28_18h59.33.053,sm,2024.2.4,59.93978449234982,2025-07-28 18h59.53.397643 +0200,
75,0,75,,,,,,space,4.679738599999837,None,None,2,1.380443699999887,0.20220639999934065,None,0,0,0,0,,,,,0,0,0,0,,,,,75,0,75,0,718.7519936999997,,,,,,,,,,,,,,,,,,,,,,,,,,,,,,,,,,,,,,,,,,,,,,,,,,,,,,,,,,Sendung,3.7438,718.7372250999997,718.7377305999998,718.7378379999991,718.7519936999997,722.5016295999994,722.4864044999995,722.4899107000001,722.5016295999994,722.5016295999994,722.5016295999994,722.5016295999994,724.5016634999993,724.5016634999993,724.5016634999993,724.5016634999993,724.4865762999998,2,1.380443699999887,0.20220639999934065,None,,,,,,,,,,,,,,,,,,,,,4660,1,2025-07-28_18h59.33.053,sm,2024.2.4,59.93978449234982,2025-07-28 18h59.53.397643 +0200,
76,0,76,,,,,,space,4.679738599999837,None,None,2,0.9653588999990461,0.20131360000050336,None,0,0,0,0,,,,,0,0,0,0,,,,,76,0,76,0,724.5016634999993,,,,,,,,,,,,,,,,,,,,,,,,,,,,,,,,,,,,,,,,,,,,,,,,,,,,,,,,,,Vulkan,3.0291,724.4870861999989,724.4877507000001,724.4878611999993,724.5016634999993,727.5349745999993,727.5199205999998,727.5248112999998,727.5349745999993,727.5349745999993,727.5349745999993,727.5349745999993,729.5349840999988,729.5349840999988,729.5349840999988,729.5349840999988,729.5193060999991,2,0.9653588999990461,0.20131360000050336,None,,,,,,,,,,,,,,,,,,,,,4660,1,2025-07-28_18h59.33.053,sm,2024.2.4,59.93978449234982,2025-07-28 18h59.53.397643 +0200,
77,0,77,,,,,,space,4.679738599999837,None,None,3,0.7212307999998302,0.2407653999998729,None,0,0,0,0,,,,,0,0,0,0,,,,,77,0,77,0,729.5349840999988,,,,,,,,,,,,,,,,,,,,,,,,,,,,,,,,,,,,,,,,,,,,,,,,,,,,,,,,,,Dachboden,3.7421,729.5198151999994,729.5203150999987,729.5204255999997,729.5349840999988,733.2843852999995,733.2687283999985,733.2726853999993,733.2843852999995,733.2843852999995,733.2843852999995,733.2843852999995,735.2845405999997,735.2845405999997,735.2845405999997,735.2845405999997,735.268983599999,3,0.7212307999998302,0.2407653999998729,None,,,,,,,,,,,,,,,,,,,,,4660,1,2025-07-28_18h59.33.053,sm,2024.2.4,59.93978449234982,2025-07-28 18h59.53.397643 +0200,
78,0,78,,,,,,space,4.679738599999837,None,None,3,1.056250400000863,0.19798049999917566,None,0,0,0,0,,,,,0,0,0,0,,,,,78,0,78,0,735.2845405999997,,,,,,,,,,,,,,,,,,,,,,,,,,,,,,,,,,,,,,,,,,,,,,,,,,,,,,,,,,Schleim,3.1168,735.269488599999,735.2701354000001,735.2702437999997,735.2845405999997,738.4016290999989,738.3852253999994,738.3894944999993,738.4016290999989,738.4016290999989,738.4016290999989,738.4016290999989,740.4010493999995,740.4010493999995,740.4010493999995,740.4010493999995,740.3857603999986,3,1.056250400000863,0.19798049999917566,None,,,,,,,,,,,,,,,,,,,,,4660,1,2025-07-28_18h59.33.053,sm,2024.2.4,59.93978449234982,2025-07-28 18h59.53.397643 +0200,
79,0,79,,,,,,space,4.679738599999837,None,None,2,0.8294138000001112,0.18410170000061044,None,0,0,0,0,,,,,0,0,0,0,,,,,79,0,79,0,740.4010493999995,,,,,,,,,,,,,,,,,,,,,,,,,,,,,,,,,,,,,,,,,,,,,,,,,,,,,,,,,,Hai,2.7228,740.386267599999,740.3868270999992,740.3869333000002,740.4010493999995,743.1340845999985,743.118258999999,743.1218504999997,743.1340845999985,743.1340845999985,743.1340845999985,743.1340845999985,745.1454608999993,745.1454608999993,745.1454608999993,745.1454608999993,745.1188086000002,2,0.8294138000001112,0.18410170000061044,None,,,,,,,,,,,,,,,,,,,,,4660,1,2025-07-28_18h59.33.053,sm,2024.2.4,59.93978449234982,2025-07-28 18h59.53.397643 +0200,
0,0,0,,,,,2.5819,space,1.8720330000014656,None,None,3,1.3839468999995006,0.213244599999598,None,0,0,0,0,,,,,1,0,1,0,0,79,79,37,0,0,0,0,793.0479368999986,,,,,,,,,,,,,,,,,,,,,,,,,,,,,,,,,,,,766.2469019,766.247148299999,766.2533838999989,766.2579301999995,766.2579301999995,768.134245199999,space,1.8720330000014656,None,768.1344109999991,768.1493830999989,768.1493830999989,781.0333609999998,None,781.0407651999994,781.0482849,781.0488187666654,782.2553425999995,791.0485684666658,792.0548424999997,793.0479368999986,793.0324669000001,Zähne,2.5819,793.0339404999995,793.0347701999999,793.0348844,793.0479368999986,795.631081399999,795.6159029999999,795.6198693999995,795.631081399999,795.631081399999,795.631081399999,795.631081399999,797.6309403999985,797.6309403999985,797.6309403999985,797.6309403999985,797.6156931999994,3,1.3839468999995006,0.213244599999598,None,757.1336223999988,757.1337030999985,None,757.1433430999987,757.1519018999988,761.1497603999996,761.1497603999996,761.1663243999992,766.2012060999987,3,5.034040700000332,None,,,,,,,,,4660,1,2025-07-28_18h59.33.053,sm,2024.2.4,59.93978449234982,2025-07-28 18h59.53.397643 +0200,
1,0,1,,,,,,space,1.8720330000014656,None,None,2,1.3294685000000754,0.19252760000017588,None,0,0,0,0,,,,,1,0,1,0,,,,,1,0,1,0,797.6309403999985,,,,,,,,,,,,,,,,,,,,,,,,,,,,,,,,,,,,,,,,,,,,,,,,,,,,,,,,,,Hilfe,4.7688,797.6162043999993,797.616849099999,797.6169534,797.6309403999985,802.4140256999999,802.3983945,802.4017152999986,802.4140256999999,802.4140256999999,802.4140256999999,802.4140256999999,804.4139618999998,804.4139618999998,804.4139618999998,804.4139618999998,804.3983450999986,2,1.3294685000000754,0.19252760000017588,None,,,,,,,,,,,,,,,,,,,,,4660,1,2025-07-28_18h59.33.053,sm,2024.2.4,59.93978449234982,2025-07-28 18h59.53.397643 +0200,
2,0,2,,,,,,space,1.8720330000014656,None,None,2,0.6549806000002718,0.20149420000052487,None,0,0,0,0,,,,,1,0,1,0,,,,,2,0,2,0,804.4139618999998,,,,,,,,,,,,,,,,,,,,,,,,,,,,,,,,,,,,,,,,,,,,,,,,,,,,,,,,,,Zunge,2.0617,804.3988598999986,804.3995071999998,804.3996172999996,804.4139618999998,806.4800243999998,806.4651385999987,806.4693054999989,806.4800243999998,806.4800243999998,806.4800243999998,806.4800243999998,808.4803855999999,808.4803855999999,808.4803855999999,808.4803855999999,808.4647029999996,2,0.6549806000002718,0.20149420000052487,None,,,,,,,,,,,,,,,,,,,,,4660,1,2025-07-28_18h59.33.053,sm,2024.2.4,59.93978449234982,2025-07-28 18h59.53.397643 +0200,
3,0,3,,,,,,space,1.8720330000014656,None,None,2,0.688124099999186,0.18444210000052408,None,0,0,0,0,,,,,1,0,1,0,,,,,3,0,3,0,808.4803855999999,,,,,,,,,,,,,,,,,,,,,,,,,,,,,,,,,,,,,,,,,,,,,,,,,,,,,,,,,,Elephant,4.5551,808.4652108999999,808.4657701999986,808.4658779999991,808.4803855999999,813.0468093999989,813.0312176999996,813.0355893999986,813.0468093999989,813.0468093999989,813.0468093999989,813.0468093999989,815.0470836999993,815.0470836999993,815.0470836999993,815.0470836999993,815.0310801999985,2,0.688124099999186,0.18444210000052408,None,,,,,,,,,,,,,,,,,,,,,4660,1,2025-07-28_18h59.33.053,sm,2024.2.4,59.93978449234982,2025-07-28 18h59.53.397643 +0200,
4,0,4,,,,,,space,1.8720330000014656,None,None,3,1.2194921000009344,0.204442399999607,None,0,0,0,0,,,,,1,0,1,0,,,,,4,0,4,0,815.0470836999993,,,,,,,,,,,,,,,,,,,,,,,,,,,,,,,,,,,,,,,,,,,,,,,,,,,,,,,,,,Postkarte,2.1885,815.0315873999989,815.0320912999996,815.0321964999985,815.0470836999993,817.2466432000001,817.2311618999993,817.2351764999985,817.2466432000001,817.2466432000001,817.2466432000001,817.2466432000001,819.2463680000001,819.2463680000001,819.2463680000001,819.2463680000001,819.2309380999995,3,1.2194921000009344,0.204442399999607,None,,,,,,,,,,,,,,,,,,,,,4660,1,2025-07-28_18h59.33.053,sm,2024.2.4,59.93978449234982,2025-07-28 18h59.53.397643 +0200,
5,0,5,,,,,,space,1.8720330000014656,None,None,2,0.6947928000008687,0.19750719999865396,None,0,0,0,0,,,,,1,0,1,0,,,,,5,0,5,0,819.2463680000001,,,,,,,,,,,,,,,,,,,,,,,,,,,,,,,,,,,,,,,,,,,,,,,,,,,,,,,,,,Familie,3.8195,819.2314418999995,819.2320147999999,819.2321217999997,819.2463680000001,823.0799411999997,823.0636569999988,823.0673584999986,823.0799411999997,823.0799411999997,823.0799411999997,823.0799411999997,825.0795695999986,825.0795695999986,825.0795695999986,825.0795695999986,825.0642227999997,2,0.6947928000008687,0.19750719999865396,None,,,,,,,,,,,,,,,,,,,,,4660,1,2025-07-28_18h59.33.053,sm,2024.2.4,59.93978449234982,2025-07-28 18h59.53.397643 +0200,
6,0,6,,,,,,space,1.8720330000014656,None,None,2,0.6693859999995766,0.19455249999919033,None,0,0,0,0,,,,,1,0,1,0,,,,,6,0,6,0,825.0795695999986,,,,,,,,,,,,,,,,,,,,,,,,,,,,,,,,,,,,,,,,,,,,,,,,,,,,,,,,,,Gespräch,3.7421,825.0648003999995,825.0653471999995,825.0654563999997,825.0795695999986,828.8290558999997,828.8134484999991,828.8173790000001,828.8290558999997,828.8290558999997,828.8290558999997,828.8290558999997,830.8296187999986,830.8296187999986,830.8296187999986,830.8296187999986,830.8136293999996,2,0.6693859999995766,0.19455249999919033,None,,,,,,,,,,,,,,,,,,,,,4660,1,2025-07-28_18h59.33.053,sm,2024.2.4,59.93978449234982,2025-07-28 18h59.53.397643 +0200,
7,0,7,,,,,,space,1.8720330000014656,None,None,2,0.64865699999973,0.19840410000142583,None,0,0,0,0,,,,,1,0,1,0,,,,,7,0,7,0,830.8296187999986,,,,,,,,,,,,,,,,,,,,,,,,,,,,,,,,,,,,,,,,,,,,,,,,,,,,,,,,,,Koch,2.104,830.8141452,830.8146729,830.8147768999988,830.8296187999986,832.9456207999992,832.9305257999986,832.9342277999986,832.9456207999992,832.9456207999992,832.9456207999992,832.9456207999992,834.9454898999993,834.9454898999993,834.9454898999993,834.9454898999993,834.930005799999,2,0.64865699999973,0.19840410000142583,None,,,,,,,,,,,,,,,,,,,,,4660,1,2025-07-28_18h59.33.053,sm,2024.2.4,59.93978449234982,2025-07-28 18h59.53.397643 +0200,
8,0,8,,,,,,space,1.8720330000014656,None,None,3,0.8504719000011391,0.19488879999880737,None,0,0,0,0,,,,,1,0,1,0,,,,,8,0,8,0,834.9454898999993,,,,,,,,,,,,,,,,,,,,,,,,,,,,,,,,,,,,,,,,,,,,,,,,,,,,,,,,,,Zug,4.6881,834.9305168999999,834.9311574999992,834.931260899999,834.9454898999993,839.6451686,839.6294287000001,839.6324724999995,839.6451686,839.6451686,839.6451686,839.6451686,841.6453071999986,841.6453071999986,841.6453071999986,841.6453071999986,841.629608199999,3,0.8504719000011391,0.19488879999880737,None,,,,,,,,,,,,,,,,,,,,,4660,1,2025-07-28_18h59.33.053,sm,2024.2.4,59.93978449234982,2025-07-28 18h59.53.397643 +0200,
9,0,9,,,,,,space,1.8720330000014656,None,None,3,0.6611821000005875,0.19333609999921464,None,0,0,0,0,,,,,1,0,1,0,,,,,9,0,9,0,841.6453071999986,,,,,,,,,,,,,,,,,,,,,,,,,,,,,,,,,,,,,,,,,,,,,,,,,,,,,,,,,,Zucker,2.1206,841.6301125999998,841.6306319999985,841.6307397,841.6453071999986,843.7783012,843.7637180000002,843.7680301,843.7783012,843.7783012,843.7783012,843.7783012,845.7787915999997,845.7787915999997,845.7787915999997,845.7787915999997,845.7626018999999,3,0.6611821000005875,0.19333609999921464,None,,,,,,,,,,,,,,,,,,,,,4660,1,2025-07-28_18h59.33.053,sm,2024.2.4,59.93978449234982,2025-07-28 18h59.53.397643 +0200,
10,0,10,,,,,,space,1.8720330000014656,None,None,3,0.91530210000019,0.17982819999997446,None,0,0,0,0,,,,,1,0,1,0,,,,,10,0,10,0,845.7787915999997,,,,,,,,,,,,,,,,,,,,,,,,,,,,,,,,,,,,,,,,,,,,,,,,,,,,,,,,,,Sicherheit,2.0905,845.7631079999992,845.7637505000002,845.7638557999999,845.7787915999997,847.877931699999,847.8632068999996,847.8670284999989,847.877931699999,847.877931699999,847.877931699999,847.877931699999,849.8779193999999,849.8779193999999,849.8779193999999,849.8779193999999,849.8624879999988,3,0.91530210000019,0.17982819999997446,None,,,,,,,,,,,,,,,,,,,,,4660,1,2025-07-28_18h59.33.053,sm,2024.2.4,59.93978449234982,2025-07-28 18h59.53.397643 +0200,
11,0,11,,,,,,space,1.8720330000014656,None,None,2,0.7488239000012982,0.18209399999977904,None,0,0,0,0,,,,,1,0,1,0,,,,,11,0,11,0,849.8779193999999,,,,,,,,,,,,,,,,,,,,,,,,,,,,,,,,,,,,,,,,,,,,,,,,,,,,,,,,,,Lehrer,2.1867,849.8629993999984,849.8635032999991,849.8636122999997,849.8779193999999,852.0777409000002,852.0623951999987,852.0663601999986,852.0777409000002,852.0777409000002,852.0777409000002,852.0777409000002,854.0782376999996,854.0782376999996,854.0782376999996,854.0782376999996,854.0622054999985,2,0.7488239000012982,0.18209399999977904,None,,,,,,,,,,,,,,,,,,,,,4660,1,2025-07-28_18h59.33.053,sm,2024.2.4,59.93978449234982,2025-07-28 18h59.53.397643 +0200,
12,0,12,,,,,,space,1.8720330000014656,None,None,3,0.9990840999998909,0.16710220000095433,None,0,0,0,0,,,,,1,0,1,0,,,,,12,0,12,0,854.0782376999996,,,,,,,,,,,,,,,,,,,,,,,,,,,,,,,,,,,,,,,,,,,,,,,,,,,,,,,,,,Kälte,3.0297,854.062717499999,854.0632194999998,854.0633302999995,854.0782376999996,857.1105940999987,857.0950382999999,857.0985380000002,857.1105940999987,857.1105940999987,857.1105940999987,857.1105940999987,859.1108224,859.1108224,859.1108224,859.1108224,859.0951331999986,3,0.9990840999998909,0.16710220000095433,None,,,,,,,,,,,,,,,,,,,,,4660,1,2025-07-28_18h59.33.053,sm,2024.2.4,59.93978449234982,2025-07-28 18h59.53.397643 +0200,
13,0,13,,,,,,space,1.8720330000014656,None,None,2,0.5701098000008642,0.18052969999916968,None,0,0,0,0,,,,,1,0,1,0,,,,,13,0,13,0,859.1108224,,,,,,,,,,,,,,,,,,,,,,,,,,,,,,,,,,,,,,,,,,,,,,,,,,,,,,,,,,Lachen,2.2138,859.0956413999993,859.0961489999991,859.0962536999996,859.1108224,861.3273297999986,861.3118980999989,861.3160138999992,861.3273297999986,861.3273297999986,861.3273297999986,861.3273297999986,863.3273809000002,863.3273809000002,863.3273809000002,863.3273809000002,863.3118065999988,2,0.5701098000008642,0.18052969999916968,None,,,,,,,,,,,,,,,,,,,,,4660,1,2025-07-28_18h59.33.053,sm,2024.2.4,59.93978449234982,2025-07-28 18h59.53.397643 +0200,
14,0,14,,,,,,space,1.8720330000014656,None,None,2,0.9002591999997094,0.18860730000051262,None,0,0,0,0,,,,,1,0,1,0,,,,,14,0,14,0,863.3273809000002,,,,,,,,,,,,,,,,,,,,,,,,,,,,,,,,,,,,,,,,,,,,,,,,,,,,,,,,,,Lava,2.1697,863.3123189999988,863.3128431999994,863.3129481999986,863.3273809000002,865.5103547999988,865.4948691999998,865.4985574000002,865.5103547999988,865.5103547999988,865.5103547999988,865.5103547999988,867.5103707999988,867.5103707999988,867.5103707999988,867.5103707999988,867.4947837,2,0.9002591999997094,0.18860730000051262,None,,,,,,,,,,,,,,,,,,,,,4660,1,2025-07-28_18h59.33.053,sm,2024.2.4,59.93978449234982,2025-07-28 18h59.53.397643 +0200,
15,0,15,,,,,,space,1.8720330000014656,None,None,3,1.0731629000001703,0.21533829999862064,None,0,0,0,0,,,,,1,0,1,0,,,,,15,0,15,0,867.5103707999988,,,,,,,,,,,,,,,,,,,,,,,,,,,,,,,,,,,,,,,,,,,,,,,,,,,,,,,,,,Loch,2.5034,867.4952885000002,867.4959271999996,867.4960303999997,867.5103707999988,870.026984099999,870.0112104,870.0149364999997,870.026984099999,870.026984099999,870.026984099999,870.026984099999,872.0267231999987,872.0267231999987,872.0267231999987,872.0267231999987,872.0110441999987,3,1.0731629000001703,0.21533829999862064,None,,,,,,,,,,,,,,,,,,,,,4660,1,2025-07-28_18h59.33.053,sm,2024.2.4,59.93978449234982,2025-07-28 18h59.53.397643 +0200,
16,0,16,,,,,,space,1.8720330000014656,None,None,3,0.6712635000003502,0.189759499999127,None,0,0,0,0,,,,,1,0,1,0,,,,,16,0,16,0,872.0267231999987,,,,,,,,,,,,,,,,,,,,,,,,,,,,,,,,,,,,,,,,,,,,,,,,,,,,,,,,,,Geschirr,2.5182,872.0115639999985,872.0120673999991,872.0121729999992,872.0267231999987,874.5595241999999,874.5442081000001,874.5480277999995,874.5595241999999,874.5595241999999,874.5595241999999,874.5595241999999,876.559794499999,876.559794499999,876.559794499999,876.559794499999,876.5444601999989,3,0.6712635000003502,0.189759499999127,None,,,,,,,,,,,,,,,,,,,,,4660,1,2025-07-28_18h59.33.053,sm,2024.2.4,59.93978449234982,2025-07-28 18h59.53.397643 +0200,
17,0,17,,,,,,space,1.8720330000014656,None,None,3,0.8002727999992203,0.21160910000071453,None,0,0,0,0,,,,,1,0,1,0,,,,,17,0,17,0,876.559794499999,,,,,,,,,,,,,,,,,,,,,,,,,,,,,,,,,,,,,,,,,,,,,,,,,,,,,,,,,,Ecke,2.3383,876.5450157999985,876.5455332000001,876.5456452999988,876.559794499999,878.9096267999994,878.8942552999997,878.897976799999,878.9096267999994,878.9096267999994,878.9096267999994,878.9096267999994,880.9098732999992,880.9098732999992,880.9098732999992,880.9098732999992,880.8939826999995,3,0.8002727999992203,0.21160910000071453,None,,,,,,,,,,,,,,,,,,,,,4660,1,2025-07-28_18h59.33.053,sm,2024.2.4,59.93978449234982,2025-07-28 18h59.53.397643 +0200,
18,0,18,,,,,,space,1.8720330000014656,None,None,2,1.031774699999005,0.1948260000008304,None,0,0,0,0,,,,,1,0,1,0,,,,,18,0,18,0,880.9098732999992,,,,,,,,,,,,,,,,,,,,,,,,,,,,,,,,,,,,,,,,,,,,,,,,,,,,,,,,,,Dunkelheit,2.983,880.8944993999994,880.8951879999986,880.895303199999,880.9098732999992,883.8927312999986,883.8770769999992,883.8808501999993,883.8927312999986,883.8927312999986,883.8927312999986,883.8927312999986,885.8930502999992,885.8930502999992,885.8930502999992,885.8930502999992,885.8772724999999,2,1.031774699999005,0.1948260000008304,None,,,,,,,,,,,,,,,,,,,,,4660,1,2025-07-28_18h59.33.053,sm,2024.2.4,59.93978449234982,2025-07-28 18h59.53.397643 +0200,
19,0,19,,,,,,space,1.8720330000014656,None,None,3,0.9671522999997251,0.24081619999924442,None,0,0,0,0,,,,,1,0,1,0,,,,,19,0,19,0,885.8930502999992,,,,,,,,,,,,,,,,,,,,,,,,,,,,,,,,,,,,,,,,,,,,,,,,,,,,,,,,,,Ring,2.0456,885.8777857999994,885.8782923999988,885.8784003000001,885.8930502999992,887.942427,887.9268102999995,887.930440099999,887.942427,887.942427,887.942427,887.942427,889.9423654999991,889.9423654999991,889.9423654999991,889.9423654999991,889.9267654999985,3,0.9671522999997251,0.24081619999924442,None,,,,,,,,,,,,,,,,,,,,,4660,1,2025-07-28_18h59.33.053,sm,2024.2.4,59.93978449234982,2025-07-28 18h59.53.397643 +0200,
20,0,20,,,,,,space,1.8720330000014656,None,None,2,1.040770200001134,0.20552039999893168,None,0,0,0,0,,,,,1,0,1,0,,,,,20,0,20,0,889.9423654999991,,,,,,,,,,,,,,,,,,,,,,,,,,,,,,,,,,,,,,,,,,,,,,,,,,,,,,,,,,Lied,2.0413,889.9272390999995,889.9278995999994,889.9279982999997,889.9423654999991,891.9920513999987,891.9765201999999,891.9795421999988,891.9920513999987,891.9920513999987,891.9920513999987,891.9920513999987,893.9920853999993,893.9920853999993,893.9920853999993,893.9920853999993,893.9766761999999,2,1.040770200001134,0.20552039999893168,None,,,,,,,,,,,,,,,,,,,,,4660,1,2025-07-28_18h59.33.053,sm,2024.2.4,59.93978449234982,2025-07-28 18h59.53.397643 +0200,
21,0,21,,,,,,space,1.8720330000014656,None,None,2,0.569932799999151,0.19153860000005807,None,0,0,0,0,,,,,1,0,1,0,,,,,21,0,21,0,893.9920853999993,,,,,,,,,,,,,,,,,,,,,,,,,,,,,,,,,,,,,,,,,,,,,,,,,,,,,,,,,,Ehe,2.7228,893.9771831999988,893.9778126000001,893.9779174999985,893.9920853999993,896.7251995999995,896.7098341000001,896.7130615999995,896.7251995999995,896.7251995999995,896.7251995999995,896.7251995999995,898.7251218999991,898.7251218999991,898.7251218999991,898.7251218999991,898.7095367000002,2,0.569932799999151,0.19153860000005807,None,,,,,,,,,,,,,,,,,,,,,4660,1,2025-07-28_18h59.33.053,sm,2024.2.4,59.93978449234982,2025-07-28 18h59.53.397643 +0200,
22,0,22,,,,,,space,1.8720330000014656,None,None,2,0.6909223000002385,0.18545839999933378,None,0,0,0,0,,,,,1,0,1,0,,,,,22,0,22,0,898.7251218999991,,,,,,,,,,,,,,,,,,,,,,,,,,,,,,,,,,,,,,,,,,,,,,,,,,,,,,,,,,Tanz,3.4527,898.7100195999992,898.7106404999995,898.7107415999999,898.7251218999991,902.1916133999985,902.1762441999999,902.1797815999998,902.1916133999985,902.1916133999985,902.1916133999985,902.1916133999985,904.1916622999997,904.1916622999997,904.1916622999997,904.1916622999997,904.1762054999999,2,0.6909223000002385,0.18545839999933378,None,,,,,,,,,,,,,,,,,,,,,4660,1,2025-07-28_18h59.33.053,sm,2024.2.4,59.93978449234982,2025-07-28 18h59.53.397643 +0200,
23,0,23,,,,,,space,1.8720330000014656,None,None,3,0.6358347000004869,0.20884949999890523,None,0,0,0,0,,,,,1,0,1,0,,,,,23,0,23,0,904.1916622999997,,,,,,,,,,,,,,,,,,,,,,,,,,,,,,,,,,,,,,,,,,,,,,,,,,,,,,,,,,Tasse,3.3555,904.1767191999988,904.1772165999992,904.1773243999996,904.1916622999997,907.5579688999987,907.542367,907.5470492999993,907.5579688999987,907.5579688999987,907.5579688999987,907.5579688999987,909.5580050999997,909.5580050999997,909.5580050999997,909.5580050999997,909.5423554999998,3,0.6358347000004869,0.20884949999890523,None,,,,,,,,,,,,,,,,,,,,,4660,1,2025-07-28_18h59.33.053,sm,2024.2.4,59.93978449234982,2025-07-28 18h59.53.397643 +0200,
24,0,24,,,,,,space,1.8720330000014656,None,None,2,0.7962358999993739,0.19348840000020573,None,0,0,0,0,,,,,1,0,1,0,,,,,24,0,24,0,909.5580050999997,,,,,,,,,,,,,,,,,,,,,,,,,,,,,,,,,,,,,,,,,,,,,,,,,,,,,,,,,,Arm,3.9103,909.5428692999994,909.5433899999989,909.5434958999995,909.5580050999997,913.4743092999997,913.458606799999,913.4619688999992,913.4743092999997,913.4743092999997,913.4743092999997,913.4743092999997,915.4744444999997,915.4744444999997,915.4744444999997,915.4744444999997,915.4587456999998,2,0.7962358999993739,0.19348840000020573,None,,,,,,,,,,,,,,,,,,,,,4660,1,2025-07-28_18h59.33.053,sm,2024.2.4,59.93978449234982,2025-07-28 18h59.53.397643 +0200,
25,0,25,,,,,,space,1.8720330000014656,None,None,3,0.7457020999991073,0.2100592000006145,None,0,0,0,0,,,,,1,0,1,0,,,,,25,0,25,0,915.4744444999997,,,,,,,,,,,,,,,,,,,,,,,,,,,,,,,,,,,,,,,,,,,,,,,,,,,,,,,,,,Schwarz,2.7245,915.459227899999,915.4597181999998,915.4598201999997,915.4744444999997,918.2071794999993,918.1916748999993,918.1955514000001,918.2071794999993,918.2071794999993,918.2071794999993,918.2071794999993,920.2072389999994,920.2072389999994,920.2072389999994,920.2072389999994,920.1916624999994,3,0.7457020999991073,0.2100592000006145,None,,,,,,,,,,,,,,,,,,,,,4660,1,2025-07-28_18h59.33.053,sm,2024.2.4,59.93978449234982,2025-07-28 18h59.53.397643 +0200,
26,0,26,,,,,,space,1.8720330000014656,None,None,3,1.0130470999993122,0.19309220000104688,None,0,0,0,0,,,,,1,0,1,0,,,,,26,0,26,0,920.2072389999994,,,,,,,,,,,,,,,,,,,,,,,,,,,,,,,,,,,,,,,,,,,,,,,,,,,,,,,,,,Bürste,5.2722,920.1921763999999,920.1926855000002,920.1927957999997,920.2072389999994,925.4902160999991,925.4750340999999,925.4782180999991,925.4902160999991,925.4902160999991,925.4902160999991,925.4902160999991,927.4903560000002,927.4903560000002,927.4903560000002,927.4903560000002,927.4746257999996,3,1.0130470999993122,0.19309220000104688,None,,,,,,,,,,,,,,,,,,,,,4660,1,2025-07-28_18h59.33.053,sm,2024.2.4,59.93978449234982,2025-07-28 18h59.53.397643 +0200,
27,0,27,,,,,,space,1.8720330000014656,None,None,2,0.8114350000014383,0.18686569999954372,None,0,0,0,0,,,,,1,0,1,0,,,,,27,0,27,0,927.4903560000002,,,,,,,,,,,,,,,,,,,,,,,,,,,,,,,,,,,,,,,,,,,,,,,,,,,,,,,,,,Reise,2.4988,927.4751316000002,927.4756229999984,927.4757271999988,927.4903560000002,929.9899924000001,929.9745685999987,929.978729299999,929.9899924000001,929.9899924000001,929.9899924000001,929.9899924000001,931.9901123,931.9901123,931.9901123,931.9901123,931.9744427999995,2,0.8114350000014383,0.18686569999954372,None,,,,,,,,,,,,,,,,,,,,,4660,1,2025-07-28_18h59.33.053,sm,2024.2.4,59.93978449234982,2025-07-28 18h59.53.397643 +0200,
28,0,28,,,,,,space,1.8720330000014656,None,None,2,0.6561548999998195,0.20035580000148911,None,0,0,0,0,,,,,1,0,1,0,,,,,28,0,28,0,931.9901123,,,,,,,,,,,,,,,,,,,,,,,,,,,,,,,,,,,,,,,,,,,,,,,,,,,,,,,,,,Autorin,3.0155,931.9749562999987,931.9754797999994,931.9755888,931.9901123,935.0061538999998,934.9906658,934.994233899999,935.0061538999998,935.0061538999998,935.0061538999998,935.0061538999998,937.0065193999999,937.0065193999999,937.0065193999999,937.0065193999999,936.9909134999998,2,0.6561548999998195,0.20035580000148911,None,,,,,,,,,,,,,,,,,,,,,4660,1,2025-07-28_18h59.33.053,sm,2024.2.4,59.93978449234982,2025-07-28 18h59.53.397643 +0200,
29,0,29,,,,,,space,1.8720330000014656,None,None,2,0.6856334000003699,0.1748678000003565,None,0,0,0,0,,,,,1,0,1,0,,,,,29,0,29,0,937.0065193999999,,,,,,,,,,,,,,,,,,,,,,,,,,,,,,,,,,,,,,,,,,,,,,,,,,,,,,,,,,Besucher,2.2195,936.9914111999988,936.9919033999995,936.9920081,937.0065193999999,939.2392251000001,939.2238370999985,939.2274159999997,939.2392251000001,939.2392251000001,939.2392251000001,939.2392251000001,941.2393969999994,941.2393969999994,941.2393969999994,941.2393969999994,941.2238474999995,2,0.6856334000003699,0.1748678000003565,None,,,,,,,,,,,,,,,,,,,,,4660,1,2025-07-28_18h59.33.053,sm,2024.2.4,59.93978449234982,2025-07-28 18h59.53.397643 +0200,
30,0,30,,,,,,space,1.8720330000014656,None,None,2,0.6169301999998424,0.19638359999953536,None,0,0,0,0,,,,,1,0,1,0,,,,,30,0,30,0,941.2393969999994,,,,,,,,,,,,,,,,,,,,,,,,,,,,,,,,,,,,,,,,,,,,,,,,,,,,,,,,,,Liebe,2.2918,941.2243571999988,941.2248524999995,941.2250016999988,941.2393969999994,943.5394882,943.5237542999985,943.5287350999988,943.5394882,943.5394882,943.5394882,943.5394882,945.5391194999993,945.5391194999993,945.5391194999993,945.5391194999993,945.5234544999985,2,0.6169301999998424,0.19638359999953536,None,,,,,,,,,,,,,,,,,,,,,4660,1,2025-07-28_18h59.33.053,sm,2024.2.4,59.93978449234982,2025-07-28 18h59.53.397643 +0200,
31,0,31,,,,,,space,1.8720330000014656,None,None,3,0.7774979999994684,0.22200250000059896,None,0,0,0,0,,,,,1,0,1,0,,,,,31,0,31,0,945.5391194999993,,,,,,,,,,,,,,,,,,,,,,,,,,,,,,,,,,,,,,,,,,,,,,,,,,,,,,,,,,Bluse,3.5446,945.5238911999986,945.5243601999991,945.5244557999995,945.5391194999993,949.0892348999987,949.0734033999997,949.077568499999,949.0892348999987,949.0892348999987,949.0892348999987,949.0892348999987,951.0892714000001,951.0892714000001,951.0892714000001,951.0892714000001,951.0730611999988,3,0.7774979999994684,0.22200250000059896,None,,,,,,,,,,,,,,,,,,,,,4660,1,2025-07-28_18h59.33.053,sm,2024.2.4,59.93978449234982,2025-07-28 18h59.53.397643 +0200,
32,0,32,,,,,,space,1.8720330000014656,None,None,3,1.058675599999333,0.18913620000057563,None,0,0,0,0,,,,,1,0,1,0,,,,,32,0,32,0,951.0892714000001,,,,,,,,,,,,,,,,,,,,,,,,,,,,,,,,,,,,,,,,,,,,,,,,,,,,,,,,,,Duft,3.3797,951.0734673999996,951.073996699999,951.0740819000002,951.0892714000001,954.4729343999988,954.4568635999985,954.4602207999997,954.4729343999988,954.4729343999988,954.4729343999988,954.4729343999988,956.4720894999991,956.4720894999991,956.4720894999991,956.4720894999991,956.4564445999986,3,1.058675599999333,0.18913620000057563,None,,,,,,,,,,,,,,,,,,,,,4660,1,2025-07-28_18h59.33.053,sm,2024.2.4,59.93978449234982,2025-07-28 18h59.53.397643 +0200,
33,0,33,,,,,,space,1.8720330000014656,None,None,3,0.8643830999990314,0.1864318000007188,None,0,0,0,0,,,,,1,0,1,0,,,,,33,0,33,0,956.4720894999991,,,,,,,,,,,,,,,,,,,,,,,,,,,,,,,,,,,,,,,,,,,,,,,,,,,,,,,,,,Gold,2.1177,956.4569499999998,956.4575922999993,956.4577011999991,956.4720894999991,958.5883282999985,958.5731945999996,958.5762428999988,958.5883282999985,958.5883282999985,958.5883282999985,958.5883282999985,960.5883197999992,960.5883197999992,960.5883197999992,960.5883197999992,960.5727155999994,3,0.8643830999990314,0.1864318000007188,None,,,,,,,,,,,,,,,,,,,,,4660,1,2025-07-28_18h59.33.053,sm,2024.2.4,59.93978449234982,2025-07-28 18h59.53.397643 +0200,
34,0,34,,,,,,space,1.8720330000014656,None,None,3,0.9058881000000838,0.2034853999994084,None,0,0,0,0,,,,,1,0,1,0,,,,,34,0,34,0,960.5883197999992,,,,,,,,,,,,,,,,,,,,,,,,,,,,,,,,,,,,,,,,,,,,,,,,,,,,,,,,,,Zigarette,2.9144,960.5732329999992,960.5737296999996,960.5738327999989,960.5883197999992,963.5046557999995,963.4892473,963.4932245999989,963.5046557999995,963.5046557999995,963.5046557999995,963.5046557999995,965.5048618000001,965.5048618000001,965.5048618000001,965.5048618000001,965.4891945999989,3,0.9058881000000838,0.2034853999994084,None,,,,,,,,,,,,,,,,,,,,,4660,1,2025-07-28_18h59.33.053,sm,2024.2.4,59.93978449234982,2025-07-28 18h59.53.397643 +0200,
35,0,35,,,,,,space,1.8720330000014656,None,None,2,1.0944947000007232,0.1828940999985207,None,0,0,0,0,,,,,1,0,1,0,,,,,35,0,35,0,965.5048618000001,,,,,,,,,,,,,,,,,,,,,,,,,,,,,,,,,,,,,,,,,,,,,,,,,,,,,,,,,,Zeit,2.9149,965.4897025999999,965.4901971999989,965.4903049999994,965.5048618000001,968.4212494999992,968.4057682999992,968.4093502999986,968.4212494999992,968.4212494999992,968.4212494999992,968.4212494999992,970.4214323999986,970.4214323999986,970.4214323999986,970.4214323999986,970.4056450999997,2,1.0944947000007232,0.1828940999985207,None,,,,,,,,,,,,,,,,,,,,,4660,1,2025-07-28_18h59.33.053,sm,2024.2.4,59.93978449234982,2025-07-28 18h59.53.397643 +0200,
36,0,36,,,,,,space,1.8720330000014656,None,None,3,1.016217800000959,0.18932010000025912,None,0,0,0,0,,,,,1,0,1,0,,,,,36,0,36,0,970.4214323999986,,,,,,,,,,,,,,,,,,,,,,,,,,,,,,,,,,,,,,,,,,,,,,,,,,,,,,,,,,Schnorchel,5.9832,970.4061629999997,970.4066690999989,970.4067728999999,970.4214323999986,976.4045009000001,976.3883472999987,976.3923096999988,976.4045009000001,976.4045009000001,976.4045009000001,976.4045009000001,978.4041435999989,978.4041435999989,978.4041435999989,978.4041435999989,978.3885391999993,3,1.016217800000959,0.18932010000025912,None,,,,,,,,,,,,,,,,,,,,,4660,1,2025-07-28_18h59.33.053,sm,2024.2.4,59.93978449234982,2025-07-28 18h59.53.397643 +0200,
37,0,37,,,,,,space,1.8720330000014656,None,None,2,0.8112512000006973,0.19507059999887133,None,0,0,0,0,,,,,1,0,1,0,,,,,37,0,37,0,978.4041435999989,,,,,,,,,,,,,,,,,,,,,,,,,,,,,,,,,,,,,,,,,,,,,,,,,,,,,,,,,,Wissen,2.2399,978.3890445999987,978.3896948999991,978.3898004999992,978.4041435999989,980.6536617999991,980.6382669999985,980.6446403999998,980.6536617999991,980.6536617999991,980.6536617999991,980.6536617999991,982.6539629999988,982.6539629999988,982.6539629999988,982.6539629999988,982.6382648999988,2,0.8112512000006973,0.19507059999887133,None,,,,,,,,,,,,,,,,,,,,,4660,1,2025-07-28_18h59.33.053,sm,2024.2.4,59.93978449234982,2025-07-28 18h59.53.397643 +0200,
38,0,38,,,,,,space,1.8720330000014656,None,None,3,0.7117177000000083,0.20602290000169887,None,0,0,0,0,,,,,1,0,1,0,,,,,38,0,38,0,982.6539629999988,,,,,,,,,,,,,,,,,,,,,,,,,,,,,,,,,,,,,,,,,,,,,,,,,,,,,,,,,,Shampoo,2.3946,982.6387734999989,982.6394283999998,982.6395369000002,982.6539629999988,985.053895699999,985.0380076999991,985.0418221999989,985.053895699999,985.053895699999,985.053895699999,985.053895699999,987.0535619000002,987.0535619000002,987.0535619000002,987.0535619000002,987.0378628999988,3,0.7117177000000083,0.20602290000169887,None,,,,,,,,,,,,,,,,,,,,,4660,1,2025-07-28_18h59.33.053,sm,2024.2.4,59.93978449234982,2025-07-28 18h59.53.397643 +0200,
39,0,39,,,,,,space,1.8720330000014656,None,None,3,0.8430320000006759,0.1958295000004,None,0,0,0,0,,,,,1,0,1,0,,,,,39,0,39,0,987.0535619000002,,,,,,,,,,,,,,,,,,,,,,,,,,,,,,,,,,,,,,,,,,,,,,,,,,,,,,,,,,Schuh,2.2251,987.0383486999999,987.0388389,987.0389355999996,987.0535619000002,989.2865286999986,989.2709927999986,989.2748264999991,989.2865286999986,989.2865286999986,989.2865286999986,989.2865286999986,991.2866813,991.2866813,991.2866813,991.2866813,991.2711956999992,3,0.8430320000006759,0.1958295000004,None,,,,,,,,,,,,,,,,,,,,,4660,1,2025-07-28_18h59.33.053,sm,2024.2.4,59.93978449234982,2025-07-28 18h59.53.397643 +0200,
40,0,40,,,,,,space,1.8720330000014656,None,None,2,0.9950773000000481,0.17210399999930814,None,0,0,0,0,,,,,1,0,1,0,,,,,40,0,40,0,991.2866813,,,,,,,,,,,,,,,,,,,,,,,,,,,,,,,,,,,,,,,,,,,,,,,,,,,,,,,,,,Wind,3.2481,991.2717010999986,991.2722185999992,991.2723241999993,991.2866813,994.5364441999991,994.5210948999993,994.5246910999995,994.5364441999991,994.5364441999991,994.5364441999991,994.5364441999991,996.5365566,996.5365566,996.5365566,996.5365566,996.5205969999988,2,0.9950773000000481,0.17210399999930814,None,,,,,,,,,,,,,,,,,,,,,4660,1,2025-07-28_18h59.33.053,sm,2024.2.4,59.93978449234982,2025-07-28 18h59.53.397643 +0200,
41,0,41,,,,,,space,1.8720330000014656,None,None,2,1.004543900000499,0.1927482000010059,None,0,0,0,0,,,,,1,0,1,0,,,,,41,0,41,0,996.5365566,,,,,,,,,,,,,,,,,,,,,,,,,,,,,,,,,,,,,,,,,,,,,,,,,,,,,,,,,,Gesicht,3.6185,996.5210489000001,996.5215214,996.5216150999986,996.5365566,1000.169211299999,1000.1537444999994,1000.157559199999,1000.169211299999,1000.169211299999,1000.169211299999,1000.169211299999,1002.1693806999992,1002.1693806999992,1002.1693806999992,1002.1693806999992,1002.1537802000003,2,1.004543900000499,0.1927482000010059,None,,,,,,,,,,,,,,,,,,,,,4660,1,2025-07-28_18h59.33.053,sm,2024.2.4,59.93978449234982,2025-07-28 18h59.53.397643 +0200,
42,0,42,,,,,,space,1.8720330000014656,None,None,2,0.8004871000011917,0.19234829999913927,None,0,0,0,0,,,,,1,0,1,0,,,,,42,0,42,0,1002.1693806999992,,,,,,,,,,,,,,,,,,,,,,,,,,,,,,,,,,,,,,,,,,,,,,,,,,,,,,,,,,Zirkus,2.253,1002.1542828999991,1002.1548805000002,1002.1549899000001,1002.1693806999992,1004.4359475000001,1004.4203105999986,1004.4239637999999,1004.4359475000001,1004.4359475000001,1004.4359475000001,1004.4359475000001,1006.4358007999999,1006.4358007999999,1006.4358007999999,1006.4358007999999,1006.4201866999992,2,0.8004871000011917,0.19234829999913927,None,,,,,,,,,,,,,,,,,,,,,4660,1,2025-07-28_18h59.33.053,sm,2024.2.4,59.93978449234982,2025-07-28 18h59.53.397643 +0200,
43,0,43,,,,,,space,1.8720330000014656,None,None,2,0.8103479000001244,0.18689549999908195,None,0,0,0,0,,,,,1,0,1,0,,,,,43,0,43,0,1006.4358007999999,,,,,,,,,,,,,,,,,,,,,,,,,,,,,,,,,,,,,,,,,,,,,,,,,,,,,,,,,,Olympia,2.6975,1006.420675899999,1006.4211646999993,1006.4212704999991,1006.4358007999999,1009.1353025999997,1009.1199464000001,1009.1283711999986,1009.1353025999997,1009.1353025999997,1009.1353025999997,1009.1353025999997,1011.1356684000002,1011.1356684000002,1011.1356684000002,1011.1356684000002,1011.1200941999996,2,0.8103479000001244,0.18689549999908195,None,,,,,,,,,,,,,,,,,,,,,4660,1,2025-07-28_18h59.33.053,sm,2024.2.4,59.93978449234982,2025-07-28 18h59.53.397643 +0200,
44,0,44,,,,,,space,1.8720330000014656,None,None,2,0.9721660000013799,0.17816579999998794,None,0,0,0,0,,,,,1,0,1,0,,,,,44,0,44,0,1011.1356684000002,,,,,,,,,,,,,,,,,,,,,,,,,,,,,,,,,,,,,,,,,,,,,,,,,,,,,,,,,,Skizze,4.674,1011.1206057999989,1011.1211834999995,1011.1212880999992,1011.1356684000002,1015.8185725999992,1015.8029521999997,1015.8063934999991,1015.8185725999992,1015.8185725999992,1015.8185725999992,1015.8185725999992,1017.8183853999999,1017.8183853999999,1017.8183853999999,1017.8183853999999,1017.8031448000002,2,0.9721660000013799,0.17816579999998794,None,,,,,,,,,,,,,,,,,,,,,4660,1,2025-07-28_18h59.33.053,sm,2024.2.4,59.93978449234982,2025-07-28 18h59.53.397643 +0200,
45,0,45,,,,,,space,1.8720330000014656,None,None,3,0.8735641000002943,0.20606749999933527,None,0,0,0,0,,,,,1,0,1,0,,,,,45,0,45,0,1017.8183853999999,,,,,,,,,,,,,,,,,,,,,,,,,,,,,,,,,,,,,,,,,,,,,,,,,,,,,,,,,,Sack,4.1117,1017.8036479999992,1017.804304199999,1017.8044112999996,1017.8183853999999,1021.9350686999987,1021.9192905,1021.9230369999987,1021.9350686999987,1021.9350686999987,1021.9350686999987,1021.9350686999987,1023.9348941999997,1023.9348941999997,1023.9348941999997,1023.9348941999997,1023.9197079999994,3,0.8735641000002943,0.20606749999933527,None,,,,,,,,,,,,,,,,,,,,,4660,1,2025-07-28_18h59.33.053,sm,2024.2.4,59.93978449234982,2025-07-28 18h59.53.397643 +0200,
46,0,46,,,,,,space,1.8720330000014656,None,None,2,0.732042999999976,0.2016198000001168,None,0,0,0,0,,,,,1,0,1,0,,,,,46,0,46,0,1023.9348941999997,,,,,,,,,,,,,,,,,,,,,,,,,,,,,,,,,,,,,,,,,,,,,,,,,,,,,,,,,,Tischler,4.1918,1023.9202174999991,1023.9207136999994,1023.9208222999987,1023.9348941999997,1028.134591099999,1028.1189295999993,1028.122401499999,1028.134591099999,1028.134591099999,1028.134591099999,1028.134591099999,1030.1344480999996,1030.1344480999996,1030.1344480999996,1030.1344480999996,1030.1189878999994,2,0.732042999999976,0.2016198000001168,None,,,,,,,,,,,,,,,,,,,,,4660,1,2025-07-28_18h59.33.053,sm,2024.2.4,59.93978449234982,2025-07-28 18h59.53.397643 +0200,
47,0,47,,,,,,space,1.8720330000014656,None,None,3,0.8301480999998603,0.21147600000040256,None,0,0,0,0,,,,,1,0,1,0,,,,,47,0,47,0,1030.1344480999996,,,,,,,,,,,,,,,,,,,,,,,,,,,,,,,,,,,,,,,,,,,,,,,,,,,,,,,,,,Soße,3.0291,1030.1194931999999,1030.12003,1030.1201347999995,1030.1344480999996,1033.1672012,1033.1515979999986,1033.1542276,1033.1672012,1033.1672012,1033.1672012,1033.1672012,1035.168114,1035.168114,1035.168114,1035.168114,1035.1520413999988,3,0.8301480999998603,0.21147600000040256,None,,,,,,,,,,,,,,,,,,,,,4660,1,2025-07-28_18h59.33.053,sm,2024.2.4,59.93978449234982,2025-07-28 18h59.53.397643 +0200,
48,0,48,,,,,,space,1.8720330000014656,None,None,2,0.9385457999997016,0.17352860000028159,None,0,0,0,0,,,,,1,0,1,0,,,,,48,0,48,0,1035.168114,,,,,,,,,,,,,,,,,,,,,,,,,,,,,,,,,,,,,,,,,,,,,,,,,,,,,,,,,,Berg,4.8291,1035.1525540000002,1035.1530697999988,1035.1531789,1035.168114,1040.0005733999988,1039.9853016999987,1039.9888108999985,1040.0005733999988,1040.0005733999988,1040.0005733999988,1040.0005733999988,1042.0004786999998,1042.0004786999998,1042.0004786999998,1042.0004786999998,1041.9847254999986,2,0.9385457999997016,0.17352860000028159,None,,,,,,,,,,,,,,,,,,,,,4660,1,2025-07-28_18h59.33.053,sm,2024.2.4,59.93978449234982,2025-07-28 18h59.53.397643 +0200,
49,0,49,,,,,,space,1.8720330000014656,None,None,2,0.6309391999984655,0.19840840000142634,None,0,0,0,0,,,,,1,0,1,0,,,,,49,0,49,0,1042.0004786999998,,,,,,,,,,,,,,,,,,,,,,,,,,,,,,,,,,,,,,,,,,,,,,,,,,,,,,,,,,Eltern,2.1686,1041.9851524999995,1041.9856125999995,1041.985703299999,1042.0004786999998,1044.1833824999994,1044.1676878999988,1044.1715230999998,1044.1833824999994,1044.1833824999994,1044.1833824999994,1044.1833824999994,1046.1835303999997,1046.1835303999997,1046.1835303999997,1046.1835303999997,1046.167984399999,2,0.6309391999984655,0.19840840000142634,None,,,,,,,,,,,,,,,,,,,,,4660,1,2025-07-28_18h59.33.053,sm,2024.2.4,59.93978449234982,2025-07-28 18h59.53.397643 +0200,
50,0,50,,,,,,space,1.8720330000014656,None,None,3,0.8487516999994114,0.21446670000113954,None,0,0,0,0,,,,,1,0,1,0,,,,,50,0,50,0,1046.1835303999997,,,,,,,,,,,,,,,,,,,,,,,,,,,,,,,,,,,,,,,,,,,,,,,,,,,,,,,,,,Dip,2.3363,1046.1684913999998,1046.1690085999999,1046.1691159000002,1046.1835303999997,1048.5332934999988,1048.5178326999994,1048.5223143999992,1048.5332934999988,1048.5332934999988,1048.5332934999988,1048.5332934999988,1050.5335110999986,1050.5335110999986,1050.5335110999986,1050.5335110999986,1050.5178231999998,3,0.8487516999994114,0.21446670000113954,None,,,,,,,,,,,,,,,,,,,,,4660,1,2025-07-28_18h59.33.053,sm,2024.2.4,59.93978449234982,2025-07-28 18h59.53.397643 +0200,
51,0,51,,,,,,space,1.8720330000014656,None,None,3,0.9222972999996273,0.20304939999914495,None,0,0,0,0,,,,,1,0,1,0,,,,,51,0,51,0,1050.5335110999986,,,,,,,,,,,,,,,,,,,,,,,,,,,,,,,,,,,,,,,,,,,,,,,,,,,,,,,,,,Monument,2.4674,1050.5183369999995,1050.5188459,1050.5189524999987,1050.5335110999986,1053.0162306000002,1053.0004499999995,1053.0039649999999,1053.0162306000002,1053.0162306000002,1053.0162306000002,1053.0162306000002,1055.016568699999,1055.016568699999,1055.016568699999,1055.016568699999,1055.0009689999988,3,0.9222972999996273,0.20304939999914495,None,,,,,,,,,,,,,,,,,,,,,4660,1,2025-07-28_18h59.33.053,sm,2024.2.4,59.93978449234982,2025-07-28 18h59.53.397643 +0200,
52,0,52,,,,,,space,1.8720330000014656,None,None,2,0.8099129000001994,0.1910771000002569,None,0,0,0,0,,,,,1,0,1,0,,,,,52,0,52,0,1055.016568699999,,,,,,,,,,,,,,,,,,,,,,,,,,,,,,,,,,,,,,,,,,,,,,,,,,,,,,,,,,Blut,2.5485,1055.0014765999986,1055.0021207999998,1055.0022262999992,1055.016568699999,1057.5661674999992,1057.5504554999989,1057.5538484999997,1057.5661674999992,1057.5661674999992,1057.5661674999992,1057.5661674999992,1059.5662986999996,1059.5662986999996,1059.5662986999996,1059.5662986999996,1059.550441899999,2,0.8099129000001994,0.1910771000002569,None,,,,,,,,,,,,,,,,,,,,,4660,1,2025-07-28_18h59.33.053,sm,2024.2.4,59.93978449234982,2025-07-28 18h59.53.397643 +0200,
53,0,53,,,,,,space,1.8720330000014656,None,None,2,1.6483584999987215,0.18252580000080343,None,0,0,0,0,,,,,1,0,1,0,,,,,53,0,53,0,1059.5662986999996,,,,,,,,,,,,,,,,,,,,,,,,,,,,,,,,,,,,,,,,,,,,,,,,,,,,,,,,,,Orange,3.074,1059.5509117000001,1059.5514531999997,1059.5515512000002,1059.5662986999996,1062.6491317,1062.6333794999991,1062.6371327999987,1062.6491317,1062.6491317,1062.6491317,1062.6491317,1064.6493584,1064.6493584,1064.6493584,1064.6493584,1064.633744499999,2,1.6483584999987215,0.18252580000080343,None,,,,,,,,,,,,,,,,,,,,,4660,1,2025-07-28_18h59.33.053,sm,2024.2.4,59.93978449234982,2025-07-28 18h59.53.397643 +0200,
54,0,54,,,,,,space,1.8720330000014656,None,None,2,0.878334700000778,0.17798749999928987,None,0,0,0,0,,,,,1,0,1,0,,,,,54,0,54,0,1064.6493584,,,,,,,,,,,,,,,,,,,,,,,,,,,,,,,,,,,,,,,,,,,,,,,,,,,,,,,,,,Konzert,2.5364,1064.6342523999992,1064.6347585999993,1064.6348648999992,1064.6493584,1067.1989760999986,1067.1835629999987,1067.1877638999995,1067.1989760999986,1067.1989760999986,1067.1989760999986,1067.1989760999986,1069.1990778,1069.1990778,1069.1990778,1069.1990778,1069.1833275999998,2,0.878334700000778,0.17798749999928987,None,,,,,,,,,,,,,,,,,,,,,4660,1,2025-07-28_18h59.33.053,sm,2024.2.4,59.93978449234982,2025-07-28 18h59.53.397643 +0200,
55,0,55,,,,,,space,1.8720330000014656,None,None,2,1.0914209000002302,0.18342139999913343,None,0,0,0,0,,,,,1,0,1,0,,,,,55,0,55,0,1069.1990778,,,,,,,,,,,,,,,,,,,,,,,,,,,,,,,,,,,,,,,,,,,,,,,,,,,,,,,,,,Schule,3.4748,1069.1838006999988,1069.1843126999993,1069.1844131999987,1069.1990778,1072.6819256999988,1072.666350399999,1072.6700568999986,1072.6819256999988,1072.6819256999988,1072.6819256999988,1072.6819256999988,1074.6819806999993,1074.6819806999993,1074.6819806999993,1074.6819806999993,1074.666503299999,2,1.0914209000002302,0.18342139999913343,None,,,,,,,,,,,,,,,,,,,,,4660,1,2025-07-28_18h59.33.053,sm,2024.2.4,59.93978449234982,2025-07-28 18h59.53.397643 +0200,
56,0,56,,,,,,space,1.8720330000014656,None,None,2,0.6678061999991769,0.1822016000005533,None,0,0,0,0,,,,,1,0,1,0,,,,,56,0,56,0,1074.6819806999993,,,,,,,,,,,,,,,,,,,,,,,,,,,,,,,,,,,,,,,,,,,,,,,,,,,,,,,,,,Präsident,2.5145,1074.6670078999996,1074.6676467999987,1074.6677555999995,1074.6819806999993,1077.1985029999996,1077.1827345000002,1077.1876168999988,1077.1985029999996,1077.1985029999996,1077.1985029999996,1077.1985029999996,1079.198789099999,1079.198789099999,1079.198789099999,1079.198789099999,1079.1826695,2,0.6678061999991769,0.1822016000005533,None,,,,,,,,,,,,,,,,,,,,,4660,1,2025-07-28_18h59.33.053,sm,2024.2.4,59.93978449234982,2025-07-28 18h59.53.397643 +0200,
57,0,57,,,,,,space,1.8720330000014656,None,None,3,1.2153006000007736,0.19915969999965455,None,0,0,0,0,,,,,1,0,1,0,,,,,57,0,57,0,1079.198789099999,,,,,,,,,,,,,,,,,,,,,,,,,,,,,,,,,,,,,,,,,,,,,,,,,,,,,,,,,,Arbeit,3.5489,1079.1831502999994,1079.1836365,1079.1837333999993,1079.198789099999,1082.7479472999985,1082.7322915999994,1082.7361148,1082.7479472999985,1082.7479472999985,1082.7479472999985,1082.7479472999985,1084.7483397999986,1084.7483397999986,1084.7483397999986,1084.7483397999986,1084.7326924999998,3,1.2153006000007736,0.19915969999965455,None,,,,,,,,,,,,,,,,,,,,,4660,1,2025-07-28_18h59.33.053,sm,2024.2.4,59.93978449234982,2025-07-28 18h59.53.397643 +0200,
58,0,58,,,,,,space,1.8720330000014656,None,None,2,0.6560221999989153,0.2008724000006623,None,0,0,0,0,,,,,1,0,1,0,,,,,58,0,58,0,1084.7483397999986,,,,,,,,,,,,,,,,,,,,,,,,,,,,,,,,,,,,,,,,,,,,,,,,,,,,,,,,,,Feier,2.3642,1084.7331980999988,1084.7339335999986,1084.7340374999985,1084.7483397999986,1087.1146854999988,1087.0984274999992,1087.1014614999985,1087.1146854999988,1087.1146854999988,1087.1146854999988,1087.1146854999988,1089.1144534999985,1089.1144534999985,1089.1144534999985,1089.1144534999985,1089.0990790999986,2,0.6560221999989153,0.2008724000006623,None,,,,,,,,,,,,,,,,,,,,,4660,1,2025-07-28_18h59.33.053,sm,2024.2.4,59.93978449234982,2025-07-28 18h59.53.397643 +0200,
59,0,59,,,,,,space,1.8720330000014656,None,None,2,1.2201135999985127,0.18639710000024934,None,0,0,0,0,,,,,1,0,1,0,,,,,59,0,59,0,1089.1144534999985,,,,,,,,,,,,,,,,,,,,,,,,,,,,,,,,,,,,,,,,,,,,,,,,,,,,,,,,,,Sumpf,2.2252,1089.0995951999994,1089.1001087999994,1089.1002145999992,1089.1144534999985,1091.3473286999997,1091.3319259,1091.335460799999,1091.3473286999997,1091.3473286999997,1091.3473286999997,1091.3473286999997,1093.3477527999985,1093.3477527999985,1093.3477527999985,1093.3477527999985,1093.3319715999987,2,1.2201135999985127,0.18639710000024934,None,,,,,,,,,,,,,,,,,,,,,4660,1,2025-07-28_18h59.33.053,sm,2024.2.4,59.93978449234982,2025-07-28 18h59.53.397643 +0200,
60,0,60,,,,,,space,1.8720330000014656,None,None,2,1.3414844999988418,0.21353020000060496,None,0,0,0,0,,,,,1,0,1,0,,,,,60,0,60,0,1093.3477527999985,,,,,,,,,,,,,,,,,,,,,,,,,,,,,,,,,,,,,,,,,,,,,,,,,,,,,,,,,,Weltraum,2.2644,1093.3324859999993,1093.333114699999,1093.3332214000002,1093.3477527999985,1095.6140294999987,1095.5985414999996,1095.6023862000002,1095.6140294999987,1095.6140294999987,1095.6140294999987,1095.6140294999987,1097.6139141999993,1097.6139141999993,1097.6139141999993,1097.6139141999993,1097.5985071999985,2,1.3414844999988418,0.21353020000060496,None,,,,,,,,,,,,,,,,,,,,,4660,1,2025-07-28_18h59.33.053,sm,2024.2.4,59.93978449234982,2025-07-28 18h59.53.397643 +0200,
61,0,61,,,,,,space,1.8720330000014656,None,None,3,1.24712830000135,0.19122859999879438,None,0,0,0,0,,,,,1,0,1,0,,,,,61,0,61,0,1097.6139141999993,,,,,,,,,,,,,,,,,,,,,,,,,,,,,,,,,,,,,,,,,,,,,,,,,,,,,,,,,,Schwung,5.5336,1097.599017299999,1097.5995156999998,1097.5996225999988,1097.6139141999993,1103.1470130999987,1103.1313086999999,1103.1354030000002,1103.1470130999987,1103.1470130999987,1103.1470130999987,1103.1470130999987,1105.147022199999,1105.147022199999,1105.147022199999,1105.147022199999,1105.1313973999986,3,1.24712830000135,0.19122859999879438,None,,,,,,,,,,,,,,,,,,,,,4660,1,2025-07-28_18h59.33.053,sm,2024.2.4,59.93978449234982,2025-07-28 18h59.53.397643 +0200,
62,0,62,,,,,,space,1.8720330000014656,None,None,3,1.4381744999991497,0.1939198000000033,None,0,0,0,0,,,,,1,0,1,0,,,,,62,0,62,0,1105.147022199999,,,,,,,,,,,,,,,,,,,,,,,,,,,,,,,,,,,,,,,,,,,,,,,,,,,,,,,,,,Kino,2.6937,1105.1319024999993,1105.1325417999997,1105.1326475999995,1105.147022199999,1107.8463816999993,1107.8306627999991,1107.8336808999993,1107.8463816999993,1107.8463816999993,1107.8463816999993,1107.8463816999993,1109.8467806999997,1109.8467806999997,1109.8467806999997,1109.8467806999997,1109.8311761999994,3,1.4381744999991497,0.1939198000000033,None,,,,,,,,,,,,,,,,,,,,,4660,1,2025-07-28_18h59.33.053,sm,2024.2.4,59.93978449234982,2025-07-28 18h59.53.397643 +0200,
