thisN,thisTrialN,thisRepN,Cue,Target,Mediator1,Mediator2,iti,scanner_ready_press.keys,scanner_ready_press.rt,scanner_ready_press.duration,skip_trigger.keys,living_nonliving.keys,living_nonliving.rt,living_nonliving.duration,end_mapping.keys,blocks.thisRepN,blocks.thisTrialN,blocks.thisN,blocks.thisIndex,load_and_shuffle.thisRepN,load_and_shuffle.thisTrialN,load_and_shuffle.thisN,load_and_shuffle.thisIndex,runs.thisRepN,runs.thisTrialN,runs.thisN,runs.thisIndex,iti_loading_loop.thisRepN,iti_loading_loop.thisTrialN,iti_loading_loop.thisN,iti_loading_loop.thisIndex,semantic_mapping_run.thisRepN,semantic_mapping_run.thisTrialN,semantic_mapping_run.thisN,semantic_mapping_run.thisIndex,thisRow.t,notes,welcome.started,welcome_text.started,key_resp__welcome.started,welcome.stopped,key_resp__welcome.keys,key_resp__welcome.rt,key_resp__welcome.duration,scout.started,scout_text.started,key_resp.started,scout.stopped,key_resp.keys,key_resp.rt,key_resp.duration,instructions_semantic_mapping1.started,sm_instructions1_text.started,sm_instructions1_key.started,instructions_semantic_mapping1.stopped,sm_instructions1_key.keys,sm_instructions1_key.rt,sm_instructions1_key.duration,instructions_semantic_mapping2.started,sm_instructions2_text.started,sm_instructions2_key.started,instructions_semantic_mapping2.stopped,sm_instructions2_key.keys,sm_instructions2_key.rt,sm_instructions2_key.duration,reset_run.started,reset_run.stopped,shuffle_items.started,shuffle_items.stopped,set_up_runs.started,set_up_runs.stopped,load_iti.started,load_iti.stopped,prep_scanner.started,scanner_ready_press.started,ready_set_text.started,prep_scanner.stopped,runs.scanner_ready_press.keys,runs.scanner_ready_press.rt,runs.scanner_ready_press.duration,wait_for_trigger.started,starting_soon.started,skip_trigger.started,wait_for_trigger.stopped,runs.skip_trigger.keys,blank.started,begin_end_run_cross.started,sound_1.started,sound_1.stopped,sound_2.started,sound_2.stopped,begin_end_run_cross.stopped,blank.stopped,CurrentItem,CurrentITI,set_up_trial.started,set_up_trial.stopped,sm_iti.started,iti_cross.started,iti_cross.stopped,sm_iti.stopped,item.started,living_nonliving.started,end_mapping.started,living_nonliving_text.started,semantic_map_item.started,living_nonliving.stopped,end_mapping.stopped,living_nonliving_text.stopped,semantic_map_item.stopped,item.stopped,semantic_mapping_run.living_nonliving.keys,semantic_mapping_run.living_nonliving.rt,semantic_mapping_run.living_nonliving.duration,semantic_mapping_run.end_mapping.keys,fieldmap.started,fieldmap.stopped,runs.fm_key.keys,task_break.started,feeback_text.started,task_break_text.started,task_break_resp.started,feeback_text.stopped,task_break.stopped,runs.task_break_resp.keys,runs.task_break_resp.rt,runs.task_break_resp.duration,fm_text.started,fm_key.started,runs.fm_key.rt,runs.fm_key.duration,thanks.started,thanks_text.started,thanks.stopped,PID,MRI,date,expName,psychopyVersion,frameRate,expStart,
,,,,,,,,,,,,,,,,,,,,,,,,,,,,,,,,,,,,,,0.005323299999872688,0.01662410000062664,0.01662410000062664,97.66925430000083,space,97.64112539999951,None,,,,,,,,,,,,,,,,,,,,,,,,,,,,,,,,,,,,,,,,,,,,,,,,,,,,,,,,,,,,,,,,,,,,,,,,,,,,,,,,,,,,,,,,,,,6532,1,2025-07-29_16h28.40.266,sm,2024.2.4,59.98220927655392,2025-07-29 16h29.02.192553 +0200,
,,,,,,,,,,,,,,,,,,,,,,,,,,,,,,,,,,,,,,,,,,,,,97.66938560000017,97.67798810000022,97.67798810000022,176.90841060000093,space,79.21197639999991,None,,,,,,,,,,,,,,,,,,,,,,,,,,,,,,,,,,,,,,,,,,,,,,,,,,,,,,,,,,,,,,,,,,,,,,,,,,,,,,,,,,,,6532,1,2025-07-29_16h28.40.266,sm,2024.2.4,59.98220927655392,2025-07-29 16h29.02.192553 +0200,
,,,,,,,,,,,,,,,,,,,,,,,,,,,,,,,,,,,,,,,,,,,,,,,,,,,,176.90852780000023,176.9232886000009,176.9232886000009,186.5746024,2,9.63782700000047,None,,,,,,,,,,,,,,,,,,,,,,,,,,,,,,,,,,,,,,,,,,,,,,,,,,,,,,,,,,,,,,,,,,,,,,,,,,,,,6532,1,2025-07-29_16h28.40.266,sm,2024.2.4,59.98220927655392,2025-07-29 16h29.02.192553 +0200,
,,,,,,,,,,,,,,,,,,,,,,,,,,,,,,,,,,,,,,,,,,,,,,,,,,,,,,,,,,,186.57472130000133,186.58934950000003,186.58934950000003,198.00555370000075,2,11.407384300000558,None,,,,,,,,,,,,,,,,,,,,,,,,,,,,,,,,,,,,,,,,,,,,,,,,,,,,,,,,,,,,,,,,,,,,,,6532,1,2025-07-29_16h28.40.266,sm,2024.2.4,59.98220927655392,2025-07-29 16h29.02.192553 +0200,
0,0,0,Professor,Student,Lehrer,Universität,3.8333,space,9.332158199998958,None,None,3,1.733820999999807,None,None,0,0,0,0,0,79,79,70,0,0,0,0,0,79,79,19,0,0,0,0,266.50118590000056,,,,,,,,,,,,,,,,,,,,,,,,,,,,,,198.006529100001,198.00734490000104,198.07316119999996,198.07340300000033,198.07787149999967,198.07816830000047,198.10781029999998,198.10800910000034,198.11466260000088,198.11852650000037,198.11852650000037,207.4570472000014,space,9.332158199998958,None,207.4572059000002,207.4714808000008,207.4714808000008,254.4849073000005,None,254.49304640000082,254.5020738000003,254.50040066666796,255.7109657000001,264.4849266666681,265.4909032000014,266.50118590000056,266.48568460000024,Mappe,3.8333,266.48701080000137,266.4877637999998,266.4907608000012,266.50118590000056,270.33450919999996,270.318947400001,270.32321460000094,270.33450919999996,270.33450919999996,270.33450919999996,270.33450919999996,272.3346687000012,272.3346687000012,272.3346687000012,272.3346687000012,272.31857670000136,3,1.733820999999807,None,None,,,,,,,,,,,,,,,,,,,,6532,1,2025-07-29_16h28.40.266,sm,2024.2.4,59.98220927655392,2025-07-29 16h29.02.192553 +0200,
1,0,1,,,,,,space,9.332158199998958,None,None,3,1.246297499999855,0.2267890000002808,None,0,0,0,0,,,,,0,0,0,0,,,,,1,0,1,0,272.3346687000012,,,,,,,,,,,,,,,,,,,,,,,,,,,,,,,,,,,,,,,,,,,,,,,,,,,,,,,,,,Seife,3.3247,272.3189772000005,272.31945030000134,272.31953050000084,272.3346687000012,275.66753130000143,275.6519033000004,275.6553689000011,275.66753130000143,275.66753130000143,275.66753130000143,275.66753130000143,277.6675771000009,277.6675771000009,277.6675771000009,277.6675771000009,277.65229660000114,3,1.246297499999855,0.2267890000002808,None,,,,,,,,,,,,,,,,,,,,6532,1,2025-07-29_16h28.40.266,sm,2024.2.4,59.98220927655392,2025-07-29 16h29.02.192553 +0200,
2,0,2,,,,,,space,9.332158199998958,None,None,3,1.1769513999988703,0.2228783000009571,None,0,0,0,0,,,,,0,0,0,0,,,,,2,0,2,0,277.6675771000009,,,,,,,,,,,,,,,,,,,,,,,,,,,,,,,,,,,,,,,,,,,,,,,,,,,,,,,,,,Farbe,4.7206,277.65281230000073,277.6533614,277.6534689,277.6675771000009,282.4003730000004,282.3848271000006,282.39128470000105,282.4003730000004,282.4003730000004,282.4003730000004,282.4003730000004,284.4003717000014,284.4003717000014,284.4003717000014,284.4003717000014,284.38476450000053,3,1.1769513999988703,0.2228783000009571,None,,,,,,,,,,,,,,,,,,,,6532,1,2025-07-29_16h28.40.266,sm,2024.2.4,59.98220927655392,2025-07-29 16h29.02.192553 +0200,
3,0,3,,,,,,space,9.332158199998958,None,None,3,1.392320999999356,0.21207630000026256,None,0,0,0,0,,,,,0,0,0,0,,,,,3,0,3,0,284.4003717000014,,,,,,,,,,,,,,,,,,,,,,,,,,,,,,,,,,,,,,,,,,,,,,,,,,,,,,,,,,Gleis,2.0171,284.3852415000001,284.3857275999999,284.3858269000011,284.4003717000014,286.4168308999997,286.40151610000066,286.40512130000025,286.4168308999997,286.4168308999997,286.4168308999997,286.4168308999997,288.4168580000005,288.4168580000005,288.4168580000005,288.4168580000005,288.40128280000135,3,1.392320999999356,0.21207630000026256,None,,,,,,,,,,,,,,,,,,,,6532,1,2025-07-29_16h28.40.266,sm,2024.2.4,59.98220927655392,2025-07-29 16h29.02.192553 +0200,
4,0,4,,,,,,space,9.332158199998958,None,None,3,1.2366211000007752,0.24275719999968715,None,0,0,0,0,,,,,0,0,0,0,,,,,4,0,4,0,288.4168580000005,,,,,,,,,,,,,,,,,,,,,,,,,,,,,,,,,,,,,,,,,,,,,,,,,,,,,,,,,,Zapfen,2.1581,288.4017592,288.4023708000004,288.4025464000006,288.4168580000005,290.5835153000007,290.56766750000133,290.57331909999994,290.5835153000007,290.5835153000007,290.5835153000007,290.5835153000007,292.5835106000013,292.5835106000013,292.5835106000013,292.5835106000013,292.56762720000006,3,1.2366211000007752,0.24275719999968715,None,,,,,,,,,,,,,,,,,,,,6532,1,2025-07-29_16h28.40.266,sm,2024.2.4,59.98220927655392,2025-07-29 16h29.02.192553 +0200,
5,0,5,,,,,,space,9.332158199998958,None,None,3,1.7473731999998563,0.20215030000144907,None,0,0,0,0,,,,,0,0,0,0,,,,,5,0,5,0,292.5835106000013,,,,,,,,,,,,,,,,,,,,,,,,,,,,,,,,,,,,,,,,,,,,,,,,,,,,,,,,,,Orange,2.3373,292.5681096999997,292.5685923000001,292.56869430000006,292.5835106000013,294.93295709999984,294.9174914000014,294.92306650000137,294.93295709999984,294.93295709999984,294.93295709999984,294.93295709999984,296.9331290000009,296.9331290000009,296.9331290000009,296.9331290000009,296.9176101000012,3,1.7473731999998563,0.20215030000144907,None,,,,,,,,,,,,,,,,,,,,6532,1,2025-07-29_16h28.40.266,sm,2024.2.4,59.98220927655392,2025-07-29 16h29.02.192553 +0200,
6,0,6,,,,,,space,9.332158199998958,None,None,2,1.2428985000005923,0.19883389999995416,None,0,0,0,0,,,,,0,0,0,0,,,,,6,0,6,0,296.9331290000009,,,,,,,,,,,,,,,,,,,,,,,,,,,,,,,,,,,,,,,,,,,,,,,,,,,,,,,,,,Gelenk,2.9651,296.9181191000007,296.9186339000007,296.9187395000008,296.9331290000009,299.89951960000144,299.883997500001,299.8878741000008,299.89951960000144,299.89951960000144,299.89951960000144,299.89951960000144,301.89973439999994,301.89973439999994,301.89973439999994,301.89973439999994,301.8838398000007,2,1.2428985000005923,0.19883389999995416,None,,,,,,,,,,,,,,,,,,,,6532,1,2025-07-29_16h28.40.266,sm,2024.2.4,59.98220927655392,2025-07-29 16h29.02.192553 +0200,
7,0,7,,,,,,space,9.332158199998958,None,None,3,1.2259580999998434,0.34646600000087346,None,0,0,0,0,,,,,0,0,0,0,,,,,7,0,7,0,301.89973439999994,,,,,,,,,,,,,,,,,,,,,,,,,,,,,,,,,,,,,,,,,,,,,,,,,,,,,,,,,,Netz,2.0338,301.88431649999984,301.8848189,301.8849248000006,301.89973439999994,303.9326798000002,303.91711899999973,303.92064420000133,303.9326798000002,303.9326798000002,303.9326798000002,303.9326798000002,305.93256459999975,305.93256459999975,305.93256459999975,305.93256459999975,305.91728310000144,3,1.2259580999998434,0.34646600000087346,None,,,,,,,,,,,,,,,,,,,,6532,1,2025-07-29_16h28.40.266,sm,2024.2.4,59.98220927655392,2025-07-29 16h29.02.192553 +0200,
8,0,8,,,,,,space,9.332158199998958,None,None,2,1.1093983000009757,0.18690309999874444,None,0,0,0,0,,,,,0,0,0,0,,,,,8,0,8,0,305.93256459999975,,,,,,,,,,,,,,,,,,,,,,,,,,,,,,,,,,,,,,,,,,,,,,,,,,,,,,,,,,Zwerg,2.5462,305.9177872,305.91837300000043,305.9184786000005,305.93256459999975,308.48195810000107,308.4685023000002,308.4724532,308.48195810000107,308.48195810000107,308.48195810000107,308.48195810000107,310.4829243000004,310.4829243000004,310.4829243000004,310.4829243000004,310.46717720000015,2,1.1093983000009757,0.18690309999874444,None,,,,,,,,,,,,,,,,,,,,6532,1,2025-07-29_16h28.40.266,sm,2024.2.4,59.98220927655392,2025-07-29 16h29.02.192553 +0200,
9,0,9,,,,,,space,9.332158199998958,None,None,3,1.2302943000013329,0.23287529999834078,None,0,0,0,0,,,,,0,0,0,0,,,,,9,0,9,0,310.4829243000004,,,,,,,,,,,,,,,,,,,,,,,,,,,,,,,,,,,,,,,,,,,,,,,,,,,,,,,,,,Tasche,2.1702,310.4676964999999,310.4682102000006,310.46831829999974,310.4829243000004,312.6662300000007,312.65008600000147,312.65429920000133,312.6662300000007,312.6662300000007,312.6662300000007,312.6662300000007,314.6655288000002,314.6655288000002,314.6655288000002,314.6655288000002,314.649613900001,3,1.2302943000013329,0.23287529999834078,None,,,,,,,,,,,,,,,,,,,,6532,1,2025-07-29_16h28.40.266,sm,2024.2.4,59.98220927655392,2025-07-29 16h29.02.192553 +0200,
10,0,10,,,,,,space,9.332158199998958,None,None,3,0.8692484000002878,0.24383470000066154,None,0,0,0,0,,,,,0,0,0,0,,,,,10,0,10,0,314.6655288000002,,,,,,,,,,,,,,,,,,,,,,,,,,,,,,,,,,,,,,,,,,,,,,,,,,,,,,,,,,Weihnachten,2.712,314.6500973000002,314.6505966000004,314.6506958000009,314.6655288000002,317.3819418000003,317.3662156999999,317.3704088000013,317.3819418000003,317.3819418000003,317.3819418000003,317.3819418000003,319.3820262999998,319.3820262999998,319.3820262999998,319.3820262999998,319.3663391000009,3,0.8692484000002878,0.24383470000066154,None,,,,,,,,,,,,,,,,,,,,6532,1,2025-07-29_16h28.40.266,sm,2024.2.4,59.98220927655392,2025-07-29 16h29.02.192553 +0200,
11,0,11,,,,,,space,9.332158199998958,None,None,2,0.920598599999721,0.20092440000007628,None,0,0,0,0,,,,,0,0,0,0,,,,,11,0,11,0,319.3820262999998,,,,,,,,,,,,,,,,,,,,,,,,,,,,,,,,,,,,,,,,,,,,,,,,,,,,,,,,,,Ziege,2.5997,319.36685410000064,319.3674418999999,319.36754870000004,319.3820262999998,321.9815120000003,321.9658092999998,321.96914880000077,321.9815120000003,321.9815120000003,321.9815120000003,321.9815120000003,323.98207710000133,323.98207710000133,323.98207710000133,323.98207710000133,323.96577700000125,2,0.920598599999721,0.20092440000007628,None,,,,,,,,,,,,,,,,,,,,6532,1,2025-07-29_16h28.40.266,sm,2024.2.4,59.98220927655392,2025-07-29 16h29.02.192553 +0200,
12,0,12,,,,,,space,9.332158199998958,None,None,3,0.9656195000006846,0.2432610999985627,None,0,0,0,0,,,,,0,0,0,0,,,,,12,0,12,0,323.98207710000133,,,,,,,,,,,,,,,,,,,,,,,,,,,,,,,,,,,,,,,,,,,,,,,,,,,,,,,,,,Urlaub,4.5296,323.96628539999983,323.96693589999995,323.96704169999975,323.98207710000133,328.51458210000055,328.4990790000011,328.50502750000123,328.51458210000055,328.51458210000055,328.51458210000055,328.51458210000055,330.5145487000009,330.5145487000009,330.5145487000009,330.5145487000009,330.4989258000005,3,0.9656195000006846,0.2432610999985627,None,,,,,,,,,,,,,,,,,,,,6532,1,2025-07-29_16h28.40.266,sm,2024.2.4,59.98220927655392,2025-07-29 16h29.02.192553 +0200,
13,0,13,,,,,,space,9.332158199998958,None,None,3,1.1001152000008005,0.2293283999988489,None,0,0,0,0,,,,,0,0,0,0,,,,,13,0,13,0,330.5145487000009,,,,,,,,,,,,,,,,,,,,,,,,,,,,,,,,,,,,,,,,,,,,,,,,,,,,,,,,,,Kante,2.416,330.4994303000003,330.5000906000005,330.50019710000015,330.5145487000009,332.93077620000076,332.9152446999997,332.9209609999998,332.93077620000076,332.93077620000076,332.93077620000076,332.93077620000076,334.9310064000001,334.9310064000001,334.9310064000001,334.9310064000001,334.9159311000003,3,1.1001152000008005,0.2293283999988489,None,,,,,,,,,,,,,,,,,,,,6532,1,2025-07-29_16h28.40.266,sm,2024.2.4,59.98220927655392,2025-07-29 16h29.02.192553 +0200,
14,0,14,,,,,,space,9.332158199998958,None,None,3,1.4480421999996906,0.22192329999961657,None,0,0,0,0,,,,,0,0,0,0,,,,,14,0,14,0,334.9310064000001,,,,,,,,,,,,,,,,,,,,,,,,,,,,,,,,,,,,,,,,,,,,,,,,,,,,,,,,,,Kino,2.0293,334.9164371000006,334.9170850999999,334.9171896000007,334.9310064000001,336.96417290000136,336.9482731999997,336.9523543000014,336.96417290000136,336.96417290000136,336.96417290000136,336.96417290000136,338.96410060000017,338.96410060000017,338.96410060000017,338.96410060000017,338.94855930000085,3,1.4480421999996906,0.22192329999961657,None,,,,,,,,,,,,,,,,,,,,6532,1,2025-07-29_16h28.40.266,sm,2024.2.4,59.98220927655392,2025-07-29 16h29.02.192553 +0200,
15,0,15,,,,,,space,9.332158199998958,None,None,3,1.0064168000008067,0.2317483999995602,None,0,0,0,0,,,,,0,0,0,0,,,,,15,0,15,0,338.96410060000017,,,,,,,,,,,,,,,,,,,,,,,,,,,,,,,,,,,,,,,,,,,,,,,,,,,,,,,,,,Geburtstag,4.1527,338.94907930000045,338.9496135999998,338.9497191999999,338.96410060000017,343.1303359000012,343.1147464000005,343.1184494000008,343.1303359000012,343.1303359000012,343.1303359000012,343.1303359000012,345.13042140000107,345.13042140000107,345.13042140000107,345.13042140000107,345.1148728999997,3,1.0064168000008067,0.2317483999995602,None,,,,,,,,,,,,,,,,,,,,6532,1,2025-07-29_16h28.40.266,sm,2024.2.4,59.98220927655392,2025-07-29 16h29.02.192553 +0200,
16,0,16,,,,,,space,9.332158199998958,None,None,3,1.6996018999998341,0.22819090000120923,None,0,0,0,0,,,,,0,0,0,0,,,,,16,0,16,0,345.13042140000107,,,,,,,,,,,,,,,,,,,,,,,,,,,,,,,,,,,,,,,,,,,,,,,,,,,,,,,,,,Luft,2.1052,345.1153852000007,345.1158852000008,345.1159920000009,345.13042140000107,347.2468176000002,347.23099980000006,347.23396460000004,347.2468176000002,347.2468176000002,347.2468176000002,347.2468176000002,349.24668550000024,349.24668550000024,349.24668550000024,349.24668550000024,349.2316658,3,1.6996018999998341,0.22819090000120923,None,,,,,,,,,,,,,,,,,,,,6532,1,2025-07-29_16h28.40.266,sm,2024.2.4,59.98220927655392,2025-07-29 16h29.02.192553 +0200,
17,0,17,,,,,,space,9.332158199998958,None,None,3,1.0864975000004051,0.22572869999930845,None,0,0,0,0,,,,,0,0,0,0,,,,,17,0,17,0,349.24668550000024,,,,,,,,,,,,,,,,,,,,,,,,,,,,,,,,,,,,,,,,,,,,,,,,,,,,,,,,,,Schlamm,2.1991,349.23217509999995,349.2326884000013,349.2327952000014,349.24668550000024,351.4465919000013,351.43082200000026,351.4343852000002,351.4465919000013,351.4465919000013,351.4465919000013,351.4465919000013,353.44656100000066,353.44656100000066,353.44656100000066,353.44656100000066,353.431258300001,3,1.0864975000004051,0.22572869999930845,None,,,,,,,,,,,,,,,,,,,,6532,1,2025-07-29_16h28.40.266,sm,2024.2.4,59.98220927655392,2025-07-29 16h29.02.192553 +0200,
18,0,18,,,,,,space,9.332158199998958,None,None,3,1.2424831999996968,0.23140219999913825,None,0,0,0,0,,,,,0,0,0,0,,,,,18,0,18,0,353.44656100000066,,,,,,,,,,,,,,,,,,,,,,,,,,,,,,,,,,,,,,,,,,,,,,,,,,,,,,,,,,Gras,2.8047,353.43178850000004,353.4324859999997,353.4325991000005,353.44656100000066,356.26286620000064,356.24755770000047,356.2511368000014,356.26286620000064,356.26286620000064,356.26286620000064,356.26286620000064,358.26299629999994,358.26299629999994,358.26299629999994,358.26299629999994,358.24737000000096,3,1.2424831999996968,0.23140219999913825,None,,,,,,,,,,,,,,,,,,,,6532,1,2025-07-29_16h28.40.266,sm,2024.2.4,59.98220927655392,2025-07-29 16h29.02.192553 +0200,
19,0,19,,,,,,space,9.332158199998958,None,None,2,0.9130817000004754,0.2167912000004435,None,0,0,0,0,,,,,0,0,0,0,,,,,19,0,19,0,358.26299629999994,,,,,,,,,,,,,,,,,,,,,,,,,,,,,,,,,,,,,,,,,,,,,,,,,,,,,,,,,,Wurm,2.462,358.24788249999983,358.2484602000004,358.24856440000076,358.26299629999994,360.7295597000011,360.7137593000007,360.71747870000036,360.7295597000011,360.7295597000011,360.7295597000011,360.7295597000011,362.72955750000074,362.72955750000074,362.72955750000074,362.72955750000074,362.7139106000013,2,0.9130817000004754,0.2167912000004435,None,,,,,,,,,,,,,,,,,,,,6532,1,2025-07-29_16h28.40.266,sm,2024.2.4,59.98220927655392,2025-07-29 16h29.02.192553 +0200,
20,0,20,,,,,,space,9.332158199998958,None,None,None,,,None,0,0,0,0,,,,,0,0,0,0,,,,,20,0,20,0,362.72955750000074,,,,,,,,,,,,,,,,,,,,,,,,,,,,,,,,,,,,,,,,,,,,,,,,,,,,,,,,,,Zähne,3.9595,362.71441980000054,362.7149311000012,362.71503740000117,362.72955750000074,366.6956949000014,366.6801437000013,366.6839086,366.6956949000014,366.6956949000014,366.6956949000014,366.6956949000014,368.6957196000003,368.6957196000003,368.6957196000003,368.6957196000003,368.68000120000033,None,,,None,,,,,,,,,,,,,,,,,,,,6532,1,2025-07-29_16h28.40.266,sm,2024.2.4,59.98220927655392,2025-07-29 16h29.02.192553 +0200,
21,0,21,,,,,,space,9.332158199998958,None,None,3,0.938329499998872,0.22474080000029062,None,0,0,0,0,,,,,0,0,0,0,,,,,21,0,21,0,368.6957196000003,,,,,,,,,,,,,,,,,,,,,,,,,,,,,,,,,,,,,,,,,,,,,,,,,,,,,,,,,,Teleskop,2.7121,368.68048030000136,368.6809942,368.68114510000123,368.6957196000003,371.4122993000001,371.39645460000065,371.4005664000015,371.4122993000001,371.4122993000001,371.4122993000001,371.4122993000001,373.4121255000009,373.4121255000009,373.4121255000009,373.4121255000009,373.3964793000014,3,0.938329499998872,0.22474080000029062,None,,,,,,,,,,,,,,,,,,,,6532,1,2025-07-29_16h28.40.266,sm,2024.2.4,59.98220927655392,2025-07-29 16h29.02.192553 +0200,
22,0,22,,,,,,space,9.332158199998958,None,None,3,0.9287425000002258,0.22133410000060394,None,0,0,0,0,,,,,0,0,0,0,,,,,22,0,22,0,373.4121255000009,,,,,,,,,,,,,,,,,,,,,,,,,,,,,,,,,,,,,,,,,,,,,,,,,,,,,,,,,,Gold,2.5506,373.39695290000054,373.3975906000014,373.3976907000015,373.4121255000009,375.96165590000055,375.9465173999997,375.94938100000036,375.96165590000055,375.96165590000055,375.96165590000055,375.96165590000055,377.9619380000004,377.9619380000004,377.9619380000004,377.9619380000004,377.94630120000147,3,0.9287425000002258,0.22133410000060394,None,,,,,,,,,,,,,,,,,,,,6532,1,2025-07-29_16h28.40.266,sm,2024.2.4,59.98220927655392,2025-07-29 16h29.02.192553 +0200,
23,0,23,,,,,,space,9.332158199998958,None,None,2,0.9821213999985048,0.22974580000118294,None,0,0,0,0,,,,,0,0,0,0,,,,,23,0,23,0,377.9619380000004,,,,,,,,,,,,,,,,,,,,,,,,,,,,,,,,,,,,,,,,,,,,,,,,,,,,,,,,,,Turnerin,2.8276,377.94680719999997,377.94745890000013,377.94756400000006,377.9619380000004,380.79511640000055,380.7789577000003,380.7824333000008,380.79511640000055,380.79511640000055,380.79511640000055,380.79511640000055,382.7948756000005,382.7948756000005,382.7948756000005,382.7948756000005,382.77945499999987,2,0.9821213999985048,0.22974580000118294,None,,,,,,,,,,,,,,,,,,,,6532,1,2025-07-29_16h28.40.266,sm,2024.2.4,59.98220927655392,2025-07-29 16h29.02.192553 +0200,
24,0,24,,,,,,space,9.332158199998958,None,None,3,0.9193761999995331,0.24074889999974403,None,0,0,0,0,,,,,0,0,0,0,,,,,24,0,24,0,382.7948756000005,,,,,,,,,,,,,,,,,,,,,,,,,,,,,,,,,,,,,,,,,,,,,,,,,,,,,,,,,,Bluse,2.3537,382.7799627000004,382.7804711000008,382.780576000001,382.7948756000005,385.16101850000086,385.1458435000004,385.1495369000004,385.16101850000086,385.16101850000086,385.16101850000086,385.16101850000086,387.16151549999995,387.16151549999995,387.16151549999995,387.16151549999995,387.14573949999976,3,0.9193761999995331,0.24074889999974403,None,,,,,,,,,,,,,,,,,,,,6532,1,2025-07-29_16h28.40.266,sm,2024.2.4,59.98220927655392,2025-07-29 16h29.02.192553 +0200,
25,0,25,,,,,,space,9.332158199998958,None,None,3,0.8821254999984376,0.22836450000067998,None,0,0,0,0,,,,,0,0,0,0,,,,,25,0,25,0,387.16151549999995,,,,,,,,,,,,,,,,,,,,,,,,,,,,,,,,,,,,,,,,,,,,,,,,,,,,,,,,,,Tisch,3.5493,387.1462145000005,387.1468476000009,387.1469491000007,387.16151549999995,390.7107582000008,390.6955814000012,390.6993209000011,390.7107582000008,390.7107582000008,390.7107582000008,390.7107582000008,392.71102130000145,392.71102130000145,392.71102130000145,392.71102130000145,392.69560850000016,3,0.8821254999984376,0.22836450000067998,None,,,,,,,,,,,,,,,,,,,,6532,1,2025-07-29_16h28.40.266,sm,2024.2.4,59.98220927655392,2025-07-29 16h29.02.192553 +0200,
26,0,26,,,,,,space,9.332158199998958,None,None,3,1.587738600001103,0.20002299999941897,None,0,0,0,0,,,,,0,0,0,0,,,,,26,0,26,0,392.71102130000145,,,,,,,,,,,,,,,,,,,,,,,,,,,,,,,,,,,,,,,,,,,,,,,,,,,,,,,,,,Schloss,4.1997,392.6961241000008,392.6966413000009,392.69674900000064,392.71102130000145,396.9106053000014,396.89517420000084,396.8985810000013,396.9106053000014,396.9106053000014,396.9106053000014,396.9106053000014,398.9105606000012,398.9105606000012,398.9105606000012,398.9105606000012,398.89501910000035,3,1.587738600001103,0.20002299999941897,None,,,,,,,,,,,,,,,,,,,,6532,1,2025-07-29_16h28.40.266,sm,2024.2.4,59.98220927655392,2025-07-29 16h29.02.192553 +0200,
27,0,27,,,,,,space,9.332158199998958,None,None,3,0.9650330000004033,0.23347389999980805,None,0,0,0,0,,,,,0,0,0,0,,,,,27,0,27,0,398.9105606000012,,,,,,,,,,,,,,,,,,,,,,,,,,,,,,,,,,,,,,,,,,,,,,,,,,,,,,,,,,Universität,2.0259,398.8955442000006,398.8961459000002,398.8962554999998,398.9105606000012,400.9436913999998,400.92828120000013,400.9322153000012,400.9436913999998,400.9436913999998,400.9436913999998,400.9436913999998,402.9436704,402.9436704,402.9436704,402.9436704,402.9281049000001,3,0.9650330000004033,0.23347389999980805,None,,,,,,,,,,,,,,,,,,,,6532,1,2025-07-29_16h28.40.266,sm,2024.2.4,59.98220927655392,2025-07-29 16h29.02.192553 +0200,
28,0,28,,,,,,space,9.332158199998958,None,None,3,1.5856114999987767,0.22737180000149237,None,0,0,0,0,,,,,0,0,0,0,,,,,28,0,28,0,402.9436704,,,,,,,,,,,,,,,,,,,,,,,,,,,,,,,,,,,,,,,,,,,,,,,,,,,,,,,,,,Finger,3.379,402.92861280000034,402.92913659999977,402.929244500001,402.9436704,406.326771,406.3110128999997,406.3154880000002,406.326771,406.326771,406.326771,406.326771,408.32674020000013,408.32674020000013,408.32674020000013,408.32674020000013,408.3111809000002,3,1.5856114999987767,0.22737180000149237,None,,,,,,,,,,,,,,,,,,,,6532,1,2025-07-29_16h28.40.266,sm,2024.2.4,59.98220927655392,2025-07-29 16h29.02.192553 +0200,
29,0,29,,,,,,space,9.332158199998958,None,None,3,0.8596314000005805,0.24534239999957208,None,0,0,0,0,,,,,0,0,0,0,,,,,29,0,29,0,408.32674020000013,,,,,,,,,,,,,,,,,,,,,,,,,,,,,,,,,,,,,,,,,,,,,,,,,,,,,,,,,,Bildung,3.5525,408.31168810000054,408.3121890000002,408.31229450000137,408.32674020000013,411.8930418,411.8777144000014,411.8813686000012,411.8930418,411.8930418,411.8930418,411.8930418,413.8931370999999,413.8931370999999,413.8931370999999,413.8931370999999,413.8774487999999,3,0.8596314000005805,0.24534239999957208,None,,,,,,,,,,,,,,,,,,,,6532,1,2025-07-29_16h28.40.266,sm,2024.2.4,59.98220927655392,2025-07-29 16h29.02.192553 +0200,
30,0,30,,,,,,space,9.332158199998958,None,None,3,0.9802275000001828,0.2503913999989891,None,0,0,0,0,,,,,0,0,0,0,,,,,30,0,30,0,413.8931370999999,,,,,,,,,,,,,,,,,,,,,,,,,,,,,,,,,,,,,,,,,,,,,,,,,,,,,,,,,,Album,3.0691,413.87796119999985,413.8784742000007,413.87858640000013,413.8931370999999,416.9761795000013,416.96068110000124,416.9647345000012,416.9761795000013,416.9761795000013,416.9761795000013,416.9761795000013,418.9762996999998,418.9762996999998,418.9762996999998,418.9762996999998,418.9612449000015,3,0.9802275000001828,0.2503913999989891,None,,,,,,,,,,,,,,,,,,,,6532,1,2025-07-29_16h28.40.266,sm,2024.2.4,59.98220927655392,2025-07-29 16h29.02.192553 +0200,
31,0,31,,,,,,space,9.332158199998958,None,None,3,0.9653557000001456,0.24740960000053747,None,0,0,0,0,,,,,0,0,0,0,,,,,31,0,31,0,418.9762996999998,,,,,,,,,,,,,,,,,,,,,,,,,,,,,,,,,,,,,,,,,,,,,,,,,,,,,,,,,,Helm,2.5269,418.9617644000009,418.9622797000011,418.96239010000136,418.9762996999998,421.50891050000064,421.49420290000126,421.5012853999997,421.50891050000064,421.50891050000064,421.50891050000064,421.50891050000064,423.50934849999976,423.50934849999976,423.50934849999976,423.50934849999976,423.49374739999985,3,0.9653557000001456,0.24740960000053747,None,,,,,,,,,,,,,,,,,,,,6532,1,2025-07-29_16h28.40.266,sm,2024.2.4,59.98220927655392,2025-07-29 16h29.02.192553 +0200,
32,0,32,,,,,,space,9.332158199998958,None,None,3,1.4288354000000254,0.21253140000044368,None,0,0,0,0,,,,,0,0,0,0,,,,,32,0,32,0,423.50934849999976,,,,,,,,,,,,,,,,,,,,,,,,,,,,,,,,,,,,,,,,,,,,,,,,,,,,,,,,,,Kartoffel,2.0109,423.49422700000105,423.494739400001,423.494838300001,423.50934849999976,425.52671069999997,425.51025240000126,425.51434040000095,425.52671069999997,425.52671069999997,425.52671069999997,425.52671069999997,427.52590670000063,427.52590670000063,427.52590670000063,427.52590670000063,427.5102482000002,3,1.4288354000000254,0.21253140000044368,None,,,,,,,,,,,,,,,,,,,,6532,1,2025-07-29_16h28.40.266,sm,2024.2.4,59.98220927655392,2025-07-29 16h29.02.192553 +0200,
33,0,33,,,,,,space,9.332158199998958,None,None,3,1.5093648999991274,0.24092259999997623,None,0,0,0,0,,,,,0,0,0,0,,,,,33,0,33,0,427.52590670000063,,,,,,,,,,,,,,,,,,,,,,,,,,,,,,,,,,,,,,,,,,,,,,,,,,,,,,,,,,Klee,2.7158,427.51075579999997,427.51145480000014,427.51156940000146,427.52590670000063,430.2420653999998,430.22636070000044,430.22925700000087,430.2420653999998,430.2420653999998,430.2420653999998,430.2420653999998,432.2422604000003,432.2422604000003,432.2422604000003,432.2422604000003,432.22676180000053,3,1.5093648999991274,0.24092259999997623,None,,,,,,,,,,,,,,,,,,,,6532,1,2025-07-29_16h28.40.266,sm,2024.2.4,59.98220927655392,2025-07-29 16h29.02.192553 +0200,
34,0,34,,,,,,space,9.332158199998958,None,None,2,0.9865225000012288,0.203396499999144,None,0,0,0,0,,,,,0,0,0,0,,,,,34,0,34,0,432.2422604000003,,,,,,,,,,,,,,,,,,,,,,,,,,,,,,,,,,,,,,,,,,,,,,,,,,,,,,,,,,Eltern,4.1936,432.2272692000006,432.22776909999993,432.22787750000134,432.2422604000003,436.4417852000006,436.4263496000003,436.43051040000137,436.4417852000006,436.4417852000006,436.4417852000006,436.4417852000006,438.44187349999993,438.44187349999993,438.44187349999993,438.44187349999993,438.42642309999974,2,0.9865225000012288,0.203396499999144,None,,,,,,,,,,,,,,,,,,,,6532,1,2025-07-29_16h28.40.266,sm,2024.2.4,59.98220927655392,2025-07-29 16h29.02.192553 +0200,
35,0,35,,,,,,space,9.332158199998958,None,None,3,1.0557895000001736,0.25557579999986046,None,0,0,0,0,,,,,0,0,0,0,,,,,35,0,35,0,438.44187349999993,,,,,,,,,,,,,,,,,,,,,,,,,,,,,,,,,,,,,,,,,,,,,,,,,,,,,,,,,,Platz,3.2107,438.4269316000009,438.4275567000004,438.4276645000009,438.44187349999993,441.65796450000016,441.6436140000005,441.6486631000007,441.65796450000016,441.65796450000016,441.65796450000016,441.65796450000016,443.65825360000053,443.65825360000053,443.65825360000053,443.65825360000053,443.6426883000004,3,1.0557895000001736,0.25557579999986046,None,,,,,,,,,,,,,,,,,,,,6532,1,2025-07-29_16h28.40.266,sm,2024.2.4,59.98220927655392,2025-07-29 16h29.02.192553 +0200,
36,0,36,,,,,,space,9.332158199998958,None,None,3,1.1937232000000222,0.263251999998829,None,0,0,0,0,,,,,0,0,0,0,,,,,36,0,36,0,443.65825360000053,,,,,,,,,,,,,,,,,,,,,,,,,,,,,,,,,,,,,,,,,,,,,,,,,,,,,,,,,,Nebel,4.2349,443.6431926000005,443.6437001000013,443.6438158000001,443.65825360000053,447.90752520000024,447.8921853000011,447.89585760000045,447.90752520000024,447.90752520000024,447.90752520000024,447.90752520000024,449.9079888000015,449.9079888000015,449.9079888000015,449.9079888000015,449.8921816000002,3,1.1937232000000222,0.263251999998829,None,,,,,,,,,,,,,,,,,,,,6532,1,2025-07-29_16h28.40.266,sm,2024.2.4,59.98220927655392,2025-07-29 16h29.02.192553 +0200,
37,0,37,,,,,,space,9.332158199998958,None,None,2,1.598849699999846,0.1778095999998186,None,0,0,0,0,,,,,0,0,0,0,,,,,37,0,37,0,449.9079888000015,,,,,,,,,,,,,,,,,,,,,,,,,,,,,,,,,,,,,,,,,,,,,,,,,,,,,,,,,,Sturm,2.5961,449.89263519999986,449.8931210999999,449.8932144999999,449.9079888000015,452.50772190000134,452.4908529000004,452.4936780000007,452.50772190000134,452.50772190000134,452.50772190000134,452.50772190000134,,,,,454.49113469999975,2,1.598849699999846,0.1778095999998186,None,,,,,,,,,,,,,,,,,,,,6532,1,2025-07-29_16h28.40.266,sm,2024.2.4,59.98220927655392,2025-07-29 16h29.02.192553 +0200,
38,0,38,,,,,,space,9.332158199998958,None,None,3,1.2805472999989433,0.23935520000122779,None,0,0,0,0,,,,,0,0,0,0,,,,,38,0,38,0,454.50784680000106,,,,,,,,,,,,,,,,,,,,,,,,,,,,,,,,,,,,,,,,,,,,,,,,,,,,,,,,,,Herbst,4.0757,454.49161989999993,454.4922647000003,454.4923768000008,454.50784680000106,458.5906157999998,458.57503090000137,458.579160700001,458.5906157999998,458.5906157999998,458.5906157999998,458.5906157999998,460.5904644000002,460.5904644000002,460.5904644000002,460.5904644000002,460.574961100001,3,1.2805472999989433,0.23935520000122779,None,,,,,,,,,,,,,,,,,,,,6532,1,2025-07-29_16h28.40.266,sm,2024.2.4,59.98220927655392,2025-07-29 16h29.02.192553 +0200,
39,0,39,,,,,,space,9.332158199998958,None,None,2,1.3387055000002874,0.20759390000057465,None,0,0,0,0,,,,,0,0,0,0,,,,,39,0,39,0,460.5904644000002,,,,,,,,,,,,,,,,,,,,,,,,,,,,,,,,,,,,,,,,,,,,,,,,,,,,,,,,,,Gegenwart,2.1561,460.5754665000004,460.57600450000064,460.57611050000014,460.5904644000002,462.7577063000008,462.741186700001,462.7445951999998,462.7577063000008,462.7577063000008,462.7577063000008,462.7577063000008,464.75686080000014,464.75686080000014,464.75686080000014,464.75686080000014,464.7413052000011,2,1.3387055000002874,0.20759390000057465,None,,,,,,,,,,,,,,,,,,,,6532,1,2025-07-29_16h28.40.266,sm,2024.2.4,59.98220927655392,2025-07-29 16h29.02.192553 +0200,
40,0,40,,,,,,space,9.332158199998958,None,None,3,1.1290784000011627,0.25123879999955534,None,0,0,0,0,,,,,0,0,0,0,,,,,40,0,40,0,464.75686080000014,,,,,,,,,,,,,,,,,,,,,,,,,,,,,,,,,,,,,,,,,,,,,,,,,,,,,,,,,,Zahnpasta,3.1792,464.7418084000001,464.7423791000001,464.74248500000067,464.75686080000014,467.9399556999997,467.92453879999994,467.9298725999997,467.9399556999997,467.9399556999997,467.9399556999997,467.9399556999997,469.9402074999998,469.9402074999998,469.9402074999998,469.9402074999998,469.92447730000094,3,1.1290784000011627,0.25123879999955534,None,,,,,,,,,,,,,,,,,,,,6532,1,2025-07-29_16h28.40.266,sm,2024.2.4,59.98220927655392,2025-07-29 16h29.02.192553 +0200,
41,0,41,,,,,,space,9.332158199998958,None,None,3,0.9435964000003878,0.26101070000004256,None,0,0,0,0,,,,,0,0,0,0,,,,,41,0,41,0,469.9402074999998,,,,,,,,,,,,,,,,,,,,,,,,,,,,,,,,,,,,,,,,,,,,,,,,,,,,,,,,,,Marmor,2.2655,469.9249854999998,469.92556049999985,469.92566910000096,469.9402074999998,472.2064461000009,472.19088920000104,472.19443560000036,472.2064461000009,472.2064461000009,472.2064461000009,472.2064461000009,474.2066692999997,474.2066692999997,474.2066692999997,474.2066692999997,474.19093430000066,3,0.9435964000003878,0.26101070000004256,None,,,,,,,,,,,,,,,,,,,,6532,1,2025-07-29_16h28.40.266,sm,2024.2.4,59.98220927655392,2025-07-29 16h29.02.192553 +0200,
42,0,42,,,,,,space,9.332158199998958,None,None,3,1.6456137999994098,0.22936790000130713,None,0,0,0,0,,,,,0,0,0,0,,,,,42,0,42,0,474.2066692999997,,,,,,,,,,,,,,,,,,,,,,,,,,,,,,,,,,,,,,,,,,,,,,,,,,,,,,,,,,Schwimmen,2.7194,474.19145560000106,474.1919702000014,474.19207690000076,474.2066692999997,476.9396144000002,476.9237549999998,476.9274740000001,476.9396144000002,476.9396144000002,476.9396144000002,476.9396144000002,478.9394348000005,478.9394348000005,478.9394348000005,478.9394348000005,478.9238795000001,3,1.6456137999994098,0.22936790000130713,None,,,,,,,,,,,,,,,,,,,,6532,1,2025-07-29_16h28.40.266,sm,2024.2.4,59.98220927655392,2025-07-29 16h29.02.192553 +0200,
43,0,43,,,,,,space,9.332158199998958,None,None,3,1.0573088000001007,0.23736680000001797,None,0,0,0,0,,,,,0,0,0,0,,,,,43,0,43,0,478.9394348000005,,,,,,,,,,,,,,,,,,,,,,,,,,,,,,,,,,,,,,,,,,,,,,,,,,,,,,,,,,Zeitung,3.0616,478.92437020000034,478.9250215000011,478.9251288000014,478.9394348000005,482.00587260000066,481.9902096000005,481.99330960000043,482.00587260000066,482.00587260000066,482.00587260000066,482.00587260000066,484.00572210000064,484.00572210000064,484.00572210000064,484.00572210000064,483.9903740000009,3,1.0573088000001007,0.23736680000001797,None,,,,,,,,,,,,,,,,,,,,6532,1,2025-07-29_16h28.40.266,sm,2024.2.4,59.98220927655392,2025-07-29 16h29.02.192553 +0200,
44,0,44,,,,,,space,9.332158199998958,None,None,3,0.8724007999990135,0.23896740000054706,None,0,0,0,0,,,,,0,0,0,0,,,,,44,0,44,0,484.00572210000064,,,,,,,,,,,,,,,,,,,,,,,,,,,,,,,,,,,,,,,,,,,,,,,,,,,,,,,,,,Vers,2.3094,483.9908823000005,483.9915950000013,483.99170480000066,484.00572210000064,486.32228300000133,486.3066376000006,486.30965280000055,486.32228300000133,486.32228300000133,486.32228300000133,486.32228300000133,488.3224086000009,488.3224086000009,488.3224086000009,488.3224086000009,488.30672330000016,3,0.8724007999990135,0.23896740000054706,None,,,,,,,,,,,,,,,,,,,,6532,1,2025-07-29_16h28.40.266,sm,2024.2.4,59.98220927655392,2025-07-29 16h29.02.192553 +0200,
45,0,45,,,,,,space,9.332158199998958,None,None,3,1.3777267999994365,0.22851230000014766,None,0,0,0,0,,,,,0,0,0,0,,,,,45,0,45,0,488.3224086000009,,,,,,,,,,,,,,,,,,,,,,,,,,,,,,,,,,,,,,,,,,,,,,,,,,,,,,,,,,Ferien,3.8126,488.30723240000043,488.30776700000024,488.30787670000063,488.3224086000009,492.1386827000006,492.1231136000006,492.12713910000093,492.1386827000006,492.1386827000006,492.1386827000006,492.1386827000006,494.138594,494.138594,494.138594,494.138594,494.1229725000012,3,1.3777267999994365,0.22851230000014766,None,,,,,,,,,,,,,,,,,,,,6532,1,2025-07-29_16h28.40.266,sm,2024.2.4,59.98220927655392,2025-07-29 16h29.02.192553 +0200,
46,0,46,,,,,,space,9.332158199998958,None,None,3,1.124036100000012,0.24990679999973509,None,0,0,0,0,,,,,0,0,0,0,,,,,46,0,46,0,494.138594,,,,,,,,,,,,,,,,,,,,,,,,,,,,,,,,,,,,,,,,,,,,,,,,,,,,,,,,,,Schutz,2.4338,494.1234860000004,494.1240162000013,494.12412250000125,494.138594,496.5723066999999,496.5561295000007,496.5602787000007,496.5723066999999,496.5723066999999,496.5723066999999,496.5723066999999,498.5718674,498.5718674,498.5718674,498.5718674,498.5560921000015,3,1.124036100000012,0.24990679999973509,None,,,,,,,,,,,,,,,,,,,,6532,1,2025-07-29_16h28.40.266,sm,2024.2.4,59.98220927655392,2025-07-29 16h29.02.192553 +0200,
47,0,47,,,,,,space,9.332158199998958,None,None,2,1.3060678000001644,0.2186836000000767,None,0,0,0,0,,,,,0,0,0,0,,,,,47,0,47,0,498.5718674,,,,,,,,,,,,,,,,,,,,,,,,,,,,,,,,,,,,,,,,,,,,,,,,,,,,,,,,,,Afrika,2.253,498.5566039000005,498.5572303000008,498.5573409999997,498.5718674,500.83828370000083,500.8228307999998,500.8276302000013,500.83828370000083,500.83828370000083,500.83828370000083,500.83828370000083,502.83836280000105,502.83836280000105,502.83836280000105,502.83836280000105,502.82274700000016,2,1.3060678000001644,0.2186836000000767,None,,,,,,,,,,,,,,,,,,,,6532,1,2025-07-29_16h28.40.266,sm,2024.2.4,59.98220927655392,2025-07-29 16h29.02.192553 +0200,
48,0,48,,,,,,space,9.332158199998958,None,None,3,1.122569699999076,0.24101400000108697,None,0,0,0,0,,,,,0,0,0,0,,,,,48,0,48,0,502.83836280000105,,,,,,,,,,,,,,,,,,,,,,,,,,,,,,,,,,,,,,,,,,,,,,,,,,,,,,,,,,Nudeln,2.4622,502.8232562000012,502.8237859000001,502.82390210000085,502.83836280000105,505.30507450000005,505.2891660000005,505.2932897999999,505.30507450000005,505.30507450000005,505.30507450000005,505.30507450000005,507.30475300000035,507.30475300000035,507.30475300000035,507.30475300000035,507.28911100000005,3,1.122569699999076,0.24101400000108697,None,,,,,,,,,,,,,,,,,,,,6532,1,2025-07-29_16h28.40.266,sm,2024.2.4,59.98220927655392,2025-07-29 16h29.02.192553 +0200,
49,0,49,,,,,,space,9.332158199998958,None,None,3,1.2844781999992847,0.24940609999976004,None,0,0,0,0,,,,,0,0,0,0,,,,,49,0,49,0,507.30475300000035,,,,,,,,,,,,,,,,,,,,,,,,,,,,,,,,,,,,,,,,,,,,,,,,,,,,,,,,,,Büro,4.659,507.28962930000125,507.29015040000013,507.290256100001,507.30475300000035,511.9706177999997,511.9551475999997,511.95838560000084,511.9706177999997,511.9706177999997,511.9706177999997,511.9706177999997,513.9709201000005,513.9709201000005,513.9709201000005,513.9709201000005,513.9554494000004,3,1.2844781999992847,0.24940609999976004,None,,,,,,,,,,,,,,,,,,,,6532,1,2025-07-29_16h28.40.266,sm,2024.2.4,59.98220927655392,2025-07-29 16h29.02.192553 +0200,
50,0,50,,,,,,space,9.332158199998958,None,None,3,1.3909005000004981,0.2662321999996493,None,0,0,0,0,,,,,0,0,0,0,,,,,50,0,50,0,513.9709201000005,,,,,,,,,,,,,,,,,,,,,,,,,,,,,,,,,,,,,,,,,,,,,,,,,,,,,,,,,,Harmonie,3.0917,513.9559702000006,513.9565020000009,513.9566092000005,513.9709201000005,517.0704841000006,517.0546543,517.0581275000004,517.0704841000006,517.0704841000006,517.0704841000006,517.0704841000006,519.0705232,519.0705232,519.0705232,519.0705232,519.0549709000006,3,1.3909005000004981,0.2662321999996493,None,,,,,,,,,,,,,,,,,,,,6532,1,2025-07-29_16h28.40.266,sm,2024.2.4,59.98220927655392,2025-07-29 16h29.02.192553 +0200,
51,0,51,,,,,,space,9.332158199998958,None,None,2,1.3618862999992416,0.20044249999955355,None,0,0,0,0,,,,,0,0,0,0,,,,,51,0,51,0,519.0705232,,,,,,,,,,,,,,,,,,,,,,,,,,,,,,,,,,,,,,,,,,,,,,,,,,,,,,,,,,Service,2.804,519.0554886000009,519.0559967000008,519.056104700001,519.0705232,521.8869200999998,521.8711132000008,521.8745659000015,521.8869200999998,521.8869200999998,521.8869200999998,521.8869200999998,523.8869602000013,523.8869602000013,523.8869602000013,523.8869602000013,523.8713845000002,2,1.3618862999992416,0.20044249999955355,None,,,,,,,,,,,,,,,,,,,,6532,1,2025-07-29_16h28.40.266,sm,2024.2.4,59.98220927655392,2025-07-29 16h29.02.192553 +0200,
52,0,52,,,,,,space,9.332158199998958,None,None,2,0.9507840999995096,0.20717680000052496,None,0,0,0,0,,,,,0,0,0,0,,,,,52,0,52,0,523.8869602000013,,,,,,,,,,,,,,,,,,,,,,,,,,,,,,,,,,,,,,,,,,,,,,,,,,,,,,,,,,Lachen,2.9277,523.8718953000007,523.8724124,523.8725196000014,523.8869602000013,526.8201681999999,526.8044065000013,526.8086626000004,526.8201681999999,526.8201681999999,526.8201681999999,526.8201681999999,528.820375700001,528.820375700001,528.820375700001,528.820375700001,528.8044922999998,2,0.9507840999995096,0.20717680000052496,None,,,,,,,,,,,,,,,,,,,,6532,1,2025-07-29_16h28.40.266,sm,2024.2.4,59.98220927655392,2025-07-29 16h29.02.192553 +0200,
53,0,53,,,,,,space,9.332158199998958,None,None,2,1.1958856000001106,0.22099330000128248,None,0,0,0,0,,,,,0,0,0,0,,,,,53,0,53,0,528.820375700001,,,,,,,,,,,,,,,,,,,,,,,,,,,,,,,,,,,,,,,,,,,,,,,,,,,,,,,,,,Geheimnis,2.2129,528.8050027999998,528.8056586000002,528.8057668000001,528.820375700001,531.0362228000013,531.0205870999998,531.0246368000007,531.0362228000013,531.0362228000013,531.0362228000013,531.0362228000013,533.0365904999999,533.0365904999999,533.0365904999999,533.0365904999999,533.0210376000014,2,1.1958856000001106,0.22099330000128248,None,,,,,,,,,,,,,,,,,,,,6532,1,2025-07-29_16h28.40.266,sm,2024.2.4,59.98220927655392,2025-07-29 16h29.02.192553 +0200,
54,0,54,,,,,,space,9.332158199998958,None,None,2,1.1889804000002187,0.22702690000005532,None,0,0,0,0,,,,,0,0,0,0,,,,,54,0,54,0,533.0365904999999,,,,,,,,,,,,,,,,,,,,,,,,,,,,,,,,,,,,,,,,,,,,,,,,,,,,,,,,,,Wahrheit,2.3982,533.0215884000008,533.0221117000001,533.0222238000006,533.0365904999999,535.4361586000014,535.4206200000008,535.4241007,535.4361586000014,535.4361586000014,535.4361586000014,535.4361586000014,537.4363104000004,537.4363104000004,537.4363104000004,537.4363104000004,537.4207580000002,2,1.1889804000002187,0.22702690000005532,None,,,,,,,,,,,,,,,,,,,,6532,1,2025-07-29_16h28.40.266,sm,2024.2.4,59.98220927655392,2025-07-29 16h29.02.192553 +0200,
55,0,55,,,,,,space,9.332158199998958,None,None,3,1.6886551000006875,0.21179160000065167,None,0,0,0,0,,,,,0,0,0,0,,,,,55,0,55,0,537.4363104000004,,,,,,,,,,,,,,,,,,,,,,,,,,,,,,,,,,,,,,,,,,,,,,,,,,,,,,,,,,Olympia,2.0628,537.4212657999997,537.4217797000001,537.4218870000004,537.4363104000004,539.502547600001,539.4869927,539.4943433999997,539.502547600001,539.502547600001,539.502547600001,539.502547600001,541.5028911999998,541.5028911999998,541.5028911999998,541.5028911999998,541.4873253000005,3,1.6886551000006875,0.21179160000065167,None,,,,,,,,,,,,,,,,,,,,6532,1,2025-07-29_16h28.40.266,sm,2024.2.4,59.98220927655392,2025-07-29 16h29.02.192553 +0200,
56,0,56,,,,,,space,9.332158199998958,None,None,3,1.1275662999996712,0.2648590000007971,None,0,0,0,0,,,,,0,0,0,0,,,,,56,0,56,0,541.5028911999998,,,,,,,,,,,,,,,,,,,,,,,,,,,,,,,,,,,,,,,,,,,,,,,,,,,,,,,,,,Flut,2.042,541.4878481000014,541.4885341000008,541.488649500001,541.5028911999998,543.5520938000009,543.5367543000011,543.5401908000003,543.5520938000009,543.5520938000009,543.5520938000009,543.5520938000009,545.5523247000001,545.5523247000001,545.5523247000001,545.5523247000001,545.5371508000007,3,1.1275662999996712,0.2648590000007971,None,,,,,,,,,,,,,,,,,,,,6532,1,2025-07-29_16h28.40.266,sm,2024.2.4,59.98220927655392,2025-07-29 16h29.02.192553 +0200,
57,0,57,,,,,,space,9.332158199998958,None,None,2,0.9405169999990903,0.1795865000003687,None,0,0,0,0,,,,,0,0,0,0,,,,,57,0,57,0,545.5523247000001,,,,,,,,,,,,,,,,,,,,,,,,,,,,,,,,,,,,,,,,,,,,,,,,,,,,,,,,,,Leute,2.1859,545.5376319000006,545.5381269999998,545.5382282999999,545.5523247000001,547.7520660999999,547.7364722000002,547.7397895000013,547.7520660999999,547.7520660999999,547.7520660999999,547.7520660999999,549.7520827000008,549.7520827000008,549.7520827000008,549.7520827000008,549.7365086000009,2,0.9405169999990903,0.1795865000003687,None,,,,,,,,,,,,,,,,,,,,6532,1,2025-07-29_16h28.40.266,sm,2024.2.4,59.98220927655392,2025-07-29 16h29.02.192553 +0200,
58,0,58,,,,,,space,9.332158199998958,None,None,2,1.0000072999991971,0.24833070000022417,None,0,0,0,0,,,,,0,0,0,0,,,,,58,0,58,0,549.7520827000008,,,,,,,,,,,,,,,,,,,,,,,,,,,,,,,,,,,,,,,,,,,,,,,,,,,,,,,,,,Zunge,4.0834,549.7369575000012,549.737451500001,549.7375463000008,549.7520827000008,553.8350612000013,553.8195690000011,553.8234138000007,553.8350612000013,553.8350612000013,553.8350612000013,553.8350612000013,555.8349342000001,555.8349342000001,555.8349342000001,555.8349342000001,555.8196707000006,2,1.0000072999991971,0.24833070000022417,None,,,,,,,,,,,,,,,,,,,,6532,1,2025-07-29_16h28.40.266,sm,2024.2.4,59.98220927655392,2025-07-29 16h29.02.192553 +0200,
59,0,59,,,,,,space,9.332158199998958,None,None,2,0.9413537999989785,0.24102090000087628,None,0,0,0,0,,,,,0,0,0,0,,,,,59,0,59,0,555.8349342000001,,,,,,,,,,,,,,,,,,,,,,,,,,,,,,,,,,,,,,,,,,,,,,,,,,,,,,,,,,Nase,2.4186,555.8201742000001,555.8208095000009,555.8209155000004,555.8349342000001,558.2679637000001,558.2527241000007,558.2568259,558.2679637000001,558.2679637000001,558.2679637000001,558.2679637000001,560.268294200001,560.268294200001,560.268294200001,560.268294200001,560.2525593000009,2,0.9413537999989785,0.24102090000087628,None,,,,,,,,,,,,,,,,,,,,6532,1,2025-07-29_16h28.40.266,sm,2024.2.4,59.98220927655392,2025-07-29 16h29.02.192553 +0200,
60,0,60,,,,,,space,9.332158199998958,None,None,2,0.8898488000013458,0.23237269999845012,None,0,0,0,0,,,,,0,0,0,0,,,,,60,0,60,0,560.268294200001,,,,,,,,,,,,,,,,,,,,,,,,,,,,,,,,,,,,,,,,,,,,,,,,,,,,,,,,,,Augen,5.7127,560.2530705999998,560.2535860000007,560.2536971000009,560.268294200001,565.9842578000007,565.9688005000007,565.9723477000007,565.9842578000007,565.9842578000007,565.9842578000007,565.9842578000007,567.9846744000006,567.9846744000006,567.9846744000006,567.9846744000006,567.9688856000012,2,0.8898488000013458,0.23237269999845012,None,,,,,,,,,,,,,,,,,,,,6532,1,2025-07-29_16h28.40.266,sm,2024.2.4,59.98220927655392,2025-07-29 16h29.02.192553 +0200,
61,0,61,,,,,,space,9.332158199998958,None,None,3,1.0377356999997573,0.2509802000004129,None,0,0,0,0,,,,,0,0,0,0,,,,,61,0,61,0,567.9846744000006,,,,,,,,,,,,,,,,,,,,,,,,,,,,,,,,,,,,,,,,,,,,,,,,,,,,,,,,,,Nummer,3.4681,567.9693922000006,567.9699056999998,567.9700130000001,567.9846744000006,571.4674673999998,571.4520352,571.4561313000013,571.4674673999998,571.4674673999998,571.4674673999998,571.4674673999998,573.467599900001,573.467599900001,573.467599900001,573.467599900001,573.4518844000013,3,1.0377356999997573,0.2509802000004129,None,,,,,,,,,,,,,,,,,,,,6532,1,2025-07-29_16h28.40.266,sm,2024.2.4,59.98220927655392,2025-07-29 16h29.02.192553 +0200,
62,0,62,,,,,,space,9.332158199998958,None,None,3,1.019211599999835,0.2557168000003003,None,0,0,0,0,,,,,0,0,0,0,,,,,62,0,62,0,573.467599900001,,,,,,,,,,,,,,,,,,,,,,,,,,,,,,,,,,,,,,,,,,,,,,,,,,,,,,,,,,Asche,3.1806,573.4523090000002,573.4527759000011,573.4528683999997,573.467599900001,576.6504363000004,576.6350480000001,576.6389384000013,576.6504363000004,576.6504363000004,576.6504363000004,576.6504363000004,578.6506554000007,578.6506554000007,578.6506554000007,578.6506554000007,578.6354599000006,3,1.019211599999835,0.2557168000003003,None,,,,,,,,,,,,,,,,,,,,6532,1,2025-07-29_16h28.40.266,sm,2024.2.4,59.98220927655392,2025-07-29 16h29.02.192553 +0200,
63,0,63,,,,,,space,9.332158199998958,None,None,3,1.0853778000000602,0.2572151999993366,None,0,0,0,0,,,,,0,0,0,0,,,,,63,0,63,0,578.6506554000007,,,,,,,,,,,,,,,,,,,,,,,,,,,,,,,,,,,,,,,,,,,,,,,,,,,,,,,,,,Ball,2.88,578.6359916000001,578.6367031000009,578.6368696999998,578.6506554000007,581.5338108000014,581.5181329000006,581.5216646000008,581.5338108000014,581.5338108000014,581.5338108000014,581.5338108000014,583.5336407000013,583.5336407000013,583.5336407000013,583.5336407000013,583.5179583000008,3,1.0853778000000602,0.2572151999993366,None,,,,,,,,,,,,,,,,,,,,6532,1,2025-07-29_16h28.40.266,sm,2024.2.4,59.98220927655392,2025-07-29 16h29.02.192553 +0200,
64,0,64,,,,,,space,9.332158199998958,None,None,2,0.9559095999993588,0.22761790000004112,None,0,0,0,0,,,,,0,0,0,0,,,,,64,0,64,0,583.5336407000013,,,,,,,,,,,,,,,,,,,,,,,,,,,,,,,,,,,,,,,,,,,,,,,,,,,,,,,,,,Anwalt,2.6553,583.5183808000002,583.5188515999998,583.5189409000013,583.5336407000013,586.2000720000015,586.1844429000012,586.1884902000002,586.2000720000015,586.2000720000015,586.2000720000015,586.2000720000015,588.2001079000001,588.2001079000001,588.2001079000001,588.2001079000001,588.1846240000013,2,0.9559095999993588,0.22761790000004112,None,,,,,,,,,,,,,,,,,,,,6532,1,2025-07-29_16h28.40.266,sm,2024.2.4,59.98220927655392,2025-07-29 16h29.02.192553 +0200,
65,0,65,,,,,,space,9.332158199998958,None,None,2,1.2537121000004845,0.22744070000044303,None,0,0,0,0,,,,,0,0,0,0,,,,,65,0,65,0,588.2001079000001,,,,,,,,,,,,,,,,,,,,,,,,,,,,,,,,,,,,,,,,,,,,,,,,,,,,,,,,,,Rose,2.0548,588.1851302000014,588.1856785,588.1857829,588.2001079000001,590.2667234,590.2509354000013,590.2541287000004,590.2667234,590.2667234,590.2667234,590.2667234,592.2666418999997,592.2666418999997,592.2666418999997,592.2666418999997,592.2508425000015,2,1.2537121000004845,0.22744070000044303,None,,,,,,,,,,,,,,,,,,,,6532,1,2025-07-29_16h28.40.266,sm,2024.2.4,59.98220927655392,2025-07-29 16h29.02.192553 +0200,
66,0,66,,,,,,space,9.332158199998958,None,None,2,0.9946340000005875,0.24011760000030336,None,0,0,0,0,,,,,0,0,0,0,,,,,66,0,66,0,592.2666418999997,,,,,,,,,,,,,,,,,,,,,,,,,,,,,,,,,,,,,,,,,,,,,,,,,,,,,,,,,,Monster,2.2607,592.2513427000013,592.2519934000011,592.2521025000005,592.2666418999997,594.5324526000004,594.5170902999998,594.5227742000006,594.5324526000004,594.5324526000004,594.5324526000004,594.5324526000004,596.5330692000007,596.5330692000007,596.5330692000007,596.5330692000007,596.5175517000007,2,0.9946340000005875,0.24011760000030336,None,,,,,,,,,,,,,,,,,,,,6532,1,2025-07-29_16h28.40.266,sm,2024.2.4,59.98220927655392,2025-07-29 16h29.02.192553 +0200,
67,0,67,,,,,,space,9.332158199998958,None,None,3,1.257384099999399,0.28440430000046035,None,0,0,0,0,,,,,0,0,0,0,,,,,67,0,67,0,596.5330692000007,,,,,,,,,,,,,,,,,,,,,,,,,,,,,,,,,,,,,,,,,,,,,,,,,,,,,,,,,,Schnürsenkel,3.8739,596.518079200001,596.5187854000014,596.5189033000006,596.5330692000007,600.415640700001,600.4002164000012,600.404147700001,600.415640700001,600.415640700001,600.415640700001,600.415640700001,602.4157971000004,602.4157971000004,602.4157971000004,602.4157971000004,602.4003140000004,3,1.257384099999399,0.28440430000046035,None,,,,,,,,,,,,,,,,,,,,6532,1,2025-07-29_16h28.40.266,sm,2024.2.4,59.98220927655392,2025-07-29 16h29.02.192553 +0200,
68,0,68,,,,,,space,9.332158199998958,None,None,2,0.9542768000010255,0.2443452999996225,None,0,0,0,0,,,,,0,0,0,0,,,,,68,0,68,0,602.4157971000004,,,,,,,,,,,,,,,,,,,,,,,,,,,,,,,,,,,,,,,,,,,,,,,,,,,,,,,,,,Anführer,2.3703,602.4008281000006,602.4013394000012,602.4014462000014,602.4157971000004,604.7988960000002,604.7838131000008,604.7876437000014,604.7988960000002,604.7988960000002,604.7988960000002,604.7988960000002,606.7989284000014,606.7989284000014,606.7989284000014,606.7989284000014,606.7834290999999,2,0.9542768000010255,0.2443452999996225,None,,,,,,,,,,,,,,,,,,,,6532,1,2025-07-29_16h28.40.266,sm,2024.2.4,59.98220927655392,2025-07-29 16h29.02.192553 +0200,
69,0,69,,,,,,space,9.332158199998958,None,None,3,0.9627715999995416,0.27115609999964363,None,0,0,0,0,,,,,0,0,0,0,,,,,69,0,69,0,606.7989284000014,,,,,,,,,,,,,,,,,,,,,,,,,,,,,,,,,,,,,,,,,,,,,,,,,,,,,,,,,,Tal,2.1011,606.7839378999997,606.7844487000002,606.7845536000004,606.7989284000014,608.9153803999998,608.900042700001,608.9032447000009,608.9153803999998,608.9153803999998,608.9153803999998,608.9153803999998,610.9153139999999,610.9153139999999,610.9153139999999,610.9153139999999,610.8995412000004,3,0.9627715999995416,0.27115609999964363,None,,,,,,,,,,,,,,,,,,,,6532,1,2025-07-29_16h28.40.266,sm,2024.2.4,59.98220927655392,2025-07-29 16h29.02.192553 +0200,
70,0,70,,,,,,space,9.332158199998958,None,None,2,1.0417353000011644,0.23144219999994675,None,0,0,0,0,,,,,0,0,0,0,,,,,70,0,70,0,610.9153139999999,,,,,,,,,,,,,,,,,,,,,,,,,,,,,,,,,,,,,,,,,,,,,,,,,,,,,,,,,,Schulter,3.2368,610.9000553000005,610.9005685000011,610.9006754000002,610.9153139999999,614.1649417999997,614.1495627000004,614.153103300001,614.1649417999997,614.1649417999997,614.1649417999997,614.1649417999997,616.1651626000003,616.1651626000003,616.1651626000003,616.1651626000003,616.1497507000004,2,1.0417353000011644,0.23144219999994675,None,,,,,,,,,,,,,,,,,,,,6532,1,2025-07-29_16h28.40.266,sm,2024.2.4,59.98220927655392,2025-07-29 16h29.02.192553 +0200,
71,0,71,,,,,,space,9.332158199998958,None,None,3,0.8904600000005303,0.2613521999992372,None,0,0,0,0,,,,,0,0,0,0,,,,,71,0,71,0,616.1651626000003,,,,,,,,,,,,,,,,,,,,,,,,,,,,,,,,,,,,,,,,,,,,,,,,,,,,,,,,,,Gewürz,4.2672,616.1502691000005,616.1509581000009,616.1510639999997,616.1651626000003,620.4313090000014,620.4157567000002,620.4197861000011,620.4313090000014,620.4313090000014,620.4313090000014,620.4313090000014,622.4314892000002,622.4314892000002,622.4314892000002,622.4314892000002,622.415802200001,3,0.8904600000005303,0.2613521999992372,None,,,,,,,,,,,,,,,,,,,,6532,1,2025-07-29_16h28.40.266,sm,2024.2.4,59.98220927655392,2025-07-29 16h29.02.192553 +0200,
72,0,72,,,,,,space,9.332158199998958,None,None,3,1.0267074999992474,0.23528110000006563,None,0,0,0,0,,,,,0,0,0,0,,,,,72,0,72,0,622.4314892000002,,,,,,,,,,,,,,,,,,,,,,,,,,,,,,,,,,,,,,,,,,,,,,,,,,,,,,,,,,Fernseher,3.7814,622.4163109000001,622.4168452000013,622.416954100001,622.4314892000002,626.2144652000006,626.1988644000012,626.203234300001,626.2144652000006,626.2144652000006,626.2144652000006,626.2144652000006,628.2142800000001,628.2142800000001,628.2142800000001,628.2142800000001,628.1989888999997,3,1.0267074999992474,0.23528110000006563,None,,,,,,,,,,,,,,,,,,,,6532,1,2025-07-29_16h28.40.266,sm,2024.2.4,59.98220927655392,2025-07-29 16h29.02.192553 +0200,
73,0,73,,,,,,space,9.332158199998958,None,None,2,0.9376141000011557,0.20949279999877035,None,0,0,0,0,,,,,0,0,0,0,,,,,73,0,73,0,628.2142800000001,,,,,,,,,,,,,,,,,,,,,,,,,,,,,,,,,,,,,,,,,,,,,,,,,,,,,,,,,,Tischler,2.5572,628.1995385000009,628.2003955,628.2005351000007,628.2142800000001,630.7809209000006,630.7654871000013,630.7706382000015,630.7809209000006,630.7809209000006,630.7809209000006,630.7809209000006,632.7808573000002,632.7808573000002,632.7808573000002,632.7808573000002,632.7651559000005,2,0.9376141000011557,0.20949279999877035,None,,,,,,,,,,,,,,,,,,,,6532,1,2025-07-29_16h28.40.266,sm,2024.2.4,59.98220927655392,2025-07-29 16h29.02.192553 +0200,
74,0,74,,,,,,space,9.332158199998958,None,None,2,0.9760110000006534,0.22430549999990035,None,0,0,0,0,,,,,0,0,0,0,,,,,74,0,74,0,632.7808573000002,,,,,,,,,,,,,,,,,,,,,,,,,,,,,,,,,,,,,,,,,,,,,,,,,,,,,,,,,,Gast,5.8766,632.7656879000006,632.7662686000003,632.7663769999999,632.7808573000002,638.6638836000002,638.6479933999999,638.6510549000013,638.6638836000002,638.6638836000002,638.6638836000002,638.6638836000002,640.6636815000002,640.6636815000002,640.6636815000002,640.6636815000002,640.6481100000001,2,0.9760110000006534,0.22430549999990035,None,,,,,,,,,,,,,,,,,,,,6532,1,2025-07-29_16h28.40.266,sm,2024.2.4,59.98220927655392,2025-07-29 16h29.02.192553 +0200,
75,0,75,,,,,,space,9.332158199998958,None,None,3,1.2540312000000995,0.22275879999870085,None,0,0,0,0,,,,,0,0,0,0,,,,,75,0,75,0,640.6636815000002,,,,,,,,,,,,,,,,,,,,,,,,,,,,,,,,,,,,,,,,,,,,,,,,,,,,,,,,,,Wanne,2.011,640.6486223000011,640.6491317,640.6492417999998,640.6636815000002,642.6802167000005,642.664451300001,642.6683914000005,642.6802167000005,642.6802167000005,642.6802167000005,642.6802167000005,644.6800573,644.6800573,644.6800573,644.6800573,644.6644386000007,3,1.2540312000000995,0.22275879999870085,None,,,,,,,,,,,,,,,,,,,,6532,1,2025-07-29_16h28.40.266,sm,2024.2.4,59.98220927655392,2025-07-29 16h29.02.192553 +0200,
76,0,76,,,,,,space,9.332158199998958,None,None,2,1.2196268000006967,0.21840100000008533,None,0,0,0,0,,,,,0,0,0,0,,,,,76,0,76,0,644.6800573,,,,,,,,,,,,,,,,,,,,,,,,,,,,,,,,,,,,,,,,,,,,,,,,,,,,,,,,,,Party,5.1342,644.6649529000006,644.665465,644.6655717000012,644.6800573,649.8296514000012,649.8141684000002,649.8181873000012,649.8296514000012,649.8296514000012,649.8296514000012,649.8296514000012,651.8299579000013,651.8299579000013,651.8299579000013,651.8299579000013,651.8143264000009,2,1.2196268000006967,0.21840100000008533,None,,,,,,,,,,,,,,,,,,,,6532,1,2025-07-29_16h28.40.266,sm,2024.2.4,59.98220927655392,2025-07-29 16h29.02.192553 +0200,
77,0,77,,,,,,space,9.332158199998958,None,None,3,1.0938819000002695,0.25231629999871075,None,0,0,0,0,,,,,0,0,0,0,,,,,77,0,77,0,651.8299579000013,,,,,,,,,,,,,,,,,,,,,,,,,,,,,,,,,,,,,,,,,,,,,,,,,,,,,,,,,,Tee,3.108,651.8148376000008,651.8153523000001,651.8154575999997,651.8299579000013,654.9459803000009,654.9304900000006,654.9339595000001,654.9459803000009,654.9459803000009,654.9459803000009,654.9459803000009,656.9461052000006,656.9461052000006,656.9461052000006,656.9461052000006,656.9306523000014,3,1.0938819000002695,0.25231629999871075,None,,,,,,,,,,,,,,,,,,,,6532,1,2025-07-29_16h28.40.266,sm,2024.2.4,59.98220927655392,2025-07-29 16h29.02.192553 +0200,
78,0,78,,,,,,space,9.332158199998958,None,None,3,0.8987353000011353,0.24110769999970216,None,0,0,0,0,,,,,0,0,0,0,,,,,78,0,78,0,656.9461052000006,,,,,,,,,,,,,,,,,,,,,,,,,,,,,,,,,,,,,,,,,,,,,,,,,,,,,,,,,,Essen,2.5117,656.9311625000009,656.9318402999997,656.9319475000011,656.9461052000006,659.4624254000009,659.4465577999999,659.4496840000011,659.4624254000009,659.4624254000009,659.4624254000009,659.4624254000009,661.4625456000012,661.4625456000012,661.4625456000012,661.4625456000012,661.4470360000014,3,0.8987353000011353,0.24110769999970216,None,,,,,,,,,,,,,,,,,,,,6532,1,2025-07-29_16h28.40.266,sm,2024.2.4,59.98220927655392,2025-07-29 16h29.02.192553 +0200,
79,0,79,,,,,,space,9.332158199998958,None,None,3,0.9259817000001931,0.27552710000054503,None,0,0,0,0,,,,,0,0,0,0,,,,,79,0,79,0,661.4625456000012,,,,,,,,,,,,,,,,,,,,,,,,,,,,,,,,,,,,,,,,,,,,,,,,,,,,,,,,,,Schnee,3.5371,661.4475460000012,661.4480521000005,661.4481582999997,661.4625456000012,665.0125285000013,664.9966531999999,665.0005650000003,665.0125285000013,665.0125285000013,665.0125285000013,665.0125285000013,667.0239975000004,667.0239975000004,667.0239975000004,667.0239975000004,666.9965129000011,3,0.9259817000001931,0.27552710000054503,None,,,,,,,,,,,,,,,,,,,,6532,1,2025-07-29_16h28.40.266,sm,2024.2.4,59.98220927655392,2025-07-29 16h29.02.192553 +0200,
0,0,0,,,,,3.7814,space,5.861020600001211,None,None,3,1.1671747000000323,0.26433970000107365,None,0,0,0,0,,,,,1,0,1,0,0,79,79,26,0,0,0,0,714.8094634000008,,,,,,,,,,,,,,,,,,,,,,,,,,,,,,,,,,,,684.1389433000004,684.1391887000009,684.1454121000006,684.1490200999997,684.1490200999997,690.0126177000002,space,5.861020600001211,None,690.0127697000007,690.0275708999998,690.0275708999998,702.7933865000014,None,702.8006148000004,702.8101495999999,702.8084951666681,704.010253800001,712.7929027666671,713.8012885000007,714.8094634000008,714.7937039999997,Postkarte,3.7814,714.7951303999998,714.7957922000005,714.7959007999998,714.8094634000008,718.5926835999999,718.5768810000009,718.5815348000015,718.5926835999999,718.5926835999999,718.5926835999999,718.5926835999999,720.5924603000003,720.5924603000003,720.5924603000003,720.5924603000003,720.5775512,3,1.1671747000000323,0.26433970000107365,None,679.011794,679.0118692000015,None,679.0200271000012,679.028343,683.0284527000003,683.0284527000003,683.0284527000003,684.0943504000006,2,1.0553206000004138,None,,,,,,,,6532,1,2025-07-29_16h28.40.266,sm,2024.2.4,59.98220927655392,2025-07-29 16h29.02.192553 +0200,
1,0,1,,,,,,space,5.861020600001211,None,None,3,1.0987552000005962,0.24189470000055735,None,0,0,0,0,,,,,1,0,1,0,,,,,1,0,1,0,720.5924603000003,,,,,,,,,,,,,,,,,,,,,,,,,,,,,,,,,,,,,,,,,,,,,,,,,,,,,,,,,,Medaille,4.2672,720.5780670000004,720.5786179000006,720.5787287000003,720.5924603000003,724.8586181999999,724.8431570000012,724.8466466000009,724.8586181999999,724.8586181999999,724.8586181999999,724.8586181999999,726.8589827000014,726.8589827000014,726.8589827000014,726.8589827000014,726.8432709000008,3,1.0987552000005962,0.24189470000055735,None,,,,,,,,,,,,,,,,,,,,6532,1,2025-07-29_16h28.40.266,sm,2024.2.4,59.98220927655392,2025-07-29 16h29.02.192553 +0200,
2,0,2,,,,,,space,5.861020600001211,None,None,3,1.0510250000006636,0.2324425999995583,None,0,0,0,0,,,,,1,0,1,0,,,,,2,0,2,0,726.8589827000014,,,,,,,,,,,,,,,,,,,,,,,,,,,,,,,,,,,,,,,,,,,,,,,,,,,,,,,,,,Sumpf,3.5493,726.8437806000002,726.8443217000004,726.8444323000003,726.8589827000014,730.4085204000003,730.393105000001,730.3971560000009,730.4085204000003,730.4085204000003,730.4085204000003,730.4085204000003,732.4088675000003,732.4088675000003,732.4088675000003,732.4088675000003,732.3929930000013,3,1.0510250000006636,0.2324425999995583,None,,,,,,,,,,,,,,,,,,,,6532,1,2025-07-29_16h28.40.266,sm,2024.2.4,59.98220927655392,2025-07-29 16h29.02.192553 +0200,
3,0,3,,,,,,space,5.861020600001211,None,None,3,1.1762961000003997,0.23044079999999667,None,0,0,0,0,,,,,1,0,1,0,,,,,3,0,3,0,732.4088675000003,,,,,,,,,,,,,,,,,,,,,,,,,,,,,,,,,,,,,,,,,,,,,,,,,,,,,,,,,,Feld,2.1859,732.3935165000003,732.3940333999999,732.3941405000005,732.4088675000003,734.6082248000002,734.5932074000011,734.5966257,734.6082248000002,734.6082248000002,734.6082248000002,734.6082248000002,736.6082385000009,736.6082385000009,736.6082385000009,736.6082385000009,736.5926729000003,3,1.1762961000003997,0.23044079999999667,None,,,,,,,,,,,,,,,,,,,,6532,1,2025-07-29_16h28.40.266,sm,2024.2.4,59.98220927655392,2025-07-29 16h29.02.192553 +0200,
4,0,4,,,,,,space,5.861020600001211,None,None,3,1.0075673999999708,0.23879219999980705,None,0,0,0,0,,,,,1,0,1,0,,,,,4,0,4,0,736.6082385000009,,,,,,,,,,,,,,,,,,,,,,,,,,,,,,,,,,,,,,,,,,,,,,,,,,,,,,,,,,Wein,2.3373,736.593196400001,736.593787400001,736.5939746000004,736.6082385000009,738.9579998000008,738.9422649999997,738.9455675000008,738.9579998000008,738.9579998000008,738.9579998000008,738.9579998000008,740.9580237000009,740.9580237000009,740.9580237000009,740.9580237000009,740.9423633000006,3,1.0075673999999708,0.23879219999980705,None,,,,,,,,,,,,,,,,,,,,6532,1,2025-07-29_16h28.40.266,sm,2024.2.4,59.98220927655392,2025-07-29 16h29.02.192553 +0200,
5,0,5,,,,,,space,5.861020600001211,None,None,3,1.1373495999996521,0.24017490000005637,None,0,0,0,0,,,,,1,0,1,0,,,,,5,0,5,0,740.9580237000009,,,,,,,,,,,,,,,,,,,,,,,,,,,,,,,,,,,,,,,,,,,,,,,,,,,,,,,,,,Zug,4.1936,740.9428767000009,740.9433765000012,740.9434864000013,740.9580237000009,745.1586681999997,745.1420051000005,745.1452710000012,745.1586681999997,745.1586681999997,745.1586681999997,745.1586681999997,747.1577619,747.1577619,747.1577619,747.1577619,747.1420655000002,3,1.1373495999996521,0.24017490000005637,None,,,,,,,,,,,,,,,,,,,,6532,1,2025-07-29_16h28.40.266,sm,2024.2.4,59.98220927655392,2025-07-29 16h29.02.192553 +0200,
6,0,6,,,,,,space,5.861020600001211,None,None,3,1.3449950000012905,0.24042419999932463,None,0,0,0,0,,,,,1,0,1,0,,,,,6,0,6,0,747.1577619,,,,,,,,,,,,,,,,,,,,,,,,,,,,,,,,,,,,,,,,,,,,,,,,,,,,,,,,,,Käse,5.8766,747.1425756000008,747.1432521000006,747.1433588,747.1577619,753.0406672999998,753.0250214000007,753.028677100001,753.0406672999998,753.0406672999998,753.0406672999998,753.0406672999998,755.0406180000009,755.0406180000009,755.0406180000009,755.0406180000009,755.0249624000007,3,1.3449950000012905,0.24042419999932463,None,,,,,,,,,,,,,,,,,,,,6532,1,2025-07-29_16h28.40.266,sm,2024.2.4,59.98220927655392,2025-07-29 16h29.02.192553 +0200,
7,0,7,,,,,,space,5.861020600001211,None,None,2,1.2217360000013286,0.21222469999884197,None,0,0,0,0,,,,,1,0,1,0,,,,,7,0,7,0,755.0406180000009,,,,,,,,,,,,,,,,,,,,,,,,,,,,,,,,,,,,,,,,,,,,,,,,,,,,,,,,,,Applaus,2.88,755.0254706000014,755.0259982000007,755.0261041000012,755.0406180000009,757.9236674000003,757.9082541000007,757.9132807000005,757.9236674000003,757.9236674000003,757.9236674000003,757.9236674000003,759.9235389000005,759.9235389000005,759.9235389000005,759.9235389000005,759.9081473000006,2,1.2217360000013286,0.21222469999884197,None,,,,,,,,,,,,,,,,,,,,6532,1,2025-07-29_16h28.40.266,sm,2024.2.4,59.98220927655392,2025-07-29 16h29.02.192553 +0200,
8,0,8,,,,,,space,5.861020600001211,None,None,3,1.1241886999996495,0.2413445000001957,None,0,0,0,0,,,,,1,0,1,0,,,,,8,0,8,0,759.9235389000005,,,,,,,,,,,,,,,,,,,,,,,,,,,,,,,,,,,,,,,,,,,,,,,,,,,,,,,,,,Beutel,2.6553,759.908662400001,759.9091690000005,759.9092765000005,759.9235389000005,762.5905168000008,762.5746317000012,762.5788788000009,762.5905168000008,762.5905168000008,762.5905168000008,762.5905168000008,764.5901316,764.5901316,764.5901316,764.5901316,764.5744101,3,1.1241886999996495,0.2413445000001957,None,,,,,,,,,,,,,,,,,,,,6532,1,2025-07-29_16h28.40.266,sm,2024.2.4,59.98220927655392,2025-07-29 16h29.02.192553 +0200,
9,0,9,,,,,,space,5.861020600001211,None,None,2,1.2151534000004176,0.1923451999991812,None,0,0,0,0,,,,,1,0,1,0,,,,,9,0,9,0,764.5901316,,,,,,,,,,,,,,,,,,,,,,,,,,,,,,,,,,,,,,,,,,,,,,,,,,,,,,,,,,Tanne,2.4186,764.5748635,764.5753471000007,764.5754413000013,764.5901316,767.0227539000007,767.0075750000015,767.0109577000003,767.0227539000007,767.0227539000007,767.0227539000007,767.0227539000007,769.0229572000007,769.0229572000007,769.0229572000007,769.0229572000007,769.0075018000007,2,1.2151534000004176,0.1923451999991812,None,,,,,,,,,,,,,,,,,,,,6532,1,2025-07-29_16h28.40.266,sm,2024.2.4,59.98220927655392,2025-07-29 16h29.02.192553 +0200,
10,0,10,,,,,,space,5.861020600001211,None,None,2,1.4144264999995357,0.19070930000088993,None,0,0,0,0,,,,,1,0,1,0,,,,,10,0,10,0,769.0229572000007,,,,,,,,,,,,,,,,,,,,,,,,,,,,,,,,,,,,,,,,,,,,,,,,,,,,,,,,,,Angriff,3.379,769.0079998000001,769.0086547999999,769.0087604,769.0229572000007,772.406062,772.3906733000003,772.3949848000011,772.406062,772.406062,772.406062,772.406062,774.4062011000005,774.4062011000005,774.4062011000005,774.4062011000005,774.3907278000006,2,1.4144264999995357,0.19070930000088993,None,,,,,,,,,,,,,,,,,,,,6532,1,2025-07-29_16h28.40.266,sm,2024.2.4,59.98220927655392,2025-07-29 16h29.02.192553 +0200,
11,0,11,,,,,,space,5.861020600001211,None,None,3,0.9443917999997211,0.24876579999909154,None,0,0,0,0,,,,,1,0,1,0,,,,,11,0,11,0,774.4062011000005,,,,,,,,,,,,,,,,,,,,,,,,,,,,,,,,,,,,,,,,,,,,,,,,,,,,,,,,,,Zimmer,2.0338,774.3912293000012,774.3917391000014,774.391845600001,774.4062011000005,776.4394064000007,776.4235777000013,776.4276722000013,776.4394064000007,776.4394064000007,776.4394064000007,776.4394064000007,778.4391593,778.4391593,778.4391593,778.4391593,778.4240101000014,3,0.9443917999997211,0.24876579999909154,None,,,,,,,,,,,,,,,,,,,,6532,1,2025-07-29_16h28.40.266,sm,2024.2.4,59.98220927655392,2025-07-29 16h29.02.192553 +0200,
12,0,12,,,,,,space,5.861020600001211,None,None,2,0.7749350999984017,0.19501769999988028,None,0,0,0,0,,,,,1,0,1,0,,,,,12,0,12,0,778.4391593,,,,,,,,,,,,,,,,,,,,,,,,,,,,,,,,,,,,,,,,,,,,,,,,,,,,,,,,,,Humor,5.1342,778.4244940000008,778.4249986000013,778.4250984000009,778.4391593,783.5887105000002,783.5732650000009,783.5773255000004,783.5887105000002,783.5887105000002,783.5887105000002,783.5887105000002,785.5887632000013,785.5887632000013,785.5887632000013,785.5887632000013,785.5732564000009,2,0.7749350999984017,0.19501769999988028,None,,,,,,,,,,,,,,,,,,,,6532,1,2025-07-29_16h28.40.266,sm,2024.2.4,59.98220927655392,2025-07-29 16h29.02.192553 +0200,
13,0,13,,,,,,space,5.861020600001211,None,None,2,1.3120870999991894,0.16759520000050543,None,0,0,0,0,,,,,1,0,1,0,,,,,13,0,13,0,785.5887632000013,,,,,,,,,,,,,,,,,,,,,,,,,,,,,,,,,,,,,,,,,,,,,,,,,,,,,,,,,,Musik,2.8276,785.5737692000002,785.5742984999997,785.5744062000012,785.5887632000013,788.4221917000013,788.4060016000003,788.4105321000006,788.4221917000013,788.4221917000013,788.4221917000013,788.4221917000013,790.4219604999998,790.4219604999998,790.4219604999998,790.4219604999998,790.4063098000006,2,1.3120870999991894,0.16759520000050543,None,,,,,,,,,,,,,,,,,,,,6532,1,2025-07-29_16h28.40.266,sm,2024.2.4,59.98220927655392,2025-07-29 16h29.02.192553 +0200,
14,0,14,,,,,,space,5.861020600001211,None,None,3,1.478475800000524,0.22146849999990081,None,0,0,0,0,,,,,1,0,1,0,,,,,14,0,14,0,790.4219604999998,,,,,,,,,,,,,,,,,,,,,,,,,,,,,,,,,,,,,,,,,,,,,,,,,,,,,,,,,,Dorn,2.2655,790.4068174000004,790.4074615999998,790.4075653,790.4219604999998,792.6882831000003,792.6728137000009,792.6763619000012,792.6882831000003,792.6882831000003,792.6882831000003,792.6882831000003,794.6881798000013,794.6881798000013,794.6881798000013,794.6881798000013,794.6729007000013,3,1.478475800000524,0.22146849999990081,None,,,,,,,,,,,,,,,,,,,,6532,1,2025-07-29_16h28.40.266,sm,2024.2.4,59.98220927655392,2025-07-29 16h29.02.192553 +0200,
15,0,15,,,,,,space,5.861020600001211,None,None,2,1.369624400000248,0.24174739999943995,None,0,0,0,0,,,,,1,0,1,0,,,,,15,0,15,0,794.6881798000013,,,,,,,,,,,,,,,,,,,,,,,,,,,,,,,,,,,,,,,,,,,,,,,,,,,,,,,,,,Vergangenheit,2.0293,794.6734035000009,794.674084100001,794.6741973000007,794.6881798000013,796.7214339000002,796.7058310000011,796.7099799000007,796.7214339000002,796.7214339000002,796.7214339000002,796.7214339000002,798.7213573999998,798.7213573999998,798.7213573999998,798.7213573999998,798.7057751000011,2,1.369624400000248,0.24174739999943995,None,,,,,,,,,,,,,,,,,,,,6532,1,2025-07-29_16h28.40.266,sm,2024.2.4,59.98220927655392,2025-07-29 16h29.02.192553 +0200,
16,0,16,,,,,,space,5.861020600001211,None,None,2,1.7381742999987182,0.20205370000076073,None,0,0,0,0,,,,,1,0,1,0,,,,,16,0,16,0,798.7213573999998,,,,,,,,,,,,,,,,,,,,,,,,,,,,,,,,,,,,,,,,,,,,,,,,,,,,,,,,,,Sicherheit,4.7206,798.7062861000013,798.7067918000012,798.7069026999998,798.7213573999998,803.4543864000007,803.4387530000004,803.4428758000013,803.4543864000007,803.4543864000007,803.4543864000007,803.4543864000007,805.4544477,805.4544477,805.4544477,805.4544477,805.4386864000007,2,1.7381742999987182,0.20205370000076073,None,,,,,,,,,,,,,,,,,,,,6532,1,2025-07-29_16h28.40.266,sm,2024.2.4,59.98220927655392,2025-07-29 16h29.02.192553 +0200,
17,0,17,,,,,,space,5.861020600001211,None,None,3,1.3600158999997802,0.21289079999951355,None,0,0,0,0,,,,,1,0,1,0,,,,,17,0,17,0,805.4544477,,,,,,,,,,,,,,,,,,,,,,,,,,,,,,,,,,,,,,,,,,,,,,,,,,,,,,,,,,Dunkelheit,3.2107,805.4391958000015,805.4397110999998,805.4398191,805.4544477,808.6708900000012,808.6553401000001,808.6596233,808.6708900000012,808.6708900000012,808.6708900000012,808.6708900000012,810.670723700001,810.670723700001,810.670723700001,810.670723700001,810.6551921000009,3,1.3600158999997802,0.21289079999951355,None,,,,,,,,,,,,,,,,,,,,6532,1,2025-07-29_16h28.40.266,sm,2024.2.4,59.98220927655392,2025-07-29 16h29.02.192553 +0200,
18,0,18,,,,,,space,5.861020600001211,None,None,3,0.9318358000000444,0.2432850999994116,None,0,0,0,0,,,,,1,0,1,0,,,,,18,0,18,0,810.670723700001,,,,,,,,,,,,,,,,,,,,,,,,,,,,,,,,,,,,,,,,,,,,,,,,,,,,,,,,,,Geschirr,2.3703,810.6557103000014,810.6562212999997,810.6563267000001,810.670723700001,813.0537015000009,813.0380875999999,813.0415123000002,813.0537015000009,813.0537015000009,813.0537015000009,813.0537015000009,815.0542509000006,815.0542509000006,815.0542509000006,815.0542509000006,815.0388151000006,3,0.9318358000000444,0.2432850999994116,None,,,,,,,,,,,,,,,,,,,,6532,1,2025-07-29_16h28.40.266,sm,2024.2.4,59.98220927655392,2025-07-29 16h29.02.192553 +0200,
19,0,19,,,,,,space,5.861020600001211,None,None,2,0.9860631999999896,0.18693350000103237,None,0,0,0,0,,,,,1,0,1,0,,,,,19,0,19,0,815.0542509000006,,,,,,,,,,,,,,,,,,,,,,,,,,,,,,,,,,,,,,,,,,,,,,,,,,,,,,,,,,Koch,2.0628,815.0393259000011,815.0398486000013,815.039955100001,815.0542509000006,817.1203000000005,817.1047161000006,817.1083350999997,817.1203000000005,817.1203000000005,817.1203000000005,817.1203000000005,819.1204484999998,819.1204484999998,819.1204484999998,819.1204484999998,819.1049005000004,2,0.9860631999999896,0.18693350000103237,None,,,,,,,,,,,,,,,,,,,,6532,1,2025-07-29_16h28.40.266,sm,2024.2.4,59.98220927655392,2025-07-29 16h29.02.192553 +0200,
20,0,20,,,,,,space,5.861020600001211,None,None,2,0.9445622000002913,0.18686600000000908,None,0,0,0,0,,,,,1,0,1,0,,,,,20,0,20,0,819.1204484999998,,,,,,,,,,,,,,,,,,,,,,,,,,,,,,,,,,,,,,,,,,,,,,,,,,,,,,,,,,Schule,3.3247,819.1054084000007,819.1059206000009,819.1060269000009,819.1204484999998,822.4535751000003,822.437743800001,822.4422677000002,822.4535751000003,822.4535751000003,822.4535751000003,822.4535751000003,824.4531676000006,824.4531676000006,824.4531676000006,824.4531676000006,824.4376628999999,2,0.9445622000002913,0.18686600000000908,None,,,,,,,,,,,,,,,,,,,,6532,1,2025-07-29_16h28.40.266,sm,2024.2.4,59.98220927655392,2025-07-29 16h29.02.192553 +0200,
21,0,21,,,,,,space,5.861020600001211,None,None,3,1.2247526000010112,0.23038009999982023,None,0,0,0,0,,,,,1,0,1,0,,,,,21,0,21,0,824.4531676000006,,,,,,,,,,,,,,,,,,,,,,,,,,,,,,,,,,,,,,,,,,,,,,,,,,,,,,,,,,Statue,3.4681,824.4381807000009,824.438689300001,824.4388020000006,824.4531676000006,827.9360075000004,827.9210825000009,827.9247230000001,827.9360075000004,827.9360075000004,827.9360075000004,827.9360075000004,829.9361530000006,829.9361530000006,829.9361530000006,829.9361530000006,829.9207843000004,3,1.2247526000010112,0.23038009999982023,None,,,,,,,,,,,,,,,,,,,,6532,1,2025-07-29_16h28.40.266,sm,2024.2.4,59.98220927655392,2025-07-29 16h29.02.192553 +0200,
22,0,22,,,,,,space,5.861020600001211,None,None,3,1.1351624999988417,0.2213822000012442,None,0,0,0,0,,,,,1,0,1,0,,,,,22,0,22,0,829.9361530000006,,,,,,,,,,,,,,,,,,,,,,,,,,,,,,,,,,,,,,,,,,,,,,,,,,,,,,,,,,Kaffee,3.8333,829.9212925000011,829.9218022000005,829.9219162999998,829.9361530000006,833.7691888999998,833.7536576000002,833.7576220999999,833.7691888999998,833.7691888999998,833.7691888999998,833.7691888999998,835.7694939000012,835.7694939000012,835.7694939000012,835.7694939000012,835.7537327000009,3,1.1351624999988417,0.2213822000012442,None,,,,,,,,,,,,,,,,,,,,6532,1,2025-07-29_16h28.40.266,sm,2024.2.4,59.98220927655392,2025-07-29 16h29.02.192553 +0200,
23,0,23,,,,,,space,5.861020600001211,None,None,2,1.1314911999998003,0.16704349999963597,None,0,0,0,0,,,,,1,0,1,0,,,,,23,0,23,0,835.7694939000012,,,,,,,,,,,,,,,,,,,,,,,,,,,,,,,,,,,,,,,,,,,,,,,,,,,,,,,,,,Sprache,2.3537,835.7542490000014,835.754909700001,835.7550188000005,835.7694939000012,838.135852200001,838.1205104000001,838.1246938000004,838.135852200001,838.135852200001,838.135852200001,838.135852200001,840.1357802000002,840.1357802000002,840.1357802000002,840.1357802000002,840.1201235000008,2,1.1314911999998003,0.16704349999963597,None,,,,,,,,,,,,,,,,,,,,6532,1,2025-07-29_16h28.40.266,sm,2024.2.4,59.98220927655392,2025-07-29 16h29.02.192553 +0200,
24,0,24,,,,,,space,5.861020600001211,None,None,3,1.5245677000002615,0.222634100000505,None,0,0,0,0,,,,,1,0,1,0,,,,,24,0,24,0,840.1357802000002,,,,,,,,,,,,,,,,,,,,,,,,,,,,,,,,,,,,,,,,,,,,,,,,,,,,,,,,,,Ostern,2.1052,840.1206373000005,840.121136400001,840.1212453000007,840.1357802000002,842.2521973000003,842.2365488000014,842.2407770999998,842.2521973000003,842.2521973000003,842.2521973000003,842.2521973000003,844.2522876000003,844.2522876000003,844.2522876000003,844.2522876000003,844.2366741000005,3,1.5245677000002615,0.222634100000505,None,,,,,,,,,,,,,,,,,,,,6532,1,2025-07-29_16h28.40.266,sm,2024.2.4,59.98220927655392,2025-07-29 16h29.02.192553 +0200,
25,0,25,,,,,,space,5.861020600001211,None,None,2,1.5314854999996896,0.17159650000030524,None,0,0,0,0,,,,,1,0,1,0,,,,,25,0,25,0,844.2522876000003,,,,,,,,,,,,,,,,,,,,,,,,,,,,,,,,,,,,,,,,,,,,,,,,,,,,,,,,,,Knöchel,4.0834,844.2371939000004,844.2376959000012,844.237801700001,844.2522876000003,848.3350545000012,848.3196592000004,848.3240320000004,848.3350545000012,848.3350545000012,848.3350545000012,848.3350545000012,850.3352583000014,850.3352583000014,850.3352583000014,850.3352583000014,850.3198119000008,2,1.5314854999996896,0.17159650000030524,None,,,,,,,,,,,,,,,,,,,,6532,1,2025-07-29_16h28.40.266,sm,2024.2.4,59.98220927655392,2025-07-29 16h29.02.192553 +0200,
26,0,26,,,,,,space,5.861020600001211,None,None,3,1.023144400000092,0.22442299999966053,None,0,0,0,0,,,,,1,0,1,0,,,,,26,0,26,0,850.3352583000014,,,,,,,,,,,,,,,,,,,,,,,,,,,,,,,,,,,,,,,,,,,,,,,,,,,,,,,,,,Foto,2.9651,850.3203321000001,850.3209289000006,850.3210392000001,850.3352583000014,853.3014997000009,853.2857297999999,853.2888718000013,853.3014997000009,853.3014997000009,853.3014997000009,853.3014997000009,855.3014192999999,855.3014192999999,855.3014192999999,855.3014192999999,855.2859520000002,3,1.023144400000092,0.22442299999966053,None,,,,,,,,,,,,,,,,,,,,6532,1,2025-07-29_16h28.40.266,sm,2024.2.4,59.98220927655392,2025-07-29 16h29.02.192553 +0200,
27,0,27,,,,,,space,5.861020600001211,None,None,3,0.9163666999993438,0.21945179999966058,None,0,0,0,0,,,,,1,0,1,0,,,,,27,0,27,0,855.3014192999999,,,,,,,,,,,,,,,,,,,,,,,,,,,,,,,,,,,,,,,,,,,,,,,,,,,,,,,,,,Kapitel,2.5997,855.2864663,855.2869833000004,855.2870902000013,855.3014192999999,857.9013329999998,857.8858536000007,857.8910293999998,857.9013329999998,857.9013329999998,857.9013329999998,857.9013329999998,859.9015809000011,859.9015809000011,859.9015809000011,859.9015809000011,859.8856112000012,3,0.9163666999993438,0.21945179999966058,None,,,,,,,,,,,,,,,,,,,,6532,1,2025-07-29_16h28.40.266,sm,2024.2.4,59.98220927655392,2025-07-29 16h29.02.192553 +0200,
28,0,28,,,,,,space,5.861020600001211,None,None,2,1.1638424000011582,0.18352760000016133,None,0,0,0,0,,,,,1,0,1,0,,,,,28,0,28,0,859.9015809000011,,,,,,,,,,,,,,,,,,,,,,,,,,,,,,,,,,,,,,,,,,,,,,,,,,,,,,,,,,Hand,2.4622,859.8861304000002,859.8868118999999,859.8869270000014,859.9015809000011,862.3675678,862.3519677000004,862.3555898000013,862.3675678,862.3675678,862.3675678,862.3675678,864.367675200001,864.367675200001,864.367675200001,864.367675200001,864.3522752999997,2,1.1638424000011582,0.18352760000016133,None,,,,,,,,,,,,,,,,,,,,6532,1,2025-07-29_16h28.40.266,sm,2024.2.4,59.98220927655392,2025-07-29 16h29.02.192553 +0200,
29,0,29,,,,,,space,5.861020600001211,None,None,2,1.0364926000002015,0.20192219999989902,None,0,0,0,0,,,,,1,0,1,0,,,,,29,0,29,0,864.367675200001,,,,,,,,,,,,,,,,,,,,,,,,,,,,,,,,,,,,,,,,,,,,,,,,,,,,,,,,,,Fisch,3.1792,864.3527914000006,864.3532993999997,864.3534077000004,864.367675200001,867.5507226999998,867.5351472000002,867.5388105000002,867.5507226999998,867.5507226999998,867.5507226999998,867.5507226999998,869.5508506000006,869.5508506000006,869.5508506000006,869.5508506000006,869.5350352000005,2,1.0364926000002015,0.20192219999989902,None,,,,,,,,,,,,,,,,,,,,6532,1,2025-07-29_16h28.40.266,sm,2024.2.4,59.98220927655392,2025-07-29 16h29.02.192553 +0200,
30,0,30,,,,,,space,5.861020600001211,None,None,2,0.9484884000012244,0.1855708000002778,None,0,0,0,0,,,,,1,0,1,0,,,,,30,0,30,0,869.5508506000006,,,,,,,,,,,,,,,,,,,,,,,,,,,,,,,,,,,,,,,,,,,,,,,,,,,,,,,,,,Familie,2.3094,869.5355512000006,869.5360627000009,869.5361693000013,869.5508506000006,871.8671048000015,871.8515358000004,871.854752700001,871.8671048000015,871.8671048000015,871.8671048000015,871.8671048000015,873.8670589000012,873.8670589000012,873.8670589000012,873.8670589000012,873.8516440000003,2,0.9484884000012244,0.1855708000002778,None,,,,,,,,,,,,,,,,,,,,6532,1,2025-07-29_16h28.40.266,sm,2024.2.4,59.98220927655392,2025-07-29 16h29.02.192553 +0200,
31,0,31,,,,,,space,5.861020600001211,None,None,3,1.2558869999993476,0.218701300000248,None,0,0,0,0,,,,,1,0,1,0,,,,,31,0,31,0,873.8670589000012,,,,,,,,,,,,,,,,,,,,,,,,,,,,,,,,,,,,,,,,,,,,,,,,,,,,,,,,,,Weltraum,2.7194,873.8521505999997,873.8526730000012,873.8527795000009,873.8670589000012,876.6002337999998,876.5847275000015,876.5888842000004,876.6002337999998,876.6002337999998,876.6002337999998,876.6002337999998,878.6005358000002,878.6005358000002,878.6005358000002,878.6005358000002,878.5844662,3,1.2558869999993476,0.218701300000248,None,,,,,,,,,,,,,,,,,,,,6532,1,2025-07-29_16h28.40.266,sm,2024.2.4,59.98220927655392,2025-07-29 16h29.02.192553 +0200,
32,0,32,,,,,,space,5.861020600001211,None,None,2,1.2123704999994516,0.17353559999901336,None,0,0,0,0,,,,,1,0,1,0,,,,,32,0,32,0,878.6005358000002,,,,,,,,,,,,,,,,,,,,,,,,,,,,,,,,,,,,,,,,,,,,,,,,,,,,,,,,,,Ehe,4.5296,878.5849205000013,878.5853979000003,878.5854926000011,878.6005358000002,883.1332392000004,883.1176159000006,883.1210702000008,883.1332392000004,883.1332392000004,883.1332392000004,883.1332392000004,885.1330343000009,885.1330343000009,885.1330343000009,885.1330343000009,885.1172234000005,2,1.2123704999994516,0.17353559999901336,None,,,,,,,,,,,,,,,,,,,,6532,1,2025-07-29_16h28.40.266,sm,2024.2.4,59.98220927655392,2025-07-29 16h29.02.192553 +0200,
33,0,33,,,,,,space,5.861020600001211,None,None,2,1.8988336999991589,None,None,0,0,0,0,,,,,1,0,1,0,,,,,33,0,33,0,885.1330343000009,,,,,,,,,,,,,,,,,,,,,,,,,,,,,,,,,,,,,,,,,,,,,,,,,,,,,,,,,,Schmerz,4.1527,885.1176520999998,885.118118800001,885.1182078000002,885.1330343000009,889.2996409000007,889.2839466000005,889.289966100001,889.2996409000007,889.2996409000007,889.2996409000007,889.2996409000007,891.2997035999997,891.2997035999997,891.2997035999997,891.2997035999997,891.2839796999997,2,1.8988336999991589,None,None,,,,,,,,,,,,,,,,,,,,6532,1,2025-07-29_16h28.40.266,sm,2024.2.4,59.98220927655392,2025-07-29 16h29.02.192553 +0200,
34,0,34,,,,,,space,5.861020600001211,None,None,3,1.1897575999992114,0.19345770000109042,None,0,0,0,0,,,,,1,0,1,0,,,,,34,0,34,0,891.2997035999997,,,,,,,,,,,,,,,,,,,,,,,,,,,,,,,,,,,,,,,,,,,,,,,,,,,,,,,,,,Juwel,2.042,891.2844955,891.2854400000015,891.2855795000014,891.2997035999997,893.3498215,893.3337745000008,893.3396100999998,893.3498215,893.3498215,893.3498215,893.3498215,895.3494939000011,895.3494939000011,895.3494939000011,895.3494939000011,895.333611600001,3,1.1897575999992114,0.19345770000109042,None,,,,,,,,,,,,,,,,,,,,6532,1,2025-07-29_16h28.40.266,sm,2024.2.4,59.98220927655392,2025-07-29 16h29.02.192553 +0200,
35,0,35,,,,,,space,5.861020600001211,None,None,2,1.1678203999999823,0.1883307000007335,None,0,0,0,0,,,,,1,0,1,0,,,,,35,0,35,0,895.3494939000011,,,,,,,,,,,,,,,,,,,,,,,,,,,,,,,,,,,,,,,,,,,,,,,,,,,,,,,,,,Krieg,3.9595,895.3341275000002,895.3346411000002,895.3347473000013,895.3494939000011,899.3156784000003,899.2998748000009,899.3033293999997,899.3156784000003,899.3156784000003,899.3156784000003,899.3156784000003,901.3157169000006,901.3157169000006,901.3157169000006,901.3157169000006,901.2996832999997,2,1.1678203999999823,0.1883307000007335,None,,,,,,,,,,,,,,,,,,,,6532,1,2025-07-29_16h28.40.266,sm,2024.2.4,59.98220927655392,2025-07-29 16h29.02.192553 +0200,
36,0,36,,,,,,space,5.861020600001211,None,None,2,1.2001219000012497,0.17854459999944083,None,0,0,0,0,,,,,1,0,1,0,,,,,36,0,36,0,901.3157169000006,,,,,,,,,,,,,,,,,,,,,,,,,,,,,,,,,,,,,,,,,,,,,,,,,,,,,,,,,,Journalistin,2.0171,901.3001392000006,901.3006222000004,901.3007600000001,901.3157169000006,903.3320473000003,903.3166629000007,903.3208880000002,903.3320473000003,903.3320473000003,903.3320473000003,903.3320473000003,905.3318888000013,905.3318888000013,905.3318888000013,905.3318888000013,905.3164968000001,2,1.2001219000012497,0.17854459999944083,None,,,,,,,,,,,,,,,,,,,,6532,1,2025-07-29_16h28.40.266,sm,2024.2.4,59.98220927655392,2025-07-29 16h29.02.192553 +0200,
37,0,37,,,,,,space,5.861020600001211,None,None,3,1.1285349999998289,0.21804030000021157,None,0,0,0,0,,,,,1,0,1,0,,,,,37,0,37,0,905.3318888000013,,,,,,,,,,,,,,,,,,,,,,,,,,,,,,,,,,,,,,,,,,,,,,,,,,,,,,,,,,Gipfel,2.8047,905.3170095000005,905.3175202000002,905.3176303,905.3318888000013,908.1486099000012,908.1327471000004,908.1362938000002,908.1486099000012,908.1486099000012,908.1486099000012,908.1486099000012,910.1485936000008,910.1485936000008,910.1485936000008,910.1485936000008,910.1328162999998,3,1.1285349999998289,0.21804030000021157,None,,,,,,,,,,,,,,,,,,,,6532,1,2025-07-29_16h28.40.266,sm,2024.2.4,59.98220927655392,2025-07-29 16h29.02.192553 +0200,
38,0,38,,,,,,space,5.861020600001211,None,None,2,1.021773899999971,0.16216220000023895,None,0,0,0,0,,,,,1,0,1,0,,,,,38,0,38,0,910.1485936000008,,,,,,,,,,,,,,,,,,,,,,,,,,,,,,,,,,,,,,,,,,,,,,,,,,,,,,,,,,Anhänger,2.011,910.1333247000002,910.1338474000004,910.1339594000001,910.1485936000008,912.1647002999998,912.1492682999997,912.1529292000014,912.1647002999998,912.1647002999998,912.1647002999998,912.1647002999998,914.1650027000014,914.1650027000014,914.1650027000014,914.1650027000014,914.1492262000011,2,1.021773899999971,0.16216220000023895,None,,,,,,,,,,,,,,,,,,,,6532,1,2025-07-29_16h28.40.266,sm,2024.2.4,59.98220927655392,2025-07-29 16h29.02.192553 +0200,
39,0,39,,,,,,space,5.861020600001211,None,None,3,0.975576099999671,0.21684199999981502,None,0,0,0,0,,,,,1,0,1,0,,,,,39,0,39,0,914.1650027000014,,,,,,,,,,,,,,,,,,,,,,,,,,,,,,,,,,,,,,,,,,,,,,,,,,,,,,,,,,Klinge,5.7127,914.1497023000011,914.150201800001,914.1503043000012,914.1650027000014,919.8810723000006,919.8658523000013,919.8702200000007,919.8810723000006,919.8810723000006,919.8810723000006,919.8810723000006,921.8811123000014,921.8811123000014,921.8811123000014,921.8811123000014,921.8656197,3,0.975576099999671,0.21684199999981502,None,,,,,,,,,,,,,,,,,,,,6532,1,2025-07-29_16h28.40.266,sm,2024.2.4,59.98220927655392,2025-07-29 16h29.02.192553 +0200,
40,0,40,,,,,,space,5.861020600001211,None,None,3,1.0458868999994593,0.22240050000073097,None,0,0,0,0,,,,,1,0,1,0,,,,,40,0,40,0,921.8811123000014,,,,,,,,,,,,,,,,,,,,,,,,,,,,,,,,,,,,,,,,,,,,,,,,,,,,,,,,,,Spaghetti,3.108,921.8661269000004,921.8667877000007,921.8668924000012,921.8811123000014,924.9977337,924.9821026999998,924.9865513000004,924.9977337,924.9977337,924.9977337,924.9977337,926.9977706999998,926.9977706999998,926.9977706999998,926.9977706999998,926.9820379000012,3,1.0458868999994593,0.22240050000073097,None,,,,,,,,,,,,,,,,,,,,6532,1,2025-07-29_16h28.40.266,sm,2024.2.4,59.98220927655392,2025-07-29 16h29.02.192553 +0200,
41,0,41,,,,,,space,5.861020600001211,None,None,2,0.9998772999988432,0.17096830000082264,None,0,0,0,0,,,,,1,0,1,0,,,,,41,0,41,0,926.9977706999998,,,,,,,,,,,,,,,,,,,,,,,,,,,,,,,,,,,,,,,,,,,,,,,,,,,,,,,,,,Elephant,4.2349,926.9825471000004,926.9830593000006,926.983169000001,926.9977706999998,931.2468194000012,931.2314653000012,931.2350486000014,931.2468194000012,931.2468194000012,931.2468194000012,931.2468194000012,933.2472414000003,933.2472414000003,933.2472414000003,933.2472414000003,933.2314330999998,2,0.9998772999988432,0.17096830000082264,None,,,,,,,,,,,,,,,,,,,,6532,1,2025-07-29_16h28.40.266,sm,2024.2.4,59.98220927655392,2025-07-29 16h29.02.192553 +0200,
42,0,42,,,,,,space,5.861020600001211,None,None,3,1.5232224999999744,0.21542529999896942,None,0,0,0,0,,,,,1,0,1,0,,,,,42,0,42,0,933.2472414000003,,,,,,,,,,,,,,,,,,,,,,,,,,,,,,,,,,,,,,,,,,,,,,,,,,,,,,,,,,Schläger,3.0616,933.2319414000012,933.2325959999998,933.2327058999999,933.2472414000003,936.3136049000004,936.2977949000015,936.3014465000015,936.3136049000004,936.3136049000004,936.3136049000004,936.3136049000004,938.3136553000004,938.3136553000004,938.3136553000004,938.3136553000004,938.297996700001,3,1.5232224999999744,0.21542529999896942,None,,,,,,,,,,,,,,,,,,,,6532,1,2025-07-29_16h28.40.266,sm,2024.2.4,59.98220927655392,2025-07-29 16h29.02.192553 +0200,
43,0,43,,,,,,space,5.861020600001211,None,None,3,1.0903221999997186,0.23134659999959695,None,0,0,0,0,,,,,1,0,1,0,,,,,43,0,43,0,938.3136553000004,,,,,,,,,,,,,,,,,,,,,,,,,,,,,,,,,,,,,,,,,,,,,,,,,,,,,,,,,,Sauber,2.0109,938.2985131000005,938.299109900001,938.2992142000003,938.3136553000004,940.3300346000015,940.3142453,940.3175205000007,940.3300346000015,940.3300346000015,940.3300346000015,940.3300346000015,942.3300990000007,942.3300990000007,942.3300990000007,942.3300990000007,942.3147176000002,3,1.0903221999997186,0.23134659999959695,None,,,,,,,,,,,,,,,,,,,,6532,1,2025-07-29_16h28.40.266,sm,2024.2.4,59.98220927655392,2025-07-29 16h29.02.192553 +0200,
44,0,44,,,,,,space,5.861020600001211,None,None,3,1.1725196999996115,0.2060474999998405,None,0,0,0,0,,,,,1,0,1,0,,,,,44,0,44,0,942.3300990000007,,,,,,,,,,,,,,,,,,,,,,,,,,,,,,,,,,,,,,,,,,,,,,,,,,,,,,,,,,Gemüse,2.804,942.3151940000007,942.3157202000002,942.3158218000008,942.3300990000007,945.1463672000009,945.1305891000011,945.1339179000006,945.1463672000009,945.1463672000009,945.1463672000009,945.1463672000009,947.1463609000002,947.1463609000002,947.1463609000002,947.1463609000002,947.1307846,3,1.1725196999996115,0.2060474999998405,None,,,,,,,,,,,,,,,,,,,,6532,1,2025-07-29_16h28.40.266,sm,2024.2.4,59.98220927655392,2025-07-29 16h29.02.192553 +0200,
45,0,45,,,,,,space,5.861020600001211,None,None,3,1.0100685999987036,0.19488380000075267,None,0,0,0,0,,,,,1,0,1,0,,,,,45,0,45,0,947.1463609000002,,,,,,,,,,,,,,,,,,,,,,,,,,,,,,,,,,,,,,,,,,,,,,,,,,,,,,,,,,Zucker,3.5371,947.1312923000005,947.1319401000001,947.1320474000004,947.1463609000002,950.6966106,950.680503900001,950.6839506000015,950.6966106,950.6966106,950.6966106,950.6966106,952.6965305000012,952.6965305000012,952.6965305000012,952.6965305000012,952.6803108000004,3,1.0100685999987036,0.19488380000075267,None,,,,,,,,,,,,,,,,,,,,6532,1,2025-07-29_16h28.40.266,sm,2024.2.4,59.98220927655392,2025-07-29 16h29.02.192553 +0200,
46,0,46,,,,,,space,5.861020600001211,None,None,3,1.353515000000698,0.2120145999997476,None,0,0,0,0,,,,,1,0,1,0,,,,,46,0,46,0,952.6965305000012,,,,,,,,,,,,,,,,,,,,,,,,,,,,,,,,,,,,,,,,,,,,,,,,,,,,,,,,,,Kälte,2.5117,952.6808237000005,952.681331400001,952.6814382000011,952.6965305000012,955.2126655000011,955.1976633000013,955.202715200001,955.2126655000011,955.2126655000011,955.2126655000011,955.2126655000011,957.2125065,957.2125065,957.2125065,957.2125065,957.1968720000004,3,1.353515000000698,0.2120145999997476,None,,,,,,,,,,,,,,,,,,,,6532,1,2025-07-29_16h28.40.266,sm,2024.2.4,59.98220927655392,2025-07-29 16h29.02.192553 +0200,
47,0,47,,,,,,space,5.861020600001211,None,None,3,1.4615849999991042,0.22317780000048515,None,0,0,0,0,,,,,1,0,1,0,,,,,47,0,47,0,957.2125065,,,,,,,,,,,,,,,,,,,,,,,,,,,,,,,,,,,,,,,,,,,,,,,,,,,,,,,,,,Chips,2.4338,957.197379700001,957.1981324000008,957.1982401000005,957.2125065,959.645490500001,959.6298797,959.6355624000007,959.645490500001,959.645490500001,959.645490500001,959.645490500001,961.6455655000009,961.6455655000009,961.6455655000009,961.6455655000009,961.6300846000013,3,1.4615849999991042,0.22317780000048515,None,,,,,,,,,,,,,,,,,,,,6532,1,2025-07-29_16h28.40.266,sm,2024.2.4,59.98220927655392,2025-07-29 16h29.02.192553 +0200,
48,0,48,,,,,,space,5.861020600001211,None,None,3,1.1054217999990215,0.1984890000003361,None,0,0,0,0,,,,,1,0,1,0,,,,,48,0,48,0,961.6455655000009,,,,,,,,,,,,,,,,,,,,,,,,,,,,,,,,,,,,,,,,,,,,,,,,,,,,,,,,,,Bett,2.1702,961.6305993000005,961.6311585000003,961.6312704000011,961.6455655000009,963.828799500001,963.813214400001,963.8169271000006,963.828799500001,963.828799500001,963.828799500001,963.828799500001,965.8287962000013,965.8287962000013,965.8287962000013,965.8287962000013,965.8130149000008,3,1.1054217999990215,0.1984890000003361,None,,,,,,,,,,,,,,,,,,,,6532,1,2025-07-29_16h28.40.266,sm,2024.2.4,59.98220927655392,2025-07-29 16h29.02.192553 +0200,
49,0,49,,,,,,space,5.861020600001211,None,None,3,1.046539799999664,0.20864240000082646,None,0,0,0,0,,,,,1,0,1,0,,,,,49,0,49,0,965.8287962000013,,,,,,,,,,,,,,,,,,,,,,,,,,,,,,,,,,,,,,,,,,,,,,,,,,,,,,,,,,Ausbruch,2.3982,965.8135263000004,965.8140417000013,965.814153700001,965.8287962000013,968.2281953000002,968.2127763999997,968.2163990999998,968.2281953000002,968.2281953000002,968.2281953000002,968.2281953000002,970.2288468000006,970.2288468000006,970.2288468000006,970.2288468000006,970.2131485000009,3,1.046539799999664,0.20864240000082646,None,,,,,,,,,,,,,,,,,,,,6532,1,2025-07-29_16h28.40.266,sm,2024.2.4,59.98220927655392,2025-07-29 16h29.02.192553 +0200,
50,0,50,,,,,,space,5.861020600001211,None,None,3,1.1788086999986263,0.1977275000008376,None,0,0,0,0,,,,,1,0,1,0,,,,,50,0,50,0,970.2288468000006,,,,,,,,,,,,,,,,,,,,,,,,,,,,,,,,,,,,,,,,,,,,,,,,,,,,,,,,,,Papier,2.1581,970.2136623000006,970.2141874000008,970.2142960000001,970.2288468000006,972.3952258999998,972.3788476999998,972.3820964000006,972.3952258999998,972.3952258999998,972.3952258999998,972.3952258999998,974.3942291000003,974.3942291000003,974.3942291000003,974.3942291000003,974.3785189000009,3,1.1788086999986263,0.1977275000008376,None,,,,,,,,,,,,,,,,,,,,6532,1,2025-07-29_16h28.40.266,sm,2024.2.4,59.98220927655392,2025-07-29 16h29.02.192553 +0200,
51,0,51,,,,,,space,5.861020600001211,None,None,3,1.0456812000011269,0.18816189999961352,None,0,0,0,0,,,,,1,0,1,0,,,,,51,0,51,0,974.3942291000003,,,,,,,,,,,,,,,,,,,,,,,,,,,,,,,,,,,,,,,,,,,,,,,,,,,,,,,,,,Fahrrad,2.5462,974.3789487000013,974.3794142000006,974.3795028000004,974.3942291000003,976.9444347999997,976.9290932000004,976.9335707000009,976.9444347999997,976.9444347999997,976.9444347999997,976.9444347999997,978.9453740000008,978.9453740000008,978.9453740000008,978.9453740000008,978.9294659000007,3,1.0456812000011269,0.18816189999961352,None,,,,,,,,,,,,,,,,,,,,6532,1,2025-07-29_16h28.40.266,sm,2024.2.4,59.98220927655392,2025-07-29 16h29.02.192553 +0200,
52,0,52,,,,,,space,5.861020600001211,None,None,3,1.1843012999997882,0.19252419999975245,None,0,0,0,0,,,,,1,0,1,0,,,,,52,0,52,0,978.9453740000008,,,,,,,,,,,,,,,,,,,,,,,,,,,,,,,,,,,,,,,,,,,,,,,,,,,,,,,,,,Geschäft,2.2129,978.9299452000014,978.9304379000005,978.9305396,978.9453740000008,981.1614384000004,981.1457097000002,981.1508535000012,981.1614384000004,981.1614384000004,981.1614384000004,981.1614384000004,983.1610255000014,983.1610255000014,983.1610255000014,983.1610255000014,983.1455653000012,3,1.1843012999997882,0.19252419999975245,None,,,,,,,,,,,,,,,,,,,,6532,1,2025-07-29_16h28.40.266,sm,2024.2.4,59.98220927655392,2025-07-29 16h29.02.192553 +0200,
53,0,53,,,,,,space,5.861020600001211,None,None,3,0.9379752000004373,0.21050499999910244,None,0,0,0,0,,,,,1,0,1,0,,,,,53,0,53,0,983.1610255000014,,,,,,,,,,,,,,,,,,,,,,,,,,,,,,,,,,,,,,,,,,,,,,,,,,,,,,,,,,Shampoo,3.1806,983.1460979000003,983.1466142999998,983.1467238000005,983.1610255000014,986.3439907000011,986.3282412000008,986.3317207,986.3439907000011,986.3439907000011,986.3439907000011,986.3439907000011,988.343928100001,988.343928100001,988.343928100001,988.343928100001,988.3283098000011,3,0.9379752000004373,0.21050499999910244,None,,,,,,,,,,,,,,,,,,,,6532,1,2025-07-29_16h28.40.266,sm,2024.2.4,59.98220927655392,2025-07-29 16h29.02.192553 +0200,
54,0,54,,,,,,space,5.861020600001211,None,None,2,1.4170924000009109,0.15551459999915096,None,0,0,0,0,,,,,1,0,1,0,,,,,54,0,54,0,988.343928100001,,,,,,,,,,,,,,,,,,,,,,,,,,,,,,,,,,,,,,,,,,,,,,,,,,,,,,,,,,Reise,2.1991,988.3288186999998,988.3294205000002,988.3295260000014,988.343928100001,990.5439107000002,990.5279730000002,990.5313875000011,990.5439107000002,990.5439107000002,990.5439107000002,990.5439107000002,992.5440374999998,992.5440374999998,992.5440374999998,992.5440374999998,992.5281250000007,2,1.4170924000009109,0.15551459999915096,None,,,,,,,,,,,,,,,,,,,,6532,1,2025-07-29_16h28.40.266,sm,2024.2.4,59.98220927655392,2025-07-29 16h29.02.192553 +0200,
55,0,55,,,,,,space,5.861020600001211,None,None,3,1.3429073999996035,0.20745630000055826,None,0,0,0,0,,,,,1,0,1,0,,,,,55,0,55,0,992.5440374999998,,,,,,,,,,,,,,,,,,,,,,,,,,,,,,,,,,,,,,,,,,,,,,,,,,,,,,,,,,Center,3.0917,992.5286320000014,992.5291847000008,992.5292914000001,992.5440374999998,995.6434759000003,995.6281806000006,995.6326098000009,995.6434759000003,995.6434759000003,995.6434759000003,995.6434759000003,997.6439875000015,997.6439875000015,997.6439875000015,997.6439875000015,997.6278675000012,3,1.3429073999996035,0.20745630000055826,None,,,,,,,,,,,,,,,,,,,,6532,1,2025-07-29_16h28.40.266,sm,2024.2.4,59.98220927655392,2025-07-29 16h29.02.192553 +0200,
56,0,56,,,,,,space,5.861020600001211,None,None,2,1.3931359999987762,0.16660000000047148,None,0,0,0,0,,,,,1,0,1,0,,,,,56,0,56,0,997.6439875000015,,,,,,,,,,,,,,,,,,,,,,,,,,,,,,,,,,,,,,,,,,,,,,,,,,,,,,,,,,Fliegen,3.0691,997.6283746999998,997.6288853000005,997.6289943000011,997.6439875000015,1000.7265891000006,1000.7110339999999,1000.7145130000008,1000.7265891000006,1000.7265891000006,1000.7265891000006,1000.7265891000006,1002.7268101000009,1002.7268101000009,1002.7268101000009,1002.7268101000009,1002.7111139999997,2,1.3931359999987762,0.16660000000047148,None,,,,,,,,,,,,,,,,,,,,6532,1,2025-07-29_16h28.40.266,sm,2024.2.4,59.98220927655392,2025-07-29 16h29.02.192553 +0200,
57,0,57,,,,,,space,5.861020600001211,None,None,3,0.9821207999993931,0.1927243999998609,None,0,0,0,0,,,,,1,0,1,0,,,,,57,0,57,0,1002.7268101000009,,,,,,,,,,,,,,,,,,,,,,,,,,,,,,,,,,,,,,,,,,,,,,,,,,,,,,,,,,Tür,3.5525,1002.7116182000009,1002.712145200001,1002.7122509000001,1002.7268101000009,1006.2927294000001,1006.2773925000001,1006.2808535000004,1006.2927294000001,1006.2927294000001,1006.2927294000001,1006.2927294000001,1008.2928630000006,1008.2928630000006,1008.2928630000006,1008.2928630000006,1008.2774985000015,3,0.9821207999993931,0.1927243999998609,None,,,,,,,,,,,,,,,,,,,,6532,1,2025-07-29_16h28.40.266,sm,2024.2.4,59.98220927655392,2025-07-29 16h29.02.192553 +0200,
58,0,58,,,,,,space,5.861020600001211,None,None,3,1.144067699999141,0.1933766000001924,None,0,0,0,0,,,,,1,0,1,0,,,,,58,0,58,0,1008.2928630000006,,,,,,,,,,,,,,,,,,,,,,,,,,,,,,,,,,,,,,,,,,,,,,,,,,,,,,,,,,Rauch,2.0259,1008.2780103000005,1008.278551200001,1008.2786716999999,1008.2928630000006,1010.3259711999999,1010.3104973999998,1010.3148888000014,1010.3259711999999,1010.3259711999999,1010.3259711999999,1010.3259711999999,1012.3262427999998,1012.3262427999998,1012.3262427999998,1012.3262427999998,1012.3105043000014,3,1.144067699999141,0.1933766000001924,None,,,,,,,,,,,,,,,,,,,,6532,1,2025-07-29_16h28.40.266,sm,2024.2.4,59.98220927655392,2025-07-29 16h29.02.192553 +0200,
59,0,59,,,,,,space,5.861020600001211,None,None,3,0.9699251000001823,0.21799680000003718,None,0,0,0,0,,,,,1,0,1,0,,,,,59,0,59,0,1012.3262427999998,,,,,,,,,,,,,,,,,,,,,,,,,,,,,,,,,,,,,,,,,,,,,,,,,,,,,,,,,,Kerzen,2.462,1012.3110158,1012.3116123,1012.3117178000011,1012.3262427999998,1014.7924863000007,1014.7769136000006,1014.7811646999999,1014.7924863000007,1014.7924863000007,1014.7924863000007,1014.7924863000007,1016.7925773000006,1016.7925773000006,1016.7925773000006,1016.7925773000006,1016.776972900001,3,0.9699251000001823,0.21799680000003718,None,,,,,,,,,,,,,,,,,,,,6532,1,2025-07-29_16h28.40.266,sm,2024.2.4,59.98220927655392,2025-07-29 16h29.02.192553 +0200,
60,0,60,,,,,,space,5.861020600001211,None,None,3,1.4254519999994955,0.20652250000057393,None,0,0,0,0,,,,,1,0,1,0,,,,,60,0,60,0,1016.7925773000006,,,,,,,,,,,,,,,,,,,,,,,,,,,,,,,,,,,,,,,,,,,,,,,,,,,,,,,,,,Anruf,2.7158,1016.7774867999997,1016.7780305000015,1016.7781393000005,1016.7925773000006,1019.5088501000009,1019.4932733000005,1019.4975026000011,1019.5088501000009,1019.5088501000009,1019.5088501000009,1019.5088501000009,1021.508987700001,1021.508987700001,1021.508987700001,1021.508987700001,1021.4934130000001,3,1.4254519999994955,0.20652250000057393,None,,,,,,,,,,,,,,,,,,,,6532,1,2025-07-29_16h28.40.266,sm,2024.2.4,59.98220927655392,2025-07-29 16h29.02.192553 +0200,
61,0,61,,,,,,space,5.861020600001211,None,None,3,1.9524770000007265,None,None,0,0,0,0,,,,,1,0,1,0,,,,,61,0,61,0,1021.508987700001,,,,,,,,,,,,,,,,,,,,,,,,,,,,,,,,,,,,,,,,,,,,,,,,,,,,,,,,,,Wind,2.712,1021.4939258000013,1021.4944560000004,1021.4945689000015,1021.508987700001,1024.2249427000006,1024.2097192,1024.2129237000008,1024.2249427000006,1024.2249427000006,1024.2249427000006,1024.2249427000006,1026.2250789999998,1026.2250789999998,1026.2250789999998,1026.2250789999998,1026.2095844000014,3,1.9524770000007265,None,None,,,,,,,,,,,,,,,,,,,,6532,1,2025-07-29_16h28.40.266,sm,2024.2.4,59.98220927655392,2025-07-29 16h29.02.192553 +0200,
62,0,62,,,,,,space,5.861020600001211,None,None,3,0.9692872999985411,0.19443320000027597,None,0,0,0,0,,,,,1,0,1,0,,,,,62,0,62,0,1026.2250789999998,,,,,,,,,,,,,,,,,,,,,,,,,,,,,,,,,,,,,,,,,,,,,,,,,,,,,,,,,,Tube,3.2368,1026.2100373000012,1026.2105428000013,1026.2106366000007,1026.2250789999998,1029.4749354000014,1029.4599565000008,1029.4635658000007,1029.4749354000014,1029.4749354000014,1029.4749354000014,1029.4749354000014,1031.4747843000005,1031.4747843000005,1031.4747843000005,1031.4747843000005,1031.4592834000014,3,0.9692872999985411,0.19443320000027597,None,,,,,,,,,,,,,,,,,,,,6532,1,2025-07-29_16h28.40.266,sm,2024.2.4,59.98220927655392,2025-07-29 16h29.02.192553 +0200,
63,0,63,,,,,,space,5.861020600001211,None,None,3,0.8986745999991399,0.20830580000074406,None,0,0,0,0,,,,,1,0,1,0,,,,,63,0,63,0,1031.4747843000005,,,,,,,,,,,,,,,,,,,,,,,,,,,,,,,,,,,,,,,,,,,,,,,,,,,,,,,,,,Skizze,2.5572,1031.4597236000009,1031.4602034,1031.460301000001,1031.4747843000005,1034.0412489999999,1034.025706800001,1034.0295514999998,1034.0412489999999,1034.0412489999999,1034.0412489999999,1034.0412489999999,1036.0414313,1036.0414313,1036.0414313,1036.0414313,1036.0262567999998,3,0.8986745999991399,0.20830580000074406,None,,,,,,,,,,,,,,,,,,,,6532,1,2025-07-29_16h28.40.266,sm,2024.2.4,59.98220927655392,2025-07-29 16h29.02.192553 +0200,
