thisN,thisTrialN,thisRepN,Cue,Target,Mediator1,Mediator2,iti,scanner_ready_press.keys,scanner_ready_press.rt,scanner_ready_press.duration,skip_trigger.keys,living_nonliving.keys,living_nonliving.rt,living_nonliving.duration,end_mapping.keys,blocks.thisRepN,blocks.thisTrialN,blocks.thisN,blocks.thisIndex,load_and_shuffle.thisRepN,load_and_shuffle.thisTrialN,load_and_shuffle.thisN,load_and_shuffle.thisIndex,runs.thisRepN,runs.thisTrialN,runs.thisN,runs.thisIndex,iti_loading_loop.thisRepN,iti_loading_loop.thisTrialN,iti_loading_loop.thisN,iti_loading_loop.thisIndex,semantic_mapping_run.thisRepN,semantic_mapping_run.thisTrialN,semantic_mapping_run.thisN,semantic_mapping_run.thisIndex,thisRow.t,notes,welcome.started,welcome_text.started,key_resp__welcome.started,welcome.stopped,key_resp__welcome.keys,key_resp__welcome.rt,key_resp__welcome.duration,scout.started,scout_text.started,key_resp.started,scout.stopped,key_resp.keys,key_resp.rt,key_resp.duration,instructions_semantic_mapping1.started,sm_instructions1_text.started,sm_instructions1_key.started,instructions_semantic_mapping1.stopped,sm_instructions1_key.keys,sm_instructions1_key.rt,sm_instructions1_key.duration,instructions_semantic_mapping2.started,sm_instructions2_text.started,sm_instructions2_key.started,instructions_semantic_mapping2.stopped,sm_instructions2_key.keys,sm_instructions2_key.rt,sm_instructions2_key.duration,reset_run.started,reset_run.stopped,shuffle_items.started,shuffle_items.stopped,set_up_runs.started,set_up_runs.stopped,load_iti.started,load_iti.stopped,prep_scanner.started,scanner_ready_press.started,ready_set_text.started,prep_scanner.stopped,runs.scanner_ready_press.keys,runs.scanner_ready_press.rt,runs.scanner_ready_press.duration,wait_for_trigger.started,starting_soon.started,skip_trigger.started,wait_for_trigger.stopped,runs.skip_trigger.keys,blank.started,begin_end_run_cross.started,sound_1.started,sound_1.stopped,sound_2.started,sound_2.stopped,blank.stopped,CurrentItem,CurrentITI,set_up_trial.started,set_up_trial.stopped,sm_iti.started,iti_cross.started,iti_cross.stopped,sm_iti.stopped,item.started,living_nonliving.started,end_mapping.started,living_nonliving_text.started,semantic_map_item.started,living_nonliving.stopped,end_mapping.stopped,living_nonliving_text.stopped,semantic_map_item.stopped,item.stopped,semantic_mapping_run.living_nonliving.keys,semantic_mapping_run.living_nonliving.rt,semantic_mapping_run.living_nonliving.duration,semantic_mapping_run.end_mapping.keys,fieldmap.started,fieldmap.stopped,runs.fm_key.keys,task_break.started,feeback_text.started,task_break_text.started,task_break_resp.started,feeback_text.stopped,task_break.stopped,runs.task_break_resp.keys,runs.task_break_resp.rt,runs.task_break_resp.duration,begin_end_run_cross.stopped,fm_text.started,fm_key.started,runs.fm_key.rt,runs.fm_key.duration,thanks.started,thanks_text.started,thanks_text.stopped,thanks.stopped,PID,MRI,date,expName,psychopyVersion,frameRate,expStart,
,,,,,,,,,,,,,,,,,,,,,,,,,,,,,,,,,,,,,,0.003979100000833569,0.00951930000064749,0.00951930000064749,87.4040827000008,space,87.37874339999962,None,,,,,,,,,,,,,,,,,,,,,,,,,,,,,,,,,,,,,,,,,,,,,,,,,,,,,,,,,,,,,,,,,,,,,,,,,,,,,,,,,,,,,,,,,,,,1228,1,2025-10-10_12h15.30.346,sm,2024.2.4,59.95473417564128,2025-10-10 12h15.42.212473 +0200,
,,,,,,,,,,,,,,,,,,,,,,,,,,,,,,,,,,,,,,,,,,,,,87.40420740000081,87.41940520000026,87.41940520000026,168.24928440000076,space,80.8178797999999,None,,,,,,,,,,,,,,,,,,,,,,,,,,,,,,,,,,,,,,,,,,,,,,,,,,,,,,,,,,,,,,,,,,,,,,,,,,,,,,,,,,,,,1228,1,2025-10-10_12h15.30.346,sm,2024.2.4,59.95473417564128,2025-10-10 12h15.42.212473 +0200,
,,,,,,,,,,,,,,,,,,,,,,,,,,,,,,,,,,,,,,,,,,,,,,,,,,,,168.24939600000016,168.26442440000028,168.26442440000028,177.86540070000046,5,9.59612290000041,None,,,,,,,,,,,,,,,,,,,,,,,,,,,,,,,,,,,,,,,,,,,,,,,,,,,,,,,,,,,,,,,,,,,,,,,,,,,,,,1228,1,2025-10-10_12h15.30.346,sm,2024.2.4,59.95473417564128,2025-10-10 12h15.42.212473 +0200,
,,,,,,,,,,,,,,,,,,,,,,,,,,,,,,,,,,,,,,,,,,,,,,,,,,,,,,,,,,,177.86551820000022,177.88023070000054,177.88023070000054,186.9650801000007,2,9.067505599999095,None,,,,,,,,,,,,,,,,,,,,,,,,,,,,,,,,,,,,,,,,,,,,,,,,,,,,,,,,,,,,,,,,,,,,,,,1228,1,2025-10-10_12h15.30.346,sm,2024.2.4,59.95473417564128,2025-10-10 12h15.42.212473 +0200,
0,0,0,Bad,Dusche,Wanne,Sauber,2.715,space,2.2091905999996015,None,None,2,1.1247517000001608,0.2371515000004365,None,0,0,0,0,0,79,79,30,0,0,0,0,0,79,79,7,0,0,0,0,247.1599797000008,,,,,,,,,,,,,,,,,,,,,,,,,,,,,,186.96593490000032,186.96648280000045,187.03758580000067,187.03785580000022,187.0423032000008,187.04258760000084,187.07212680000066,187.07234170000083,187.07897220000086,187.08382400000028,187.08382400000028,189.29637690000072,space,2.2091905999996015,None,189.29653840000083,189.31328480000047,189.31328480000047,235.12835780000023,None,235.1380497,235.14658100000088,235.14366156666736,236.34999920000064,245.14294616666692,246.14996680000058,247.14294900000004,Vogel,2.715,247.14450600000055,247.14521610000065,247.14876770000046,247.1599797000008,249.87557610000022,249.86001280000073,249.86318000000028,249.87557610000022,249.87557610000022,249.87557610000022,249.87557610000022,251.87631950000014,251.87631950000014,251.87631950000014,251.87631950000014,251.86030250000022,2,1.1247517000001608,0.2371515000004365,None,,,,,,,,,,,,,,,,,,,,,,1228,1,2025-10-10_12h15.30.346,sm,2024.2.4,59.95473417564128,2025-10-10 12h15.42.212473 +0200,
1,0,1,,,,,,space,2.2091905999996015,None,None,3,1.2696821999998065,0.45225680000021384,None,0,0,0,0,,,,,0,0,0,0,,,,,1,0,1,0,251.87631950000014,,,,,,,,,,,,,,,,,,,,,,,,,,,,,,,,,,,,,,,,,,,,,,,,,,,,,,,,,Center,2.2417,251.86081570000079,251.86132810000072,251.86143290000018,251.87631950000014,254.12548980000065,254.11010830000032,254.11732820000088,254.12548980000065,254.12548980000065,254.12548980000065,254.12548980000065,256.12587090000034,256.12587090000034,256.12587090000034,256.12587090000034,256.11019620000025,3,1.2696821999998065,0.45225680000021384,None,,,,,,,,,,,,,,,,,,,,,,1228,1,2025-10-10_12h15.30.346,sm,2024.2.4,59.95473417564128,2025-10-10 12h15.42.212473 +0200,
2,0,2,,,,,,space,2.2091905999996015,None,None,3,1.1524164000002202,0.20022900000003574,None,0,0,0,0,,,,,0,0,0,0,,,,,2,0,2,0,256.12587090000034,,,,,,,,,,,,,,,,,,,,,,,,,,,,,,,,,,,,,,,,,,,,,,,,,,,,,,,,,Winter,3.6337,256.1106957000002,256.1112099000002,256.1113178000005,256.12587090000034,259.75883220000014,259.7434279000008,259.74769600000036,259.75883220000014,259.75883220000014,259.75883220000014,259.75883220000014,261.7586959,261.7586959,261.7586959,261.7586959,261.7430488,3,1.1524164000002202,0.20022900000003574,None,,,,,,,,,,,,,,,,,,,,,,1228,1,2025-10-10_12h15.30.346,sm,2024.2.4,59.95473417564128,2025-10-10 12h15.42.212473 +0200,
3,0,3,,,,,,space,2.2091905999996015,None,None,3,1.2693624000003183,0.20447500000045693,None,0,0,0,0,,,,,0,0,0,0,,,,,3,0,3,0,261.7586959,,,,,,,,,,,,,,,,,,,,,,,,,,,,,,,,,,,,,,,,,,,,,,,,,,,,,,,,,Raum,2.1887,261.74354630000016,261.7441933,261.7442980000005,261.7586959,263.95838600000025,263.9427127000008,263.9457860000002,263.95838600000025,263.95838600000025,263.95838600000025,263.95838600000025,265.9582962000004,265.9582962000004,265.9582962000004,265.9582962000004,265.94287860000077,3,1.2693624000003183,0.20447500000045693,None,,,,,,,,,,,,,,,,,,,,,,1228,1,2025-10-10_12h15.30.346,sm,2024.2.4,59.95473417564128,2025-10-10 12h15.42.212473 +0200,
4,0,4,,,,,,space,2.2091905999996015,None,None,2,0.6242206000006263,0.20315929999924265,None,0,0,0,0,,,,,0,0,0,0,,,,,4,0,4,0,265.9582962000004,,,,,,,,,,,,,,,,,,,,,,,,,,,,,,,,,,,,,,,,,,,,,,,,,,,,,,,,,Wurm,2.7574,265.94338440000047,265.94390490000023,265.94401110000035,265.9582962000004,268.7249003000006,268.70914300000004,268.7123599000006,268.7249003000006,268.7249003000006,268.7249003000006,268.7249003000006,270.72472760000073,270.72472760000073,270.72472760000073,270.72472760000073,270.70915460000015,2,0.6242206000006263,0.20315929999924265,None,,,,,,,,,,,,,,,,,,,,,,1228,1,2025-10-10_12h15.30.346,sm,2024.2.4,59.95473417564128,2025-10-10 12h15.42.212473 +0200,
5,0,5,,,,,,space,2.2091905999996015,None,None,3,0.9646084999994855,0.1857681000001321,None,0,0,0,0,,,,,0,0,0,0,,,,,5,0,5,0,270.72472760000073,,,,,,,,,,,,,,,,,,,,,,,,,,,,,,,,,,,,,,,,,,,,,,,,,,,,,,,,,Foto,2.0855,270.7096739000008,270.7101967000008,270.71030190000056,270.72472760000073,272.82466770000065,272.8090082000008,272.8149340000009,272.82466770000065,272.82466770000065,272.82466770000065,272.82466770000065,274.8246525000004,274.8246525000004,274.8246525000004,274.8246525000004,274.8088707000006,3,0.9646084999994855,0.1857681000001321,None,,,,,,,,,,,,,,,,,,,,,,1228,1,2025-10-10_12h15.30.346,sm,2024.2.4,59.95473417564128,2025-10-10 12h15.42.212473 +0200,
6,0,6,,,,,,space,2.2091905999996015,None,None,3,0.8083080999995218,0.2294649000004938,None,0,0,0,0,,,,,0,0,0,0,,,,,6,0,6,0,274.8246525000004,,,,,,,,,,,,,,,,,,,,,,,,,,,,,,,,,,,,,,,,,,,,,,,,,,,,,,,,,Schläger,2.2429,274.8093654000004,274.80987520000053,274.80998420000014,274.8246525000004,277.07429720000073,277.05863620000036,277.0625658000008,277.07429720000073,277.07429720000073,277.07429720000073,277.07429720000073,279.0743272000009,279.0743272000009,279.0743272000009,279.0743272000009,279.0589592000006,3,0.8083080999995218,0.2294649000004938,None,,,,,,,,,,,,,,,,,,,,,,1228,1,2025-10-10_12h15.30.346,sm,2024.2.4,59.95473417564128,2025-10-10 12h15.42.212473 +0200,
7,0,7,,,,,,space,2.2091905999996015,None,None,3,1.066686799999843,0.23822290000043722,None,0,0,0,0,,,,,0,0,0,0,,,,,7,0,7,0,279.0743272000009,,,,,,,,,,,,,,,,,,,,,,,,,,,,,,,,,,,,,,,,,,,,,,,,,,,,,,,,,Konzert,2.218,279.0594628000008,279.06011220000073,279.0602176000002,279.0743272000009,281.3073258000004,281.2916255,281.29655120000007,281.3073258000004,281.3073258000004,281.3073258000004,281.3073258000004,283.3075209000008,283.3075209000008,283.3075209000008,283.3075209000008,283.2917343000008,3,1.066686799999843,0.23822290000043722,None,,,,,,,,,,,,,,,,,,,,,,1228,1,2025-10-10_12h15.30.346,sm,2024.2.4,59.95473417564128,2025-10-10 12h15.42.212473 +0200,
8,0,8,,,,,,space,2.2091905999996015,None,None,3,0.8875460999997813,0.22948410000026342,None,0,0,0,0,,,,,0,0,0,0,,,,,8,0,8,0,283.3075209000008,,,,,,,,,,,,,,,,,,,,,,,,,,,,,,,,,,,,,,,,,,,,,,,,,,,,,,,,,Komödie,2.2502,283.2922187000004,283.29289020000033,283.2930008000003,283.3075209000008,285.5570976000008,285.54139810000015,285.5457056000005,285.5570976000008,285.5570976000008,285.5570976000008,285.5570976000008,287.5571004000003,287.5571004000003,287.5571004000003,287.5571004000003,287.54154260000087,3,0.8875460999997813,0.22948410000026342,None,,,,,,,,,,,,,,,,,,,,,,1228,1,2025-10-10_12h15.30.346,sm,2024.2.4,59.95473417564128,2025-10-10 12h15.42.212473 +0200,
9,0,9,,,,,,space,2.2091905999996015,None,None,3,0.8650017999998454,0.19717540000056033,None,0,0,0,0,,,,,0,0,0,0,,,,,9,0,9,0,287.5571004000003,,,,,,,,,,,,,,,,,,,,,,,,,,,,,,,,,,,,,,,,,,,,,,,,,,,,,,,,,Bürste,4.0329,287.5420251000005,287.54251790000035,287.5426275000009,287.5571004000003,291.58998770000017,291.5741456000005,291.57764770000085,291.58998770000017,291.58998770000017,291.58998770000017,291.58998770000017,293.5900195000004,293.5900195000004,293.5900195000004,293.5900195000004,293.57461110000077,3,0.8650017999998454,0.19717540000056033,None,,,,,,,,,,,,,,,,,,,,,,1228,1,2025-10-10_12h15.30.346,sm,2024.2.4,59.95473417564128,2025-10-10 12h15.42.212473 +0200,
10,0,10,,,,,,space,2.2091905999996015,None,None,3,0.8286545999999362,0.1910903000007238,None,0,0,0,0,,,,,0,0,0,0,,,,,10,0,10,0,293.5900195000004,,,,,,,,,,,,,,,,,,,,,,,,,,,,,,,,,,,,,,,,,,,,,,,,,,,,,,,,,Zimt,2.076,293.57511520000025,293.5756338000001,293.5757370000001,293.5900195000004,295.6727485000001,295.6576339000003,295.6625402000009,295.6727485000001,295.6727485000001,295.6727485000001,295.6727485000001,297.6731064000005,297.6731064000005,297.6731064000005,297.6731064000005,297.6576793000004,3,0.8286545999999362,0.1910903000007238,None,,,,,,,,,,,,,,,,,,,,,,1228,1,2025-10-10_12h15.30.346,sm,2024.2.4,59.95473417564128,2025-10-10 12h15.42.212473 +0200,
11,0,11,,,,,,space,2.2091905999996015,None,None,3,1.3203906999997344,0.226756099999875,None,0,0,0,0,,,,,0,0,0,0,,,,,11,0,11,0,297.6731064000005,,,,,,,,,,,,,,,,,,,,,,,,,,,,,,,,,,,,,,,,,,,,,,,,,,,,,,,,,Universität,3.7007,297.6581761000007,297.65869720000046,297.6588012000002,297.6731064000005,301.3725785000006,301.3572559000004,301.36322310000014,301.3725785000006,301.3725785000006,301.3725785000006,301.3725785000006,303.3726935000004,303.3726935000004,303.3726935000004,303.3726935000004,303.3573931000001,3,1.3203906999997344,0.226756099999875,None,,,,,,,,,,,,,,,,,,,,,,1228,1,2025-10-10_12h15.30.346,sm,2024.2.4,59.95473417564128,2025-10-10 12h15.42.212473 +0200,
12,0,12,,,,,,space,2.2091905999996015,None,None,2,0.638224899999841,0.16230339999947319,None,0,0,0,0,,,,,0,0,0,0,,,,,12,0,12,0,303.3726935000004,,,,,,,,,,,,,,,,,,,,,,,,,,,,,,,,,,,,,,,,,,,,,,,,,,,,,,,,,Fisch,2.8106,303.3578972000005,303.3584096000004,303.35851320000074,303.3726935000004,306.18921880000016,306.17414760000065,306.17807690000063,306.18921880000016,306.18921880000016,306.18921880000016,306.18921880000016,308.1891832000001,308.1891832000001,308.1891832000001,308.1891832000001,308.17372610000075,2,0.638224899999841,0.16230339999947319,None,,,,,,,,,,,,,,,,,,,,,,1228,1,2025-10-10_12h15.30.346,sm,2024.2.4,59.95473417564128,2025-10-10 12h15.42.212473 +0200,
13,0,13,,,,,,space,2.2091905999996015,None,None,3,1.3418720999998186,0.21295250000002852,None,0,0,0,0,,,,,0,0,0,0,,,,,13,0,13,0,308.1891832000001,,,,,,,,,,,,,,,,,,,,,,,,,,,,,,,,,,,,,,,,,,,,,,,,,,,,,,,,,Monster,2.3784,308.17422780000015,308.17472870000074,308.1748340000004,308.1891832000001,310.57241090000025,310.55686760000026,310.56110890000036,310.57241090000025,310.57241090000025,310.57241090000025,310.57241090000025,312.57244060000085,312.57244060000085,312.57244060000085,312.57244060000085,312.5573348000007,3,1.3418720999998186,0.21295250000002852,None,,,,,,,,,,,,,,,,,,,,,,1228,1,2025-10-10_12h15.30.346,sm,2024.2.4,59.95473417564128,2025-10-10 12h15.42.212473 +0200,
14,0,14,,,,,,space,2.2091905999996015,None,None,3,0.7345748999996431,0.18250700000044162,None,0,0,0,0,,,,,0,0,0,0,,,,,14,0,14,0,312.57244060000085,,,,,,,,,,,,,,,,,,,,,,,,,,,,,,,,,,,,,,,,,,,,,,,,,,,,,,,,,Rauch,2.593,312.55783060000067,312.55853950000073,312.5586456000001,312.57244060000085,315.17203190000055,315.1563743000006,315.1608569,315.17203190000055,315.17203190000055,315.17203190000055,315.17203190000055,317.1720862000002,317.1720862000002,317.1720862000002,317.1720862000002,317.15673960000004,3,0.7345748999996431,0.18250700000044162,None,,,,,,,,,,,,,,,,,,,,,,1228,1,2025-10-10_12h15.30.346,sm,2024.2.4,59.95473417564128,2025-10-10 12h15.42.212473 +0200,
15,0,15,,,,,,space,2.2091905999996015,None,None,2,1.2335136000001512,0.21221190000051138,None,0,0,0,0,,,,,0,0,0,0,,,,,15,0,15,0,317.1720862000002,,,,,,,,,,,,,,,,,,,,,,,,,,,,,,,,,,,,,,,,,,,,,,,,,,,,,,,,,Mund,2.7457,317.1572064000002,317.15787940000064,317.1579875000007,317.1720862000002,319.92161120000037,319.90604820000044,319.9090238000008,319.92161120000037,319.92161120000037,319.92161120000037,319.92161120000037,321.92172820000087,321.92172820000087,321.92172820000087,321.92172820000087,321.90603700000065,2,1.2335136000001512,0.21221190000051138,None,,,,,,,,,,,,,,,,,,,,,,1228,1,2025-10-10_12h15.30.346,sm,2024.2.4,59.95473417564128,2025-10-10 12h15.42.212473 +0200,
16,0,16,,,,,,space,2.2091905999996015,None,None,2,1.4226295999997092,0.43443999999999505,None,0,0,0,0,,,,,0,0,0,0,,,,,16,0,16,0,321.92172820000087,,,,,,,,,,,,,,,,,,,,,,,,,,,,,,,,,,,,,,,,,,,,,,,,,,,,,,,,,Fuß,2.393,321.9065395000007,321.90704600000026,321.9071515000005,321.92172820000087,324.32163990000026,324.3062385000003,324.3101643,324.32163990000026,324.32163990000026,324.32163990000026,324.32163990000026,326.3217770000001,326.3217770000001,326.3217770000001,326.3217770000001,326.3061438000004,2,1.4226295999997092,0.43443999999999505,None,,,,,,,,,,,,,,,,,,,,,,1228,1,2025-10-10_12h15.30.346,sm,2024.2.4,59.95473417564128,2025-10-10 12h15.42.212473 +0200,
17,0,17,,,,,,space,2.2091905999996015,None,None,2,0.9468185999994603,0.14759520000006887,None,0,0,0,0,,,,,0,0,0,0,,,,,17,0,17,0,326.3217770000001,,,,,,,,,,,,,,,,,,,,,,,,,,,,,,,,,,,,,,,,,,,,,,,,,,,,,,,,,Handwerker,3.8407,326.3066680000002,326.3074576000008,326.3075708000006,326.3217770000001,330.1708524000005,330.1554341000001,330.1625675000005,330.1708524000005,330.1708524000005,330.1708524000005,330.1708524000005,332.1712963000009,332.1712963000009,332.1712963000009,332.1712963000009,332.1557862000009,2,0.9468185999994603,0.14759520000006887,None,,,,,,,,,,,,,,,,,,,,,,1228,1,2025-10-10_12h15.30.346,sm,2024.2.4,59.95473417564128,2025-10-10 12h15.42.212473 +0200,
18,0,18,,,,,,space,2.2091905999996015,None,None,3,0.7415692000004128,0.1960428000002139,None,0,0,0,0,,,,,0,0,0,0,,,,,18,0,18,0,332.1712963000009,,,,,,,,,,,,,,,,,,,,,,,,,,,,,,,,,,,,,,,,,,,,,,,,,,,,,,,,,Arbeit,2.3637,332.1562979,332.15682200000083,332.15693210000063,332.1712963000009,334.53756220000014,334.5220650000001,334.5261567000007,334.53756220000014,334.53756220000014,334.53756220000014,334.53756220000014,336.5375853000005,336.5375853000005,336.5375853000005,336.5375853000005,336.5218506000001,3,0.7415692000004128,0.1960428000002139,None,,,,,,,,,,,,,,,,,,,,,,1228,1,2025-10-10_12h15.30.346,sm,2024.2.4,59.95473417564128,2025-10-10 12h15.42.212473 +0200,
19,0,19,,,,,,space,2.2091905999996015,None,None,3,1.2424986000005447,0.21844999999939319,None,0,0,0,0,,,,,0,0,0,0,,,,,19,0,19,0,336.5375853000005,,,,,,,,,,,,,,,,,,,,,,,,,,,,,,,,,,,,,,,,,,,,,,,,,,,,,,,,,Club,2.2113,336.5223508000008,336.5228590000006,336.52296820000083,336.5375853000005,338.75421410000035,338.73844500000087,338.74212440000065,338.75421410000035,338.75421410000035,338.75421410000035,338.75421410000035,340.75420570000006,340.75420570000006,340.75420570000006,340.75420570000006,340.7381686000008,3,1.2424986000005447,0.21844999999939319,None,,,,,,,,,,,,,,,,,,,,,,1228,1,2025-10-10_12h15.30.346,sm,2024.2.4,59.95473417564128,2025-10-10 12h15.42.212473 +0200,
20,0,20,,,,,,space,2.2091905999996015,None,None,3,0.9792245999997249,0.21434000000044762,None,0,0,0,0,,,,,0,0,0,0,,,,,20,0,20,0,340.75420570000006,,,,,,,,,,,,,,,,,,,,,,,,,,,,,,,,,,,,,,,,,,,,,,,,,,,,,,,,,Strand,2.7203,340.7386389000003,340.73913410000023,340.7392355000002,340.75420570000006,343.4869866000008,343.47170800000004,343.4758204000009,343.4869866000008,343.4869866000008,343.4869866000008,343.4869866000008,345.4870004000004,345.4870004000004,345.4870004000004,345.4870004000004,345.4713524000008,3,0.9792245999997249,0.21434000000044762,None,,,,,,,,,,,,,,,,,,,,,,1228,1,2025-10-10_12h15.30.346,sm,2024.2.4,59.95473417564128,2025-10-10 12h15.42.212473 +0200,
21,0,21,,,,,,space,2.2091905999996015,None,None,3,0.761610099999416,0.2369525000003705,None,0,0,0,0,,,,,0,0,0,0,,,,,21,0,21,0,345.4870004000004,,,,,,,,,,,,,,,,,,,,,,,,,,,,,,,,,,,,,,,,,,,,,,,,,,,,,,,,,Waschbecken,3.0823,345.47185720000016,345.47237720000066,345.4724857000001,345.4870004000004,348.57003930000064,348.5544258000009,348.55900140000085,348.57003930000064,348.57003930000064,348.57003930000064,348.57003930000064,350.5702089000006,350.5702089000006,350.5702089000006,350.5702089000006,350.55447490000006,3,0.761610099999416,0.2369525000003705,None,,,,,,,,,,,,,,,,,,,,,,1228,1,2025-10-10_12h15.30.346,sm,2024.2.4,59.95473417564128,2025-10-10 12h15.42.212473 +0200,
22,0,22,,,,,,space,2.2091905999996015,None,None,3,0.9357395000006363,0.2663083999996161,None,0,0,0,0,,,,,0,0,0,0,,,,,22,0,22,0,350.5702089000006,,,,,,,,,,,,,,,,,,,,,,,,,,,,,,,,,,,,,,,,,,,,,,,,,,,,,,,,,Spaghetti,3.7485,350.5549742000003,350.5555116000005,350.5556144000002,350.5702089000006,354.3197837000007,354.3043357000006,354.30870760000016,354.3197837000007,354.3197837000007,354.3197837000007,354.3197837000007,356.3197157000004,356.3197157000004,356.3197157000004,356.3197157000004,356.3042810000006,3,0.9357395000006363,0.2663083999996161,None,,,,,,,,,,,,,,,,,,,,,,1228,1,2025-10-10_12h15.30.346,sm,2024.2.4,59.95473417564128,2025-10-10 12h15.42.212473 +0200,
23,0,23,,,,,,space,2.2091905999996015,None,None,3,1.2125755000006393,0.3494548999997278,None,0,0,0,0,,,,,0,0,0,0,,,,,23,0,23,0,356.3197157000004,,,,,,,,,,,,,,,,,,,,,,,,,,,,,,,,,,,,,,,,,,,,,,,,,,,,,,,,,Zähne,2.7777,356.30478550000043,356.3052980000002,356.3054049000002,356.3197157000004,359.10287470000003,359.0873280000005,359.09090990000004,359.10287470000003,359.10287470000003,359.10287470000003,359.10287470000003,361.1027337000005,361.1027337000005,361.1027337000005,361.1027337000005,361.0870631000007,3,1.2125755000006393,0.3494548999997278,None,,,,,,,,,,,,,,,,,,,,,,1228,1,2025-10-10_12h15.30.346,sm,2024.2.4,59.95473417564128,2025-10-10 12h15.42.212473 +0200,
24,0,24,,,,,,space,2.2091905999996015,None,None,3,0.7785573000001023,0.18414560000019264,None,0,0,0,0,,,,,0,0,0,0,,,,,24,0,24,0,361.1027337000005,,,,,,,,,,,,,,,,,,,,,,,,,,,,,,,,,,,,,,,,,,,,,,,,,,,,,,,,,Datei,4.6971,361.08756110000013,361.0883057000001,361.08841050000046,361.1027337000005,365.80253840000023,365.7866118000002,365.7898741000008,365.80253840000023,365.80253840000023,365.80253840000023,365.80253840000023,367.8024503000006,367.8024503000006,367.8024503000006,367.8024503000006,367.78693010000006,3,0.7785573000001023,0.18414560000019264,None,,,,,,,,,,,,,,,,,,,,,,1228,1,2025-10-10_12h15.30.346,sm,2024.2.4,59.95473417564128,2025-10-10 12h15.42.212473 +0200,
25,0,25,,,,,,space,2.2091905999996015,None,None,2,0.8636029999997845,0.1828949000000648,None,0,0,0,0,,,,,0,0,0,0,,,,,25,0,25,0,367.8024503000006,,,,,,,,,,,,,,,,,,,,,,,,,,,,,,,,,,,,,,,,,,,,,,,,,,,,,,,,,Anwalt,4.2598,367.78742390000025,367.7880780000005,367.7881838000003,367.8024503000006,372.0689108000006,372.0530735000002,372.05705750000016,372.0689108000006,372.0689108000006,372.0689108000006,372.0689108000006,374.06862140000067,374.06862140000067,374.06862140000067,374.06862140000067,374.0530015000004,2,0.8636029999997845,0.1828949000000648,None,,,,,,,,,,,,,,,,,,,,,,1228,1,2025-10-10_12h15.30.346,sm,2024.2.4,59.95473417564128,2025-10-10 12h15.42.212473 +0200,
26,0,26,,,,,,space,2.2091905999996015,None,None,3,1.2083554000000731,0.2038697999996657,None,0,0,0,0,,,,,0,0,0,0,,,,,26,0,26,0,374.06862140000067,,,,,,,,,,,,,,,,,,,,,,,,,,,,,,,,,,,,,,,,,,,,,,,,,,,,,,,,,Weihnachten,3.9595,374.0535058000005,374.05415150000044,374.0542578000004,374.06862140000067,378.0350055000008,378.01948000000084,378.02451400000064,378.0350055000008,378.0350055000008,378.0350055000008,378.0350055000008,380.0354436000007,380.0354436000007,380.0354436000007,380.0354436000007,380.0194788000008,3,1.2083554000000731,0.2038697999996657,None,,,,,,,,,,,,,,,,,,,,,,1228,1,2025-10-10_12h15.30.346,sm,2024.2.4,59.95473417564128,2025-10-10 12h15.42.212473 +0200,
27,0,27,,,,,,space,2.2091905999996015,None,None,3,1.3447262999998202,0.24035379999986617,None,0,0,0,0,,,,,0,0,0,0,,,,,27,0,27,0,380.0354436000007,,,,,,,,,,,,,,,,,,,,,,,,,,,,,,,,,,,,,,,,,,,,,,,,,,,,,,,,,Sendung,3.7921,380.01997650000067,380.02048710000054,380.02058940000006,380.0354436000007,383.8345911000006,383.8192665000006,383.82327670000086,383.8345911000006,383.8345911000006,383.8345911000006,383.8345911000006,385.8346353000006,385.8346353000006,385.8346353000006,385.8346353000006,385.81905650000044,3,1.3447262999998202,0.24035379999986617,None,,,,,,,,,,,,,,,,,,,,,,1228,1,2025-10-10_12h15.30.346,sm,2024.2.4,59.95473417564128,2025-10-10 12h15.42.212473 +0200,
28,0,28,,,,,,space,2.2091905999996015,None,None,2,0.8012085999998817,0.20936129999972763,None,0,0,0,0,,,,,0,0,0,0,,,,,28,0,28,0,385.8346353000006,,,,,,,,,,,,,,,,,,,,,,,,,,,,,,,,,,,,,,,,,,,,,,,,,,,,,,,,,Journalistin,4.1784,385.81955690000086,385.8201467000008,385.82025200000044,385.8346353000006,390.01742280000053,390.0022348000002,390.00936,390.01742280000053,390.01742280000053,390.01742280000053,390.01742280000053,392.01777910000055,392.01777910000055,392.01777910000055,392.01777910000055,392.0020211000001,2,0.8012085999998817,0.20936129999972763,None,,,,,,,,,,,,,,,,,,,,,,1228,1,2025-10-10_12h15.30.346,sm,2024.2.4,59.95473417564128,2025-10-10 12h15.42.212473 +0200,
29,0,29,,,,,,space,2.2091905999996015,None,None,3,1.7742255999992267,None,None,0,0,0,0,,,,,0,0,0,0,,,,,29,0,29,0,392.01777910000055,,,,,,,,,,,,,,,,,,,,,,,,,,,,,,,,,,,,,,,,,,,,,,,,,,,,,,,,,Sturm,2.492,392.0025018000006,392.00301090000085,392.00312010000016,392.01777910000055,394.5176670000001,394.5018331000001,394.50598850000006,394.5176670000001,394.5176670000001,394.5176670000001,394.5176670000001,396.51738280000063,396.51738280000063,396.51738280000063,396.51738280000063,396.501792,3,1.7742255999992267,None,None,,,,,,,,,,,,,,,,,,,,,,1228,1,2025-10-10_12h15.30.346,sm,2024.2.4,59.95473417564128,2025-10-10 12h15.42.212473 +0200,
30,0,30,,,,,,space,2.2091905999996015,None,None,3,0.7654212999996162,0.19141579999995884,None,0,0,0,0,,,,,0,0,0,0,,,,,30,0,30,0,396.51738280000063,,,,,,,,,,,,,,,,,,,,,,,,,,,,,,,,,,,,,,,,,,,,,,,,,,,,,,,,,Statue,2.1171,396.50230770000053,396.5028624000006,396.50296890000027,396.51738280000063,398.63378080000075,398.61817130000054,398.6212903000005,398.63378080000075,398.63378080000075,398.63378080000075,398.63378080000075,400.63368270000046,400.63368270000046,400.63368270000046,400.63368270000046,400.6184008,3,0.7654212999996162,0.19141579999995884,None,,,,,,,,,,,,,,,,,,,,,,1228,1,2025-10-10_12h15.30.346,sm,2024.2.4,59.95473417564128,2025-10-10 12h15.42.212473 +0200,
31,0,31,,,,,,space,2.2091905999996015,None,None,3,1.1384244999999282,0.4656994000006307,None,0,0,0,0,,,,,0,0,0,0,,,,,31,0,31,0,400.63368270000046,,,,,,,,,,,,,,,,,,,,,,,,,,,,,,,,,,,,,,,,,,,,,,,,,,,,,,,,,Kino,2.0231,400.61890310000035,400.6194200000009,400.6195232,400.63368270000046,402.66748390000066,402.6514879000006,402.6550087000005,402.66748390000066,402.66748390000066,402.66748390000066,402.66748390000066,404.6670201000006,404.6670201000006,404.6670201000006,404.6670201000006,404.6511879000009,3,1.1384244999999282,0.4656994000006307,None,,,,,,,,,,,,,,,,,,,,,,1228,1,2025-10-10_12h15.30.346,sm,2024.2.4,59.95473417564128,2025-10-10 12h15.42.212473 +0200,
32,0,32,,,,,,space,2.2091905999996015,None,None,2,1.3073595000005298,0.15469430000030115,None,0,0,0,0,,,,,0,0,0,0,,,,,32,0,32,0,404.6670201000006,,,,,,,,,,,,,,,,,,,,,,,,,,,,,,,,,,,,,,,,,,,,,,,,,,,,,,,,,Gras,4.2677,404.6516917000008,404.65218430000004,404.6522924000001,404.6670201000006,408.9497901000004,408.9342856000003,408.9384563000003,408.9497901000004,408.9497901000004,408.9497901000004,408.9497901000004,410.95016140000007,410.95016140000007,410.95016140000007,410.95016140000007,410.9344279000006,2,1.3073595000005298,0.15469430000030115,None,,,,,,,,,,,,,,,,,,,,,,1228,1,2025-10-10_12h15.30.346,sm,2024.2.4,59.95473417564128,2025-10-10 12h15.42.212473 +0200,
33,0,33,,,,,,space,2.2091905999996015,None,None,None,,,None,0,0,0,0,,,,,0,0,0,0,,,,,33,0,33,0,410.95016140000007,,,,,,,,,,,,,,,,,,,,,,,,,,,,,,,,,,,,,,,,,,,,,,,,,,,,,,,,,Zirkus,2.1841,410.93489710000085,410.9353961000006,410.9354929000001,410.95016140000007,413.13290080000024,413.1175488000008,413.12173190000067,413.13290080000024,413.13290080000024,413.13290080000024,413.13290080000024,415.1332269000004,415.1332269000004,415.1332269000004,415.1332269000004,415.11740810000083,None,,,None,,,,,,,,,,,,,,,,,,,,,,1228,1,2025-10-10_12h15.30.346,sm,2024.2.4,59.95473417564128,2025-10-10 12h15.42.212473 +0200,
34,0,34,,,,,,space,2.2091905999996015,None,None,3,0.7096822000003158,0.14077279999946768,None,0,0,0,0,,,,,0,0,0,0,,,,,34,0,34,0,415.1332269000004,,,,,,,,,,,,,,,,,,,,,,,,,,,,,,,,,,,,,,,,,,,,,,,,,,,,,,,,,Postkarte,2.1548,415.11787710000044,415.1183787000009,415.1184832000008,415.1332269000004,417.2993599000001,417.28387440000006,417.2904905000005,417.2993599000001,417.2993599000001,417.2993599000001,417.2993599000001,419.29958610000085,419.29958610000085,419.29958610000085,419.29958610000085,419.2833292000005,3,0.7096822000003158,0.14077279999946768,None,,,,,,,,,,,,,,,,,,,,,,1228,1,2025-10-10_12h15.30.346,sm,2024.2.4,59.95473417564128,2025-10-10 12h15.42.212473 +0200,
35,0,35,,,,,,space,2.2091905999996015,None,None,2,1.0066955000002054,0.21205209999970975,None,0,0,0,0,,,,,0,0,0,0,,,,,35,0,35,0,419.29958610000085,,,,,,,,,,,,,,,,,,,,,,,,,,,,,,,,,,,,,,,,,,,,,,,,,,,,,,,,,Rebe,3.1226,419.2837113000005,419.2841610000005,419.28424110000014,419.29958610000085,422.43235170000025,422.4168215000009,422.4198195000008,422.43235170000025,422.43235170000025,422.43235170000025,422.43235170000025,424.4323619000006,424.4323619000006,424.4323619000006,424.4323619000006,424.4167387000007,2,1.0066955000002054,0.21205209999970975,None,,,,,,,,,,,,,,,,,,,,,,1228,1,2025-10-10_12h15.30.346,sm,2024.2.4,59.95473417564128,2025-10-10 12h15.42.212473 +0200,
36,0,36,,,,,,space,2.2091905999996015,None,None,3,0.8201368000000002,0.2393761999992421,None,0,0,0,0,,,,,0,0,0,0,,,,,36,0,36,0,424.4323619000006,,,,,,,,,,,,,,,,,,,,,,,,,,,,,,,,,,,,,,,,,,,,,,,,,,,,,,,,,Tasse,2.4661,424.41724990000057,424.41778090000025,424.41788390000056,424.4323619000006,426.8989962000005,426.8832258000002,426.8866315000005,426.8989962000005,426.8989962000005,426.8989962000005,426.8989962000005,428.8988057000006,428.8988057000006,428.8988057000006,428.8988057000006,428.88316720000057,3,0.8201368000000002,0.2393761999992421,None,,,,,,,,,,,,,,,,,,,,,,1228,1,2025-10-10_12h15.30.346,sm,2024.2.4,59.95473417564128,2025-10-10 12h15.42.212473 +0200,
37,0,37,,,,,,space,2.2091905999996015,None,None,3,1.3747066000005361,0.5079728999999134,None,0,0,0,0,,,,,0,0,0,0,,,,,37,0,37,0,428.8988057000006,,,,,,,,,,,,,,,,,,,,,,,,,,,,,,,,,,,,,,,,,,,,,,,,,,,,,,,,,Bart,2.0718,428.8837061000004,428.8842293000007,428.8843383000003,428.8988057000006,430.98194820000026,430.96623740000086,430.9692887000001,430.98194820000026,430.98194820000026,430.98194820000026,430.98194820000026,432.98231580000083,432.98231580000083,432.98231580000083,432.98231580000083,432.9664896000004,3,1.3747066000005361,0.5079728999999134,None,,,,,,,,,,,,,,,,,,,,,,1228,1,2025-10-10_12h15.30.346,sm,2024.2.4,59.95473417564128,2025-10-10 12h15.42.212473 +0200,
38,0,38,,,,,,space,2.2091905999996015,None,None,3,1.0785876999998436,0.2266271999997116,None,0,0,0,0,,,,,0,0,0,0,,,,,38,0,38,0,432.98231580000083,,,,,,,,,,,,,,,,,,,,,,,,,,,,,,,,,,,,,,,,,,,,,,,,,,,,,,,,,Olympia,4.2593,432.96699290000015,432.9675223000004,432.9676266000006,432.98231580000083,437.24782180000057,437.2326537000008,437.2399443000004,437.24782180000057,437.24782180000057,437.24782180000057,437.24782180000057,439.2483703000007,439.2483703000007,439.2483703000007,439.2483703000007,439.23255020000033,3,1.0785876999998436,0.2266271999997116,None,,,,,,,,,,,,,,,,,,,,,,1228,1,2025-10-10_12h15.30.346,sm,2024.2.4,59.95473417564128,2025-10-10 12h15.42.212473 +0200,
39,0,39,,,,,,space,2.2091905999996015,None,None,None,,,None,0,0,0,0,,,,,0,0,0,0,,,,,39,0,39,0,439.2483703000007,,,,,,,,,,,,,,,,,,,,,,,,,,,,,,,,,,,,,,,,,,,,,,,,,,,,,,,,,Team,2.6916,439.23304650000046,439.2337260000004,439.2338285000005,439.2483703000007,441.94852360000004,441.9322523000001,441.93604140000025,441.94852360000004,441.94852360000004,441.94852360000004,441.94852360000004,443.9479153000002,443.9479153000002,443.9479153000002,443.9479153000002,443.9326966000008,None,,,None,,,,,,,,,,,,,,,,,,,,,,1228,1,2025-10-10_12h15.30.346,sm,2024.2.4,59.95473417564128,2025-10-10 12h15.42.212473 +0200,
40,0,40,,,,,,space,2.2091905999996015,None,None,3,0.6766926999998759,0.16358020000006945,None,0,0,0,0,,,,,0,0,0,0,,,,,40,0,40,0,443.9479153000002,,,,,,,,,,,,,,,,,,,,,,,,,,,,,,,,,,,,,,,,,,,,,,,,,,,,,,,,,Asche,2.2946,443.93316610000056,443.93372960000033,443.9338400000006,443.9479153000002,446.2476396000002,446.23219270000027,446.23579300000074,446.2476396000002,446.2476396000002,446.2476396000002,446.2476396000002,448.2475454000005,448.2475454000005,448.2475454000005,448.2475454000005,448.23245230000066,3,0.6766926999998759,0.16358020000006945,None,,,,,,,,,,,,,,,,,,,,,,1228,1,2025-10-10_12h15.30.346,sm,2024.2.4,59.95473417564128,2025-10-10 12h15.42.212473 +0200,
41,0,41,,,,,,space,2.2091905999996015,None,None,3,0.7164597999999387,0.1774255999998786,None,0,0,0,0,,,,,0,0,0,0,,,,,41,0,41,0,448.2475454000005,,,,,,,,,,,,,,,,,,,,,,,,,,,,,,,,,,,,,,,,,,,,,,,,,,,,,,,,,Juwel,3.0119,448.2329277000008,448.2334430000001,448.2335421000007,448.2475454000005,451.26411330000064,451.24847580000005,451.2528576000004,451.26411330000064,451.26411330000064,451.26411330000064,451.26411330000064,453.26423930000055,453.26423930000055,453.26423930000055,453.26423930000055,453.2483611000007,3,0.7164597999999387,0.1774255999998786,None,,,,,,,,,,,,,,,,,,,,,,1228,1,2025-10-10_12h15.30.346,sm,2024.2.4,59.95473417564128,2025-10-10 12h15.42.212473 +0200,
42,0,42,,,,,,space,2.2091905999996015,None,None,2,0.8040086999999403,0.17248340000060125,None,0,0,0,0,,,,,0,0,0,0,,,,,42,0,42,0,453.26423930000055,,,,,,,,,,,,,,,,,,,,,,,,,,,,,,,,,,,,,,,,,,,,,,,,,,,,,,,,,Gast,2.547,453.2488637000006,453.2493613000006,453.24946530000034,453.26423930000055,455.8135611000007,455.7980372000002,455.80131730000085,455.8135611000007,455.8135611000007,455.8135611000007,455.8135611000007,457.81369880000057,457.81369880000057,457.81369880000057,457.81369880000057,457.79836370000066,2,0.8040086999999403,0.17248340000060125,None,,,,,,,,,,,,,,,,,,,,,,1228,1,2025-10-10_12h15.30.346,sm,2024.2.4,59.95473417564128,2025-10-10 12h15.42.212473 +0200,
43,0,43,,,,,,space,2.2091905999996015,None,None,3,0.8881495999994513,0.19739930000014283,None,0,0,0,0,,,,,0,0,0,0,,,,,43,0,43,0,457.81369880000057,,,,,,,,,,,,,,,,,,,,,,,,,,,,,,,,,,,,,,,,,,,,,,,,,,,,,,,,,Schule,2.7735,457.7988647000002,457.79936540000017,457.79946890000065,457.81369880000057,460.5966887000004,460.5813300000009,460.58551290000014,460.5966887000004,460.5966887000004,460.5966887000004,460.5966887000004,462.5968520000006,462.5968520000006,462.5968520000006,462.5968520000006,462.58142710000084,3,0.8881495999994513,0.19739930000014283,None,,,,,,,,,,,,,,,,,,,,,,1228,1,2025-10-10_12h15.30.346,sm,2024.2.4,59.95473417564128,2025-10-10 12h15.42.212473 +0200,
44,0,44,,,,,,space,2.2091905999996015,None,None,3,0.952391599999828,0.1575788999998622,None,0,0,0,0,,,,,0,0,0,0,,,,,44,0,44,0,462.5968520000006,,,,,,,,,,,,,,,,,,,,,,,,,,,,,,,,,,,,,,,,,,,,,,,,,,,,,,,,,Flut,2.3887,462.58192190000045,462.5824461000002,462.58255010000084,462.5968520000006,464.99639490000027,464.9810524000004,464.98430590000044,464.99639490000027,464.99639490000027,464.99639490000027,464.99639490000027,466.9968632,466.9968632,466.9968632,466.9968632,466.9810806000005,3,0.952391599999828,0.1575788999998622,None,,,,,,,,,,,,,,,,,,,,,,1228,1,2025-10-10_12h15.30.346,sm,2024.2.4,59.95473417564128,2025-10-10 12h15.42.212473 +0200,
45,0,45,,,,,,space,2.2091905999996015,None,None,3,0.7040428000000247,0.22080640000058338,None,0,0,0,0,,,,,0,0,0,0,,,,,45,0,45,0,466.9968632,,,,,,,,,,,,,,,,,,,,,,,,,,,,,,,,,,,,,,,,,,,,,,,,,,,,,,,,,Schmerz,2.8606,466.98158480000075,466.98219490000065,466.9823785000008,466.9968632,469.8630389000009,469.84741270000086,469.8518745000001,469.8630389000009,469.8630389000009,469.8630389000009,469.8630389000009,471.86295300000074,471.86295300000074,471.86295300000074,471.86295300000074,471.8473233000004,3,0.7040428000000247,0.22080640000058338,None,,,,,,,,,,,,,,,,,,,,,,1228,1,2025-10-10_12h15.30.346,sm,2024.2.4,59.95473417564128,2025-10-10 12h15.42.212473 +0200,
46,0,46,,,,,,space,2.2091905999996015,None,None,3,0.7475266999999803,0.21463849999963713,None,0,0,0,0,,,,,0,0,0,0,,,,,46,0,46,0,471.86295300000074,,,,,,,,,,,,,,,,,,,,,,,,,,,,,,,,,,,,,,,,,,,,,,,,,,,,,,,,,Fakt,3.9634,471.84782370000084,471.84832840000036,471.8484309000005,471.86295300000074,475.8294102000009,475.8133189,475.8163591000002,475.8294102000009,475.8294102000009,475.8294102000009,475.8294102000009,477.8292855000009,477.8292855000009,477.8292855000009,477.8292855000009,477.8135996000001,3,0.7475266999999803,0.21463849999963713,None,,,,,,,,,,,,,,,,,,,,,,1228,1,2025-10-10_12h15.30.346,sm,2024.2.4,59.95473417564128,2025-10-10 12h15.42.212473 +0200,
47,0,47,,,,,,space,2.2091905999996015,None,None,3,0.8335506000003079,0.18753730000025826,None,0,0,0,0,,,,,0,0,0,0,,,,,47,0,47,0,477.8292855000009,,,,,,,,,,,,,,,,,,,,,,,,,,,,,,,,,,,,,,,,,,,,,,,,,,,,,,,,,Schutz,2.5946,477.8141525000001,477.8146706000007,477.8147764000005,477.8292855000009,480.42882140000074,480.4133206000006,480.4173892000008,480.42882140000074,480.42882140000074,480.42882140000074,480.42882140000074,482.4291525000008,482.4291525000008,482.4291525000008,482.4291525000008,482.4136872000008,3,0.8335506000003079,0.18753730000025826,None,,,,,,,,,,,,,,,,,,,,,,1228,1,2025-10-10_12h15.30.346,sm,2024.2.4,59.95473417564128,2025-10-10 12h15.42.212473 +0200,
48,0,48,,,,,,space,2.2091905999996015,None,None,2,0.9660917000001064,0.1724423999994542,None,0,0,0,0,,,,,0,0,0,0,,,,,48,0,48,0,482.4291525000008,,,,,,,,,,,,,,,,,,,,,,,,,,,,,,,,,,,,,,,,,,,,,,,,,,,,,,,,,Kartoffel,2.3442,482.41418520000025,482.4148017000007,482.41490580000027,482.4291525000008,484.77854860000025,484.76303410000037,484.7666684000005,484.77854860000025,484.77854860000025,484.77854860000025,484.77854860000025,486.7789287000005,486.7789287000005,486.7789287000005,486.7789287000005,486.7631897000001,2,0.9660917000001064,0.1724423999994542,None,,,,,,,,,,,,,,,,,,,,,,1228,1,2025-10-10_12h15.30.346,sm,2024.2.4,59.95473417564128,2025-10-10 12h15.42.212473 +0200,
49,0,49,,,,,,space,2.2091905999996015,None,None,3,0.6613000999996075,0.195417400000224,None,0,0,0,0,,,,,0,0,0,0,,,,,49,0,49,0,486.7789287000005,,,,,,,,,,,,,,,,,,,,,,,,,,,,,,,,,,,,,,,,,,,,,,,,,,,,,,,,,Poesie,2.2245,486.7636893000008,486.7641972000001,486.7643071000002,486.7789287000005,489.01168680000046,488.99622740000086,489.00070360000063,489.01168680000046,489.01168680000046,489.01168680000046,489.01168680000046,491.0117594000003,491.0117594000003,491.0117594000003,491.0117594000003,490.99631490000047,3,0.6613000999996075,0.195417400000224,None,,,,,,,,,,,,,,,,,,,,,,1228,1,2025-10-10_12h15.30.346,sm,2024.2.4,59.95473417564128,2025-10-10 12h15.42.212473 +0200,
50,0,50,,,,,,space,2.2091905999996015,None,None,None,,,None,0,0,0,0,,,,,0,0,0,0,,,,,50,0,50,0,491.0117594000003,,,,,,,,,,,,,,,,,,,,,,,,,,,,,,,,,,,,,,,,,,,,,,,,,,,,,,,,,Weltraum,5.3109,490.9968118000006,490.99731970000084,490.9974267000007,491.0117594000003,496.3281743000007,496.3126409000006,496.3169721000004,496.3281743000007,496.3281743000007,496.3281743000007,496.3281743000007,498.3281358000004,498.3281358000004,498.3281358000004,498.3281358000004,498.3122649000006,None,,,None,,,,,,,,,,,,,,,,,,,,,,1228,1,2025-10-10_12h15.30.346,sm,2024.2.4,59.95473417564128,2025-10-10 12h15.42.212473 +0200,
51,0,51,,,,,,space,2.2091905999996015,None,None,3,1.1802806000005148,0.2127786000000924,None,0,0,0,0,,,,,0,0,0,0,,,,,51,0,51,0,498.3281358000004,,,,,,,,,,,,,,,,,,,,,,,,,,,,,,,,,,,,,,,,,,,,,,,,,,,,,,,,,Saft,2.5074,498.31268080000063,498.3131605000008,498.3132523000004,498.3281358000004,500.8446434000007,500.8290042000008,500.8325923000002,500.8446434000007,500.8446434000007,500.8446434000007,500.8446434000007,502.8443861000005,502.8443861000005,502.8443861000005,502.8443861000005,502.82892880000054,3,1.1802806000005148,0.2127786000000924,None,,,,,,,,,,,,,,,,,,,,,,1228,1,2025-10-10_12h15.30.346,sm,2024.2.4,59.95473417564128,2025-10-10 12h15.42.212473 +0200,
52,0,52,,,,,,space,2.2091905999996015,None,None,3,0.6503542999998899,0.4242402999998376,None,0,0,0,0,,,,,0,0,0,0,,,,,52,0,52,0,502.8443861000005,,,,,,,,,,,,,,,,,,,,,,,,,,,,,,,,,,,,,,,,,,,,,,,,,,,,,,,,,Teller,2.2449,502.8294416000008,502.8299319000007,502.8300368,502.8443861000005,505.0946059000007,505.07852080000066,505.0827183000001,505.0946059000007,505.0946059000007,505.0946059000007,505.0946059000007,507.09411050000017,507.09411050000017,507.09411050000017,507.09411050000017,507.0785816000007,3,0.6503542999998899,0.4242402999998376,None,,,,,,,,,,,,,,,,,,,,,,1228,1,2025-10-10_12h15.30.346,sm,2024.2.4,59.95473417564128,2025-10-10 12h15.42.212473 +0200,
53,0,53,,,,,,space,2.2091905999996015,None,None,2,1.8098212000004423,0.15425890000005893,None,0,0,0,0,,,,,0,0,0,0,,,,,53,0,53,0,507.09411050000017,,,,,,,,,,,,,,,,,,,,,,,,,,,,,,,,,,,,,,,,,,,,,,,,,,,,,,,,,Atem,5.563,507.07909440000003,507.07961500000056,507.07971890000044,507.09411050000017,512.6605697000005,512.6445152000006,512.6474970000008,512.6605697000005,512.6605697000005,512.6605697000005,512.6605697000005,514.6603950000008,514.6603950000008,514.6603950000008,514.6603950000008,514.6448382000008,2,1.8098212000004423,0.15425890000005893,None,,,,,,,,,,,,,,,,,,,,,,1228,1,2025-10-10_12h15.30.346,sm,2024.2.4,59.95473417564128,2025-10-10 12h15.42.212473 +0200,
54,0,54,,,,,,space,2.2091905999996015,None,None,2,0.8575689999997849,0.18590349999976752,None,0,0,0,0,,,,,0,0,0,0,,,,,54,0,54,0,514.6603950000008,,,,,,,,,,,,,,,,,,,,,,,,,,,,,,,,,,,,,,,,,,,,,,,,,,,,,,,,,Rose,2.6229,514.6453120000006,514.6460467000006,514.6461501000003,514.6603950000008,517.2934650000007,517.2778872000008,517.2814958000008,517.2934650000007,517.2934650000007,517.2934650000007,517.2934650000007,519.2935994000009,519.2935994000009,519.2935994000009,519.2935994000009,519.2781649000008,2,0.8575689999997849,0.18590349999976752,None,,,,,,,,,,,,,,,,,,,,,,1228,1,2025-10-10_12h15.30.346,sm,2024.2.4,59.95473417564128,2025-10-10 12h15.42.212473 +0200,
55,0,55,,,,,,space,2.2091905999996015,None,None,3,1.464339099999961,0.24779119999948307,None,0,0,0,0,,,,,0,0,0,0,,,,,55,0,55,0,519.2935994000009,,,,,,,,,,,,,,,,,,,,,,,,,,,,,,,,,,,,,,,,,,,,,,,,,,,,,,,,,Liebe,2.1182,519.2786327000003,519.2792239,519.2793212000006,519.2935994000009,521.4263214000002,521.4111080000002,521.4148364000002,521.4263214000002,521.4263214000002,521.4263214000002,521.4263214000002,523.4264511000001,523.4264511000001,523.4264511000001,523.4264511000001,523.4111081000001,3,1.464339099999961,0.24779119999948307,None,,,,,,,,,,,,,,,,,,,,,,1228,1,2025-10-10_12h15.30.346,sm,2024.2.4,59.95473417564128,2025-10-10 12h15.42.212473 +0200,
56,0,56,,,,,,space,2.2091905999996015,None,None,3,0.8332240999998248,0.23078370000075665,None,0,0,0,0,,,,,0,0,0,0,,,,,56,0,56,0,523.4264511000001,,,,,,,,,,,,,,,,,,,,,,,,,,,,,,,,,,,,,,,,,,,,,,,,,,,,,,,,,Zug,3.9082,523.4116135000004,523.4121285000001,523.4122437000005,523.4264511000001,527.3429575,527.3275166000003,527.3309919000003,527.3429575,527.3429575,527.3429575,527.3429575,529.3427374000003,529.3427374000003,529.3427374000003,529.3427374000003,529.3271261000009,3,0.8332240999998248,0.23078370000075665,None,,,,,,,,,,,,,,,,,,,,,,1228,1,2025-10-10_12h15.30.346,sm,2024.2.4,59.95473417564128,2025-10-10 12h15.42.212473 +0200,
57,0,57,,,,,,space,2.2091905999996015,None,None,3,1.093127099999947,0.22745620000023337,None,0,0,0,0,,,,,0,0,0,0,,,,,57,0,57,0,529.3427374000003,,,,,,,,,,,,,,,,,,,,,,,,,,,,,,,,,,,,,,,,,,,,,,,,,,,,,,,,,Rock,2.0269,529.3276272000003,529.3282684000005,529.3283730000003,529.3427374000003,531.3762245000007,531.3602962000004,531.3633364000007,531.3762245000007,531.3762245000007,531.3762245000007,531.3762245000007,533.3761782000001,533.3761782000001,533.3761782000001,533.3761782000001,533.3604696000002,3,1.093127099999947,0.22745620000023337,None,,,,,,,,,,,,,,,,,,,,,,1228,1,2025-10-10_12h15.30.346,sm,2024.2.4,59.95473417564128,2025-10-10 12h15.42.212473 +0200,
58,0,58,,,,,,space,2.2091905999996015,None,None,3,1.3338934000003064,0.3148453999992853,None,0,0,0,0,,,,,0,0,0,0,,,,,58,0,58,0,533.3761782000001,,,,,,,,,,,,,,,,,,,,,,,,,,,,,,,,,,,,,,,,,,,,,,,,,,,,,,,,,Gespräch,4.8187,533.3609667000001,533.3616117000001,533.3617144000009,533.3761782000001,538.2087736000003,538.1930571000003,538.1965304000005,538.2087736000003,538.2087736000003,538.2087736000003,538.2087736000003,540.2089035000008,540.2089035000008,540.2089035000008,540.2089035000008,540.1932650000008,3,1.3338934000003064,0.3148453999992853,None,,,,,,,,,,,,,,,,,,,,,,1228,1,2025-10-10_12h15.30.346,sm,2024.2.4,59.95473417564128,2025-10-10 12h15.42.212473 +0200,
59,0,59,,,,,,space,2.2091905999996015,None,None,2,0.7001003999994282,0.19296790000043984,None,0,0,0,0,,,,,0,0,0,0,,,,,59,0,59,0,540.2089035000008,,,,,,,,,,,,,,,,,,,,,,,,,,,,,,,,,,,,,,,,,,,,,,,,,,,,,,,,,Schwester,3.9732,540.1937707000006,540.1942666000004,540.1943728000006,540.2089035000008,544.1918803000008,544.1760572000003,544.1808429000002,544.1918803000008,544.1918803000008,544.1918803000008,544.1918803000008,546.1918897000005,546.1918897000005,546.1918897000005,546.1918897000005,546.1760890000005,2,0.7001003999994282,0.19296790000043984,None,,,,,,,,,,,,,,,,,,,,,,1228,1,2025-10-10_12h15.30.346,sm,2024.2.4,59.95473417564128,2025-10-10 12h15.42.212473 +0200,
60,0,60,,,,,,space,2.2091905999996015,None,None,3,0.9427019000004293,0.27385599999979604,None,0,0,0,0,,,,,0,0,0,0,,,,,60,0,60,0,546.1918897000005,,,,,,,,,,,,,,,,,,,,,,,,,,,,,,,,,,,,,,,,,,,,,,,,,,,,,,,,,Bad,2.77,546.1765075000003,546.1770059,546.1770923000004,546.1918897000005,548.9750045000001,548.9591556000005,548.9621635000003,548.9750045000001,548.9750045000001,548.9750045000001,548.9750045000001,550.9749025000001,550.9749025000001,550.9749025000001,550.9749025000001,550.9593684000001,3,0.9427019000004293,0.27385599999979604,None,,,,,,,,,,,,,,,,,,,,,,1228,1,2025-10-10_12h15.30.346,sm,2024.2.4,59.95473417564128,2025-10-10 12h15.42.212473 +0200,
61,0,61,,,,,,space,2.2091905999996015,None,None,3,1.767657400000644,None,None,0,0,0,0,,,,,0,0,0,0,,,,,61,0,61,0,550.9749025000001,,,,,,,,,,,,,,,,,,,,,,,,,,,,,,,,,,,,,,,,,,,,,,,,,,,,,,,,,Reise,4.3105,550.9598686000008,550.9603681000008,550.9604709000005,550.9749025000001,555.2910580000007,555.2755107000003,555.2790453000007,555.2910580000007,555.2910580000007,555.2910580000007,555.2910580000007,557.2911696000001,557.2911696000001,557.2911696000001,557.2911696000001,557.27556,3,1.767657400000644,None,None,,,,,,,,,,,,,,,,,,,,,,1228,1,2025-10-10_12h15.30.346,sm,2024.2.4,59.95473417564128,2025-10-10 12h15.42.212473 +0200,
62,0,62,,,,,,space,2.2091905999996015,None,None,3,0.7046292999993966,0.16447040000002744,None,0,0,0,0,,,,,0,0,0,0,,,,,62,0,62,0,557.2911696000001,,,,,,,,,,,,,,,,,,,,,,,,,,,,,,,,,,,,,,,,,,,,,,,,,,,,,,,,,Kante,2.8861,557.2760544000002,557.2767410000006,557.2768457000002,557.2911696000001,560.1911315000007,560.1755693000005,560.1795106000009,560.1911315000007,560.1911315000007,560.1911315000007,560.1911315000007,562.1909385000008,562.1909385000008,562.1909385000008,562.1909385000008,562.1754113000006,3,0.7046292999993966,0.16447040000002744,None,,,,,,,,,,,,,,,,,,,,,,1228,1,2025-10-10_12h15.30.346,sm,2024.2.4,59.95473417564128,2025-10-10 12h15.42.212473 +0200,
63,0,63,,,,,,space,2.2091905999996015,None,None,2,0.7506000000003041,0.14502410000022792,None,0,0,0,0,,,,,0,0,0,0,,,,,63,0,63,0,562.1909385000008,,,,,,,,,,,,,,,,,,,,,,,,,,,,,,,,,,,,,,,,,,,,,,,,,,,,,,,,,Känguru,3.8667,562.1758817000009,562.1766042000008,562.1767031000009,562.1909385000008,566.0572984,566.0415683000001,566.0453142000006,566.0572984,566.0572984,566.0572984,566.0572984,568.0576050000009,568.0576050000009,568.0576050000009,568.0576050000009,568.0420255000008,2,0.7506000000003041,0.14502410000022792,None,,,,,,,,,,,,,,,,,,,,,,1228,1,2025-10-10_12h15.30.346,sm,2024.2.4,59.95473417564128,2025-10-10 12h15.42.212473 +0200,
64,0,64,,,,,,space,2.2091905999996015,None,None,2,0.757789899999807,0.16433490000054007,None,0,0,0,0,,,,,0,0,0,0,,,,,64,0,64,0,568.0576050000009,,,,,,,,,,,,,,,,,,,,,,,,,,,,,,,,,,,,,,,,,,,,,,,,,,,,,,,,,Baum,3.7563,568.0425256000008,568.0430798000007,568.0431828000001,568.0576050000009,571.8236393000007,571.8078872000006,571.8111221000008,571.8236393000007,571.8236393000007,571.8236393000007,571.8236393000007,573.8234833000006,573.8234833000006,573.8234833000006,573.8234833000006,573.8082114000008,2,0.757789899999807,0.16433490000054007,None,,,,,,,,,,,,,,,,,,,,,,1228,1,2025-10-10_12h15.30.346,sm,2024.2.4,59.95473417564128,2025-10-10 12h15.42.212473 +0200,
65,0,65,,,,,,space,2.2091905999996015,None,None,3,0.8744669999996404,0.2657727000005252,None,0,0,0,0,,,,,0,0,0,0,,,,,65,0,65,0,573.8234833000006,,,,,,,,,,,,,,,,,,,,,,,,,,,,,,,,,,,,,,,,,,,,,,,,,,,,,,,,,Kappe,2.3928,573.8086820000008,573.8091856000001,573.8092835000007,573.8234833000006,576.2231359000007,576.2077058000004,576.2111427000009,576.2231359000007,576.2231359000007,576.2231359000007,576.2231359000007,578.2233032000004,578.2233032000004,578.2233032000004,578.2233032000004,578.2078654000006,3,0.8744669999996404,0.2657727000005252,None,,,,,,,,,,,,,,,,,,,,,,1228,1,2025-10-10_12h15.30.346,sm,2024.2.4,59.95473417564128,2025-10-10 12h15.42.212473 +0200,
66,0,66,,,,,,space,2.2091905999996015,None,None,None,,,None,0,0,0,0,,,,,0,0,0,0,,,,,66,0,66,0,578.2233032000004,,,,,,,,,,,,,,,,,,,,,,,,,,,,,,,,,,,,,,,,,,,,,,,,,,,,,,,,,Kunst,4.7268,578.2083606000006,578.2089383000002,578.2090414000004,578.2233032000004,582.9562369000005,582.9405649,582.9468070000003,582.9562369000005,582.9562369000005,582.9562369000005,582.9562369000005,584.9565682000002,584.9565682000002,584.9565682000002,584.9565682000002,584.9408273000008,None,,,None,,,,,,,,,,,,,,,,,,,,,,1228,1,2025-10-10_12h15.30.346,sm,2024.2.4,59.95473417564128,2025-10-10 12h15.42.212473 +0200,
67,0,67,,,,,,space,2.2091905999996015,None,None,3,0.7635595000001558,0.16976979999981268,None,0,0,0,0,,,,,0,0,0,0,,,,,67,0,67,0,584.9565682000002,,,,,,,,,,,,,,,,,,,,,,,,,,,,,,,,,,,,,,,,,,,,,,,,,,,,,,,,,Shampoo,2.4298,584.9412919000006,584.9427695000004,584.9429169000005,584.9565682000002,587.3893082000004,587.3733811000002,587.3766301000005,587.3893082000004,587.3893082000004,587.3893082000004,587.3893082000004,589.3892723000008,589.3892723000008,589.3892723000008,589.3892723000008,589.3739772000008,3,0.7635595000001558,0.16976979999981268,None,,,,,,,,,,,,,,,,,,,,,,1228,1,2025-10-10_12h15.30.346,sm,2024.2.4,59.95473417564128,2025-10-10 12h15.42.212473 +0200,
68,0,68,,,,,,space,2.2091905999996015,None,None,2,0.8412175000003117,0.1586355999997977,None,0,0,0,0,,,,,0,0,0,0,,,,,68,0,68,0,589.3892723000008,,,,,,,,,,,,,,,,,,,,,,,,,,,,,,,,,,,,,,,,,,,,,,,,,,,,,,,,,Beine,2.4648,589.3744790000001,589.3749980000002,589.3751015000007,589.3892723000008,591.8556724,591.8401343000005,591.8435390000004,591.8556724,591.8556724,591.8556724,591.8556724,593.8557953000009,593.8557953000009,593.8557953000009,593.8557953000009,593.8402486000005,2,0.8412175000003117,0.1586355999997977,None,,,,,,,,,,,,,,,,,,,,,,1228,1,2025-10-10_12h15.30.346,sm,2024.2.4,59.95473417564128,2025-10-10 12h15.42.212473 +0200,
69,0,69,,,,,,space,2.2091905999996015,None,None,3,1.1638758000008238,0.33776119999947696,None,0,0,0,0,,,,,0,0,0,0,,,,,69,0,69,0,593.8557953000009,,,,,,,,,,,,,,,,,,,,,,,,,,,,,,,,,,,,,,,,,,,,,,,,,,,,,,,,,Gegenwart,2.6022,593.8407492000006,593.8412674000001,593.8413721000006,593.8557953000009,596.4721801000005,596.4563681000009,596.4603648000002,596.4721801000005,596.4721801000005,596.4721801000005,596.4721801000005,598.4721642000004,598.4721642000004,598.4721642000004,598.4721642000004,598.4567290000005,3,1.1638758000008238,0.33776119999947696,None,,,,,,,,,,,,,,,,,,,,,,1228,1,2025-10-10_12h15.30.346,sm,2024.2.4,59.95473417564128,2025-10-10 12h15.42.212473 +0200,
70,0,70,,,,,,space,2.2091905999996015,None,None,2,0.5704464000000371,0.12673610000001645,None,0,0,0,0,,,,,0,0,0,0,,,,,70,0,70,0,598.4721642000004,,,,,,,,,,,,,,,,,,,,,,,,,,,,,,,,,,,,,,,,,,,,,,,,,,,,,,,,,Alligator,4.9293,598.4572219000001,598.4577326000008,598.4578376000009,598.4721642000004,603.4051494000005,603.3894306000002,603.3932672000001,603.4051494000005,603.4051494000005,603.4051494000005,603.4051494000005,605.4051137000006,605.4051137000006,605.4051137000006,605.4051137000006,605.3896865000006,2,0.5704464000000371,0.12673610000001645,None,,,,,,,,,,,,,,,,,,,,,,1228,1,2025-10-10_12h15.30.346,sm,2024.2.4,59.95473417564128,2025-10-10 12h15.42.212473 +0200,
71,0,71,,,,,,space,2.2091905999996015,None,None,2,0.6444686999993792,0.13767960000041057,None,0,0,0,0,,,,,0,0,0,0,,,,,71,0,71,0,605.4051137000006,,,,,,,,,,,,,,,,,,,,,,,,,,,,,,,,,,,,,,,,,,,,,,,,,,,,,,,,,Blumen,2.7336,605.3902028000002,605.3909667000007,605.3910811000005,605.4051137000006,608.1381332000001,608.1226082000003,608.1266141000006,608.1381332000001,608.1381332000001,608.1381332000001,608.1381332000001,610.1384209000007,610.1384209000007,610.1384209000007,610.1384209000007,610.1226940000006,2,0.6444686999993792,0.13767960000041057,None,,,,,,,,,,,,,,,,,,,,,,1228,1,2025-10-10_12h15.30.346,sm,2024.2.4,59.95473417564128,2025-10-10 12h15.42.212473 +0200,
72,0,72,,,,,,space,2.2091905999996015,None,None,3,0.7126675999998042,0.20003400000041438,None,0,0,0,0,,,,,0,0,0,0,,,,,72,0,72,0,610.1384209000007,,,,,,,,,,,,,,,,,,,,,,,,,,,,,,,,,,,,,,,,,,,,,,,,,,,,,,,,,Hügel,2.688,610.1231955000003,610.1237721000007,610.1238762000003,610.1384209000007,612.8380343000008,612.8223548000005,612.8263024000007,612.8380343000008,612.8380343000008,612.8380343000008,612.8380343000008,614.8379266000002,614.8379266000002,614.8379266000002,614.8379266000002,614.8223999000002,3,0.7126675999998042,0.20003400000041438,None,,,,,,,,,,,,,,,,,,,,,,1228,1,2025-10-10_12h15.30.346,sm,2024.2.4,59.95473417564128,2025-10-10 12h15.42.212473 +0200,
73,0,73,,,,,,space,2.2091905999996015,None,None,2,0.6055129000005763,0.1630695999992895,None,0,0,0,0,,,,,0,0,0,0,,,,,73,0,73,0,614.8379266000002,,,,,,,,,,,,,,,,,,,,,,,,,,,,,,,,,,,,,,,,,,,,,,,,,,,,,,,,,Hase,2.7963,614.8229097000003,614.8235195000007,614.8236275000008,614.8379266000002,617.6374897000005,617.6218863000004,617.6256563000006,617.6374897000005,617.6374897000005,617.6374897000005,617.6374897000005,619.6376043,619.6376043,619.6376043,619.6376043,619.6220755000004,2,0.6055129000005763,0.1630695999992895,None,,,,,,,,,,,,,,,,,,,,,,1228,1,2025-10-10_12h15.30.346,sm,2024.2.4,59.95473417564128,2025-10-10 12h15.42.212473 +0200,
74,0,74,,,,,,space,2.2091905999996015,None,None,3,0.9662628999994922,0.2004813000003196,None,0,0,0,0,,,,,0,0,0,0,,,,,74,0,74,0,619.6376043,,,,,,,,,,,,,,,,,,,,,,,,,,,,,,,,,,,,,,,,,,,,,,,,,,,,,,,,,Zeigen,2.7345,619.6225509000005,619.6230481000002,619.6231467000007,619.6376043,622.3871034000003,622.3715760000005,622.3752718000005,622.3871034000003,622.3871034000003,622.3871034000003,622.3871034000003,624.3871775000007,624.3871775000007,624.3871775000007,624.3871775000007,624.3722048000009,3,0.9662628999994922,0.2004813000003196,None,,,,,,,,,,,,,,,,,,,,,,1228,1,2025-10-10_12h15.30.346,sm,2024.2.4,59.95473417564128,2025-10-10 12h15.42.212473 +0200,
75,0,75,,,,,,space,2.2091905999996015,None,None,2,0.7300113999999667,0.19387559999995574,None,0,0,0,0,,,,,0,0,0,0,,,,,75,0,75,0,624.3871775000007,,,,,,,,,,,,,,,,,,,,,,,,,,,,,,,,,,,,,,,,,,,,,,,,,,,,,,,,,Blatt,2.8268,624.3726849000004,624.3731862000004,624.3732953000008,624.3871775000007,627.2210105000004,627.2048525,627.2086636000004,627.2210105000004,627.2210105000004,627.2210105000004,627.2210105000004,629.2204743000002,629.2204743000002,629.2204743000002,629.2204743000002,629.2048240000004,2,0.7300113999999667,0.19387559999995574,None,,,,,,,,,,,,,,,,,,,,,,1228,1,2025-10-10_12h15.30.346,sm,2024.2.4,59.95473417564128,2025-10-10 12h15.42.212473 +0200,
76,0,76,,,,,,space,2.2091905999996015,None,None,3,0.7902407999999923,0.1994948999999906,None,0,0,0,0,,,,,0,0,0,0,,,,,76,0,76,0,629.2204743000002,,,,,,,,,,,,,,,,,,,,,,,,,,,,,,,,,,,,,,,,,,,,,,,,,,,,,,,,,Schlüssel,2.4453,629.2053258000005,629.2058307000007,629.2059365000005,629.2204743000002,631.6701922000002,631.6544280000007,631.6584044000001,631.6701922000002,631.6701922000002,631.6701922000002,631.6701922000002,633.6700479000001,633.6700479000001,633.6700479000001,633.6700479000001,633.6545264000006,3,0.7902407999999923,0.1994948999999906,None,,,,,,,,,,,,,,,,,,,,,,1228,1,2025-10-10_12h15.30.346,sm,2024.2.4,59.95473417564128,2025-10-10 12h15.42.212473 +0200,
77,0,77,,,,,,space,2.2091905999996015,None,None,2,1.3126805000001696,0.15915440000026138,None,0,0,0,0,,,,,0,0,0,0,,,,,77,0,77,0,633.6700479000001,,,,,,,,,,,,,,,,,,,,,,,,,,,,,,,,,,,,,,,,,,,,,,,,,,,,,,,,,Afrika,2.3944,633.6550129000007,633.6555192000005,633.6556243000005,633.6700479000001,636.0697482000005,636.0540180000007,636.0579241000005,636.0697482000005,636.0697482000005,636.0697482000005,636.0697482000005,638.0700631000009,638.0700631000009,638.0700631000009,638.0700631000009,638.0544132000005,2,1.3126805000001696,0.15915440000026138,None,,,,,,,,,,,,,,,,,,,,,,1228,1,2025-10-10_12h15.30.346,sm,2024.2.4,59.95473417564128,2025-10-10 12h15.42.212473 +0200,
78,0,78,,,,,,space,2.2091905999996015,None,None,3,0.7851252000000386,0.25330789999952685,None,0,0,0,0,,,,,0,0,0,0,,,,,78,0,78,0,638.0700631000009,,,,,,,,,,,,,,,,,,,,,,,,,,,,,,,,,,,,,,,,,,,,,,,,,,,,,,,,,Feier,2.4119,638.0548567000005,638.0553307,638.055421,638.0700631000009,640.4863991000002,640.4712267000004,640.4763281000005,640.4863991000002,640.4863991000002,640.4863991000002,640.4863991000002,642.4861948000007,642.4861948000007,642.4861948000007,642.4861948000007,642.4705161000002,3,0.7851252000000386,0.25330789999952685,None,,,,,,,,,,,,,,,,,,,,,,1228,1,2025-10-10_12h15.30.346,sm,2024.2.4,59.95473417564128,2025-10-10 12h15.42.212473 +0200,
79,0,79,,,,,,space,2.2091905999996015,None,None,3,1.0433516000002783,0.1998381999992489,None,0,0,0,0,,,,,0,0,0,0,,,,,79,0,79,0,642.4861948000007,,,,,,,,,,,,,,,,,,,,,,,,,,,,,,,,,,,,,,,,,,,,,,,,,,,,,,,,,Beugen,2.7095,642.4709865000004,642.4714755000005,642.4715738000004,642.4861948000007,645.2023924000005,645.1869290000004,645.1904520000007,645.2023924000005,645.2023924000005,645.2023924000005,645.2023924000005,647.2137049000003,647.2137049000003,647.2137049000003,647.2137049000003,647.1869450000004,3,1.0433516000002783,0.1998381999992489,None,,,,,,,,,,,,,,,,,,,,,,1228,1,2025-10-10_12h15.30.346,sm,2024.2.4,59.95473417564128,2025-10-10 12h15.42.212473 +0200,
0,0,0,,,,,3.0119,space,9.156866600000285,None,None,3,1.2337300999997751,0.19188310000026831,None,0,0,0,0,,,,,1,0,1,0,0,79,79,39,0,0,0,0,719.0482754000004,,,,,,,,,,,,,,,,,,,,,,,,,,,,,,,,,,,,683.8994442000003,683.8997002000006,683.9058967000001,683.9105474000007,683.9105474000007,693.0848916000004,space,9.156866600000285,None,693.0850411000001,693.1001857000001,693.1001857000001,707.0338034000006,None,707.0413157000003,707.0490872,707.0492054666668,708.2589047000001,717.0484869666673,718.0589894000004,719.0331048000007,Schuh,3.0119,719.0346848000008,719.0352959000002,719.0354070000003,719.0482754000004,722.0646351000005,722.0490773000001,722.0529068000005,722.0646351000005,722.0646351000005,722.0646351000005,722.0646351000005,724.0646972000004,724.0646972000004,724.0646972000004,724.0646972000004,724.0490994000002,3,1.2337300999997751,0.19188310000026831,None,659.2021482,659.2022185000005,None,659.2101965000002,659.2179961000002,663.2182694000003,663.2182694000003,663.2182694000003,683.8528546000007,2,20.62695889999941,None,719.0482754000004,,,,,,,,,1228,1,2025-10-10_12h15.30.346,sm,2024.2.4,59.95473417564128,2025-10-10 12h15.42.212473 +0200,
1,0,1,,,,,,space,9.156866600000285,None,None,2,1.1785909000000174,0.16954170000008162,None,0,0,0,0,,,,,1,0,1,0,,,,,1,0,1,0,724.0646972000004,,,,,,,,,,,,,,,,,,,,,,,,,,,,,,,,,,,,,,,,,,,,,,,,,,,,,,,,,Kunde,3.8407,724.0496055000003,724.0501004000007,724.0502030000007,724.0646972000004,727.9144123000005,727.8990354000007,727.9031442000005,727.9144123000005,727.9144123000005,727.9144123000005,727.9144123000005,729.9145869000004,729.9145869000004,729.9145869000004,729.9145869000004,729.8989844000007,2,1.1785909000000174,0.16954170000008162,None,,,,,,,,,,,,,,,,,,,,,,1228,1,2025-10-10_12h15.30.346,sm,2024.2.4,59.95473417564128,2025-10-10 12h15.42.212473 +0200,
2,0,2,,,,,,space,9.156866600000285,None,None,2,0.9139769999992495,0.3719325000001845,None,0,0,0,0,,,,,1,0,1,0,,,,,2,0,2,0,729.9145869000004,,,,,,,,,,,,,,,,,,,,,,,,,,,,,,,,,,,,,,,,,,,,,,,,,,,,,,,,,Garten,2.4119,729.8994150000008,729.8999990000002,729.9000855000004,729.9145869000004,732.3308531000002,732.3153564000004,732.3192396000004,732.3308531000002,732.3308531000002,732.3308531000002,732.3308531000002,734.3308233000007,734.3308233000007,734.3308233000007,734.3308233000007,734.3150509000006,2,0.9139769999992495,0.3719325000001845,None,,,,,,,,,,,,,,,,,,,,,,1228,1,2025-10-10_12h15.30.346,sm,2024.2.4,59.95473417564128,2025-10-10 12h15.42.212473 +0200,
3,0,3,,,,,,space,9.156866600000285,None,None,3,1.1899704999996175,0.248380800000632,None,0,0,0,0,,,,,1,0,1,0,,,,,3,0,3,0,734.3308233000007,,,,,,,,,,,,,,,,,,,,,,,,,,,,,,,,,,,,,,,,,,,,,,,,,,,,,,,,,Lava,3.8667,734.3155573000004,734.3160745000005,734.3161816000002,734.3308233000007,738.1970605000006,738.1814938000007,738.1851103000008,738.1970605000006,738.1970605000006,738.1970605000006,738.1970605000006,740.1973104000008,740.1973104000008,740.1973104000008,740.1973104000008,740.1816159,3,1.1899704999996175,0.248380800000632,None,,,,,,,,,,,,,,,,,,,,,,1228,1,2025-10-10_12h15.30.346,sm,2024.2.4,59.95473417564128,2025-10-10 12h15.42.212473 +0200,
4,0,4,,,,,,space,9.156866600000285,None,None,3,0.7865130000000136,0.2111015000000407,None,0,0,0,0,,,,,1,0,1,0,,,,,4,0,4,0,740.1973104000008,,,,,,,,,,,,,,,,,,,,,,,,,,,,,,,,,,,,,,,,,,,,,,,,,,,,,,,,,Zimmer,2.6916,740.1821133000003,740.1827531000008,740.1828615000004,740.1973104000008,742.8968839000008,742.8812893000004,742.8862325,742.8968839000008,742.8968839000008,742.8968839000008,742.8968839000008,744.8970579000006,744.8970579000006,744.8970579000006,744.8970579000006,744.8811843000003,3,0.7865130000000136,0.2111015000000407,None,,,,,,,,,,,,,,,,,,,,,,1228,1,2025-10-10_12h15.30.346,sm,2024.2.4,59.95473417564128,2025-10-10 12h15.42.212473 +0200,
5,0,5,,,,,,space,9.156866600000285,None,None,2,1.1574915999999575,0.19505910000043514,None,0,0,0,0,,,,,1,0,1,0,,,,,5,0,5,0,744.8970579000006,,,,,,,,,,,,,,,,,,,,,,,,,,,,,,,,,,,,,,,,,,,,,,,,,,,,,,,,,Lachen,2.0718,744.8816856000003,744.8822781000008,744.8823818000001,744.8970579000006,746.9799933000004,746.9641647000008,746.9680807000004,746.9799933000004,746.9799933000004,746.9799933000004,746.9799933000004,748.9798158000003,748.9798158000003,748.9798158000003,748.9798158000003,748.9641438000008,2,1.1574915999999575,0.19505910000043514,None,,,,,,,,,,,,,,,,,,,,,,1228,1,2025-10-10_12h15.30.346,sm,2024.2.4,59.95473417564128,2025-10-10 12h15.42.212473 +0200,
6,0,6,,,,,,space,9.156866600000285,None,None,3,0.8360192000000097,0.2499747000001662,None,0,0,0,0,,,,,1,0,1,0,,,,,6,0,6,0,748.9798158000003,,,,,,,,,,,,,,,,,,,,,,,,,,,,,,,,,,,,,,,,,,,,,,,,,,,,,,,,,Bild,3.7921,748.9645887000006,748.9650690000008,748.9651617000009,748.9798158000003,752.7796126000003,752.7638109000009,752.7670684000004,752.7796126000003,752.7796126000003,752.7796126000003,752.7796126000003,754.7795943000001,754.7795943000001,754.7795943000001,754.7795943000001,754.7641167000002,3,0.8360192000000097,0.2499747000001662,None,,,,,,,,,,,,,,,,,,,,,,1228,1,2025-10-10_12h15.30.346,sm,2024.2.4,59.95473417564128,2025-10-10 12h15.42.212473 +0200,
7,0,7,,,,,,space,9.156866600000285,None,None,3,0.7487432000007175,0.2031498999995165,None,0,0,0,0,,,,,1,0,1,0,,,,,7,0,7,0,754.7795943000001,,,,,,,,,,,,,,,,,,,,,,,,,,,,,,,,,,,,,,,,,,,,,,,,,,,,,,,,,Klinge,3.9595,754.7646173000003,754.7651181000001,754.7652282000008,754.7795943000001,758.7458589000007,758.7309206000009,758.7350390000001,758.7458589000007,758.7458589000007,758.7458589000007,758.7458589000007,760.7459052000004,760.7459052000004,760.7459052000004,760.7459052000004,760.7303259,3,0.7487432000007175,0.2031498999995165,None,,,,,,,,,,,,,,,,,,,,,,1228,1,2025-10-10_12h15.30.346,sm,2024.2.4,59.95473417564128,2025-10-10 12h15.42.212473 +0200,
8,0,8,,,,,,space,9.156866600000285,None,None,3,0.6933356999998068,0.2420222000000649,None,0,0,0,0,,,,,1,0,1,0,,,,,8,0,8,0,760.7459052000004,,,,,,,,,,,,,,,,,,,,,,,,,,,,,,,,,,,,,,,,,,,,,,,,,,,,,,,,,Farbe,3.9634,760.7308286000007,760.7313278000001,760.7314333000004,760.7459052000004,764.7121717,764.6965862000006,764.7002399000003,764.7121717,764.7121717,764.7121717,764.7121717,766.7122186000006,766.7122186000006,766.7122186000006,766.7122186000006,766.6968126000002,3,0.6933356999998068,0.2420222000000649,None,,,,,,,,,,,,,,,,,,,,,,1228,1,2025-10-10_12h15.30.346,sm,2024.2.4,59.95473417564128,2025-10-10 12h15.42.212473 +0200,
9,0,9,,,,,,space,9.156866600000285,None,None,3,1.7347232000001895,None,None,0,0,0,0,,,,,1,0,1,0,,,,,9,0,9,0,766.7122186000006,,,,,,,,,,,,,,,,,,,,,,,,,,,,,,,,,,,,,,,,,,,,,,,,,,,,,,,,,Ei,4.3105,766.6973177000009,766.6978305000002,766.6979345000009,766.7122186000006,771.0288338,771.0131116000002,771.0166423000001,771.0288338,771.0288338,771.0288338,771.0288338,773.0284346000008,773.0284346000008,773.0284346000008,773.0284346000008,773.0130899000005,3,1.7347232000001895,None,None,,,,,,,,,,,,,,,,,,,,,,1228,1,2025-10-10_12h15.30.346,sm,2024.2.4,59.95473417564128,2025-10-10 12h15.42.212473 +0200,
10,0,10,,,,,,space,9.156866600000285,None,None,3,0.9906824999998207,0.21645009999974718,None,0,0,0,0,,,,,1,0,1,0,,,,,10,0,10,0,773.0284346000008,,,,,,,,,,,,,,,,,,,,,,,,,,,,,,,,,,,,,,,,,,,,,,,,,,,,,,,,,Tal,2.5074,773.0135909,773.0141879000003,773.0143006000008,773.0284346000008,775.5450194000005,775.5294876000007,775.5329094000008,775.5450194000005,775.5450194000005,775.5450194000005,775.5450194000005,777.5448063000003,777.5448063000003,777.5448063000003,777.5448063000003,777.5293429000003,3,0.9906824999998207,0.21645009999974718,None,,,,,,,,,,,,,,,,,,,,,,1228,1,2025-10-10_12h15.30.346,sm,2024.2.4,59.95473417564128,2025-10-10 12h15.42.212473 +0200,
11,0,11,,,,,,space,9.156866600000285,None,None,3,0.7189541000007011,0.22144459999981336,None,0,0,0,0,,,,,1,0,1,0,,,,,11,0,11,0,777.5448063000003,,,,,,,,,,,,,,,,,,,,,,,,,,,,,,,,,,,,,,,,,,,,,,,,,,,,,,,,,Anhänger,3.6337,777.5298440000006,777.5304327000003,777.5305377000004,777.5448063000003,781.1780469000005,781.1623124000007,781.1674593000007,781.1780469000005,781.1780469000005,781.1780469000005,781.1780469000005,783.1785767000001,783.1785767000001,783.1785767000001,783.1785767000001,783.1623829,3,0.7189541000007011,0.22144459999981336,None,,,,,,,,,,,,,,,,,,,,,,1228,1,2025-10-10_12h15.30.346,sm,2024.2.4,59.95473417564128,2025-10-10 12h15.42.212473 +0200,
12,0,12,,,,,,space,9.156866600000285,None,None,3,1.027046700000028,0.5496658000001844,None,0,0,0,0,,,,,1,0,1,0,,,,,12,0,12,0,783.1785767000001,,,,,,,,,,,,,,,,,,,,,,,,,,,,,,,,,,,,,,,,,,,,,,,,,,,,,,,,,Sand,2.4648,783.1628813000007,783.1636274000002,783.1637326,783.1785767000001,785.6444854000001,785.6289456000004,785.6326194000003,785.6444854000001,785.6444854000001,785.6444854000001,785.6444854000001,787.6444539000004,787.6444539000004,787.6444539000004,787.6444539000004,787.6287980000006,3,1.027046700000028,0.5496658000001844,None,,,,,,,,,,,,,,,,,,,,,,1228,1,2025-10-10_12h15.30.346,sm,2024.2.4,59.95473417564128,2025-10-10 12h15.42.212473 +0200,
13,0,13,,,,,,space,9.156866600000285,None,None,3,1.2767588999995496,0.2020849000000453,None,0,0,0,0,,,,,1,0,1,0,,,,,13,0,13,0,787.6444539000004,,,,,,,,,,,,,,,,,,,,,,,,,,,,,,,,,,,,,,,,,,,,,,,,,,,,,,,,,Krieg,3.0823,787.6293032000003,787.6298144000002,787.6299168000005,787.6444539000004,790.7273623000001,790.7115463,790.7149398000001,790.7273623000001,790.7273623000001,790.7273623000001,790.7273623000001,792.7272086000003,792.7272086000003,792.7272086000003,792.7272086000003,792.7122929000006,3,1.2767588999995496,0.2020849000000453,None,,,,,,,,,,,,,,,,,,,,,,1228,1,2025-10-10_12h15.30.346,sm,2024.2.4,59.95473417564128,2025-10-10 12h15.42.212473 +0200,
14,0,14,,,,,,space,9.156866600000285,None,None,3,0.6438858000001346,0.22517659999994066,None,0,0,0,0,,,,,1,0,1,0,,,,,14,0,14,0,792.7272086000003,,,,,,,,,,,,,,,,,,,,,,,,,,,,,,,,,,,,,,,,,,,,,,,,,,,,,,,,,Helm,3.7007,792.7127883000003,792.7133096000007,792.7134145,792.7272086000003,796.4270980000001,796.4114020000006,796.4151165000003,796.4270980000001,796.4270980000001,796.4270980000001,796.4270980000001,798.4269508000007,798.4269508000007,798.4269508000007,798.4269508000007,798.4119702000007,3,0.6438858000001346,0.22517659999994066,None,,,,,,,,,,,,,,,,,,,,,,1228,1,2025-10-10_12h15.30.346,sm,2024.2.4,59.95473417564128,2025-10-10 12h15.42.212473 +0200,
15,0,15,,,,,,space,9.156866600000285,None,None,3,0.6645247999995263,0.1825531000004048,None,0,0,0,0,,,,,1,0,1,0,,,,,15,0,15,0,798.4269508000007,,,,,,,,,,,,,,,,,,,,,,,,,,,,,,,,,,,,,,,,,,,,,,,,,,,,,,,,,Hose,2.7095,798.4124663000002,798.4130685,798.4131735000001,798.4269508000007,801.1434177000001,801.1277716000004,801.1314161,801.1434177000001,801.1434177000001,801.1434177000001,801.1434177000001,803.1434756000008,803.1434756000008,803.1434756000008,803.1434756000008,803.1279881,3,0.6645247999995263,0.1825531000004048,None,,,,,,,,,,,,,,,,,,,,,,1228,1,2025-10-10_12h15.30.346,sm,2024.2.4,59.95473417564128,2025-10-10 12h15.42.212473 +0200,
16,0,16,,,,,,space,9.156866600000285,None,None,3,0.8113204000001133,0.19305179999992106,None,0,0,0,0,,,,,1,0,1,0,,,,,16,0,16,0,803.1434756000008,,,,,,,,,,,,,,,,,,,,,,,,,,,,,,,,,,,,,,,,,,,,,,,,,,,,,,,,,Tasche,2.2429,803.1284817000005,803.1291281000003,803.1292312000005,803.1434756000008,805.3932311000008,805.3775707000004,805.3817238000001,805.3932311000008,805.3932311000008,805.3932311000008,805.3932311000008,807.3931706000003,807.3931706000003,807.3931706000003,807.3931706000003,807.3778612000006,3,0.8113204000001133,0.19305179999992106,None,,,,,,,,,,,,,,,,,,,,,,1228,1,2025-10-10_12h15.30.346,sm,2024.2.4,59.95473417564128,2025-10-10 12h15.42.212473 +0200,
17,0,17,,,,,,space,9.156866600000285,None,None,2,1.3113314000001992,0.5634491999999227,None,0,0,0,0,,,,,1,0,1,0,,,,,17,0,17,0,807.3931706000003,,,,,,,,,,,,,,,,,,,,,,,,,,,,,,,,,,,,,,,,,,,,,,,,,,,,,,,,,Spion,2.5946,807.3784784000009,807.3789948000003,807.3791014000008,807.3931706000003,809.9929987000005,809.9773148000004,809.9822064000009,809.9929987000005,809.9929987000005,809.9929987000005,809.9929987000005,811.9929111000001,811.9929111000001,811.9929111000001,811.9929111000001,811.9775802000004,2,1.3113314000001992,0.5634491999999227,None,,,,,,,,,,,,,,,,,,,,,,1228,1,2025-10-10_12h15.30.346,sm,2024.2.4,59.95473417564128,2025-10-10 12h15.42.212473 +0200,
18,0,18,,,,,,space,9.156866600000285,None,None,3,0.6439016999993328,0.16142070000023523,None,0,0,0,0,,,,,1,0,1,0,,,,,18,0,18,0,811.9929111000001,,,,,,,,,,,,,,,,,,,,,,,,,,,,,,,,,,,,,,,,,,,,,,,,,,,,,,,,,Zucker,3.1226,811.9780858000004,811.9785948000008,811.9786997000001,811.9929111000001,815.1256161000001,815.1100097000008,815.1133608,815.1256161000001,815.1256161000001,815.1256161000001,815.1256161000001,817.1258360000002,817.1258360000002,817.1258360000002,817.1258360000002,817.1104769000003,3,0.6439016999993328,0.16142070000023523,None,,,,,,,,,,,,,,,,,,,,,,1228,1,2025-10-10_12h15.30.346,sm,2024.2.4,59.95473417564128,2025-10-10 12h15.42.212473 +0200,
19,0,19,,,,,,space,9.156866600000285,None,None,2,0.8784833999998227,0.1765758999999889,None,0,0,0,0,,,,,1,0,1,0,,,,,19,0,19,0,817.1258360000002,,,,,,,,,,,,,,,,,,,,,,,,,,,,,,,,,,,,,,,,,,,,,,,,,,,,,,,,,Koch,2.715,817.1109773000007,817.1116907000005,817.1118008000003,817.1258360000002,819.8423873000002,819.8268603000006,819.8304610000005,819.8423873000002,819.8423873000002,819.8423873000002,819.8423873000002,821.8425430000007,821.8425430000007,821.8425430000007,821.8425430000007,821.8269628000007,2,0.8784833999998227,0.1765758999999889,None,,,,,,,,,,,,,,,,,,,,,,1228,1,2025-10-10_12h15.30.346,sm,2024.2.4,59.95473417564128,2025-10-10 12h15.42.212473 +0200,
20,0,20,,,,,,space,9.156866600000285,None,None,3,1.1499518000000535,0.2882546999999249,None,0,0,0,0,,,,,1,0,1,0,,,,,20,0,20,0,821.8425430000007,,,,,,,,,,,,,,,,,,,,,,,,,,,,,,,,,,,,,,,,,,,,,,,,,,,,,,,,,Safari,4.8187,821.8274612000005,821.8280663000005,821.8281684000003,821.8425430000007,826.6752855000004,826.6595089000002,826.6628897,826.6752855000004,826.6752855000004,826.6752855000004,826.6752855000004,828.6751766000007,828.6751766000007,828.6751766000007,828.6751766000007,828.6597711000004,3,1.1499518000000535,0.2882546999999249,None,,,,,,,,,,,,,,,,,,,,,,1228,1,2025-10-10_12h15.30.346,sm,2024.2.4,59.95473417564128,2025-10-10 12h15.42.212473 +0200,
21,0,21,,,,,,space,9.156866600000285,None,None,2,0.7907632999995258,0.19097490000058315,None,0,0,0,0,,,,,1,0,1,0,,,,,21,0,21,0,828.6751766000007,,,,,,,,,,,,,,,,,,,,,,,,,,,,,,,,,,,,,,,,,,,,,,,,,,,,,,,,,Lehrer,2.6229,828.6602681000004,828.6607860000004,828.6608909000006,828.6751766000007,831.3083433000002,831.2927843000007,831.2967970000009,831.3083433000002,831.3083433000002,831.3083433000002,831.3083433000002,833.3085044000009,833.3085044000009,833.3085044000009,833.3085044000009,833.2929448000004,2,0.7907632999995258,0.19097490000058315,None,,,,,,,,,,,,,,,,,,,,,,1228,1,2025-10-10_12h15.30.346,sm,2024.2.4,59.95473417564128,2025-10-10 12h15.42.212473 +0200,
22,0,22,,,,,,space,9.156866600000285,None,None,3,0.751552100000481,0.22181519999958255,None,0,0,0,0,,,,,1,0,1,0,,,,,22,0,22,0,833.3085044000009,,,,,,,,,,,,,,,,,,,,,,,,,,,,,,,,,,,,,,,,,,,,,,,,,,,,,,,,,Sitzgurt,2.1841,833.2934257000006,833.2939343000007,833.2940411000009,833.3085044000009,835.4916550000007,835.4759977000003,835.4802601000001,835.4916550000007,835.4916550000007,835.4916550000007,835.4916550000007,837.4914444000005,837.4914444000005,837.4914444000005,837.4914444000005,837.4760712000007,3,0.751552100000481,0.22181519999958255,None,,,,,,,,,,,,,,,,,,,,,,1228,1,2025-10-10_12h15.30.346,sm,2024.2.4,59.95473417564128,2025-10-10 12h15.42.212473 +0200,
23,0,23,,,,,,space,9.156866600000285,None,None,3,1.1645132999992711,0.24854430000050343,None,0,0,0,0,,,,,1,0,1,0,,,,,23,0,23,0,837.4914444000005,,,,,,,,,,,,,,,,,,,,,,,,,,,,,,,,,,,,,,,,,,,,,,,,,,,,,,,,,Monument,2.7574,837.4765784000001,837.4770850000004,837.4771885,837.4914444000005,840.2577643000004,840.2422700000006,840.2466370000002,840.2577643000004,840.2577643000004,840.2577643000004,840.2577643000004,842.2579536000003,842.2579536000003,842.2579536000003,842.2579536000003,842.2424018000002,3,1.1645132999992711,0.24854430000050343,None,,,,,,,,,,,,,,,,,,,,,,1228,1,2025-10-10_12h15.30.346,sm,2024.2.4,59.95473417564128,2025-10-10 12h15.42.212473 +0200,
24,0,24,,,,,,space,9.156866600000285,None,None,3,0.9881771999998819,0.19314140000005864,None,0,0,0,0,,,,,1,0,1,0,,,,,24,0,24,0,842.2579536000003,,,,,,,,,,,,,,,,,,,,,,,,,,,,,,,,,,,,,,,,,,,,,,,,,,,,,,,,,Schnee,4.1784,842.2429919000006,842.2435577000006,842.2436721000004,842.2579536000003,846.4410290000005,846.4252915000006,846.4302351000006,846.4410290000005,846.4410290000005,846.4410290000005,846.4410290000005,848.4408806000001,848.4408806000001,848.4408806000001,848.4408806000001,848.4252091000008,3,0.9881771999998819,0.19314140000005864,None,,,,,,,,,,,,,,,,,,,,,,1228,1,2025-10-10_12h15.30.346,sm,2024.2.4,59.95473417564128,2025-10-10 12h15.42.212473 +0200,
25,0,25,,,,,,space,9.156866600000285,None,None,3,0.9844466999993529,0.22224629999982426,None,0,0,0,0,,,,,1,0,1,0,,,,,25,0,25,0,848.4408806000001,,,,,,,,,,,,,,,,,,,,,,,,,,,,,,,,,,,,,,,,,,,,,,,,,,,,,,,,,Schreibtisch,2.4298,848.4257147000008,848.4262230000004,848.4263270000001,848.4408806000001,850.8736705000001,850.8580550000006,850.8621159000004,850.8736705000001,850.8736705000001,850.8736705000001,850.8736705000001,852.8738914000005,852.8738914000005,852.8738914000005,852.8738914000005,852.8589238000004,3,0.9844466999993529,0.22224629999982426,None,,,,,,,,,,,,,,,,,,,,,,1228,1,2025-10-10_12h15.30.346,sm,2024.2.4,59.95473417564128,2025-10-10 12h15.42.212473 +0200,
26,0,26,,,,,,space,9.156866600000285,None,None,3,1.4966920999995637,None,None,0,0,0,0,,,,,1,0,1,0,,,,,26,0,26,0,852.8738914000005,,,,,,,,,,,,,,,,,,,,,,,,,,,,,,,,,,,,,,,,,,,,,,,,,,,,,,,,,Tradition,2.7963,852.8594302000001,852.8600763000004,852.8601817000008,852.8738914000005,855.6738639000005,855.6582897000008,855.6627386,855.6738639000005,855.6738639000005,855.6738639000005,855.6738639000005,857.6737669000004,857.6737669000004,857.6737669000004,857.6737669000004,857.6581363000005,3,1.4966920999995637,None,None,,,,,,,,,,,,,,,,,,,,,,1228,1,2025-10-10_12h15.30.346,sm,2024.2.4,59.95473417564128,2025-10-10 12h15.42.212473 +0200,
27,0,27,,,,,,space,9.156866600000285,None,None,3,0.6627581000002465,0.18219260000023496,None,0,0,0,0,,,,,1,0,1,0,,,,,27,0,27,0,857.6737669000004,,,,,,,,,,,,,,,,,,,,,,,,,,,,,,,,,,,,,,,,,,,,,,,,,,,,,,,,,Gabel,4.9293,857.6586382000005,857.6591753000002,857.6592788000007,857.6737669000004,862.6064595000007,862.5906149000002,862.5941848000002,862.6064595000007,862.6064595000007,862.6064595000007,862.6064595000007,864.6067505000001,864.6067505000001,864.6067505000001,864.6067505000001,864.5908289000008,3,0.6627581000002465,0.18219260000023496,None,,,,,,,,,,,,,,,,,,,,,,1228,1,2025-10-10_12h15.30.346,sm,2024.2.4,59.95473417564128,2025-10-10 12h15.42.212473 +0200,
28,0,28,,,,,,space,9.156866600000285,None,None,3,1.1215465999994194,0.18650760000036826,None,0,0,0,0,,,,,1,0,1,0,,,,,28,0,28,0,864.6067505000001,,,,,,,,,,,,,,,,,,,,,,,,,,,,,,,,,,,,,,,,,,,,,,,,,,,,,,,,,Duft,4.6971,864.5913306000002,864.5918457000007,864.5919519000008,864.6067505000001,869.3059975000006,869.2904642000003,869.2934518000002,869.3059975000006,869.3059975000006,869.3059975000006,869.3059975000006,871.3060629000001,871.3060629000001,871.3060629000001,871.3060629000001,871.2905591000008,3,1.1215465999994194,0.18650760000036826,None,,,,,,,,,,,,,,,,,,,,,,1228,1,2025-10-10_12h15.30.346,sm,2024.2.4,59.95473417564128,2025-10-10 12h15.42.212473 +0200,
29,0,29,,,,,,space,9.156866600000285,None,None,3,1.6014299000007668,0.2283793999995396,None,0,0,0,0,,,,,1,0,1,0,,,,,29,0,29,0,871.3060629000001,,,,,,,,,,,,,,,,,,,,,,,,,,,,,,,,,,,,,,,,,,,,,,,,,,,,,,,,,Feuer,2.0855,871.2910620000002,871.2915673000007,871.2916690000002,871.3060629000001,873.4058326000004,873.3905670000004,873.3945745000001,873.4058326000004,873.4058326000004,873.4058326000004,873.4058326000004,875.4062834000006,875.4062834000006,875.4062834000006,875.4062834000006,875.3899927000002,3,1.6014299000007668,0.2283793999995396,None,,,,,,,,,,,,,,,,,,,,,,1228,1,2025-10-10_12h15.30.346,sm,2024.2.4,59.95473417564128,2025-10-10 12h15.42.212473 +0200,
30,0,30,,,,,,space,9.156866600000285,None,None,3,0.8094092999999702,0.2523223999996844,None,0,0,0,0,,,,,1,0,1,0,,,,,30,0,30,0,875.4062834000006,,,,,,,,,,,,,,,,,,,,,,,,,,,,,,,,,,,,,,,,,,,,,,,,,,,,,,,,,Ehe,2.8861,875.3904133000005,875.3908710000005,875.3909591000001,875.4062834000006,878.3055760000007,878.2898862000002,878.2932143000007,878.3055760000007,878.3055760000007,878.3055760000007,878.3055760000007,880.3056662000008,880.3056662000008,880.3056662000008,880.3056662000008,880.2899590000006,3,0.8094092999999702,0.2523223999996844,None,,,,,,,,,,,,,,,,,,,,,,1228,1,2025-10-10_12h15.30.346,sm,2024.2.4,59.95473417564128,2025-10-10 12h15.42.212473 +0200,
31,0,31,,,,,,space,9.156866600000285,None,None,3,1.104347799999232,0.257311700000173,None,0,0,0,0,,,,,1,0,1,0,,,,,31,0,31,0,880.3056662000008,,,,,,,,,,,,,,,,,,,,,,,,,,,,,,,,,,,,,,,,,,,,,,,,,,,,,,,,,Schleim,2.4453,880.2904654000004,880.2911008000001,880.2912062000005,880.3056662000008,882.7559323000005,882.7395834000008,882.7451355000003,882.7559323000005,882.7559323000005,882.7559323000005,882.7559323000005,884.7554738000008,884.7554738000008,884.7554738000008,884.7554738000008,884.7397948000007,3,1.104347799999232,0.257311700000173,None,,,,,,,,,,,,,,,,,,,,,,1228,1,2025-10-10_12h15.30.346,sm,2024.2.4,59.95473417564128,2025-10-10 12h15.42.212473 +0200,
32,0,32,,,,,,space,9.156866600000285,None,None,2,1.3576324000005116,0.23737379999965924,None,0,0,0,0,,,,,1,0,1,0,,,,,32,0,32,0,884.7554738000008,,,,,,,,,,,,,,,,,,,,,,,,,,,,,,,,,,,,,,,,,,,,,,,,,,,,,,,,,Fliegen,5.3109,884.7402981000005,884.7408084000008,884.7409143000004,884.7554738000008,890.0713446000009,890.0557969000001,890.0592471000009,890.0713446000009,890.0713446000009,890.0713446000009,890.0713446000009,892.0716678000008,892.0716678000008,892.0716678000008,892.0716678000008,892.0559056000002,2,1.3576324000005116,0.23737379999965924,None,,,,,,,,,,,,,,,,,,,,,,1228,1,2025-10-10_12h15.30.346,sm,2024.2.4,59.95473417564128,2025-10-10 12h15.42.212473 +0200,
33,0,33,,,,,,space,9.156866600000285,None,None,2,1.663977000000159,0.25621200000023236,None,0,0,0,0,,,,,1,0,1,0,,,,,33,0,33,0,892.0716678000008,,,,,,,,,,,,,,,,,,,,,,,,,,,,,,,,,,,,,,,,,,,,,,,,,,,,,,,,,Nase,2.8606,892.0564082000001,892.0569167000003,892.0570208000008,892.0716678000008,894.9380648000006,894.9225123000006,894.9258409000004,894.9380648000006,894.9380648000006,894.9380648000006,894.9380648000006,896.9385382,896.9385382,896.9385382,896.9385382,896.9226906000004,2,1.663977000000159,0.25621200000023236,None,,,,,,,,,,,,,,,,,,,,,,1228,1,2025-10-10_12h15.30.346,sm,2024.2.4,59.95473417564128,2025-10-10 12h15.42.212473 +0200,
34,0,34,,,,,,space,9.156866600000285,None,None,2,1.8493442000008145,None,None,0,0,0,0,,,,,1,0,1,0,,,,,34,0,34,0,896.9385382,,,,,,,,,,,,,,,,,,,,,,,,,,,,,,,,,,,,,,,,,,,,,,,,,,,,,,,,,Knie,2.7457,896.9231577,896.9238824000004,896.9240579000007,896.9385382,899.6878276000007,899.6718763000008,899.6749431000007,899.6878276000007,899.6878276000007,899.6878276000007,899.6878276000007,901.6875418000009,901.6875418000009,901.6875418000009,901.6875418000009,901.6722864000003,2,1.8493442000008145,None,None,,,,,,,,,,,,,,,,,,,,,,1228,1,2025-10-10_12h15.30.346,sm,2024.2.4,59.95473417564128,2025-10-10 12h15.42.212473 +0200,
35,0,35,,,,,,space,9.156866600000285,None,None,3,1.2352194999994026,0.22623300000032032,None,0,0,0,0,,,,,1,0,1,0,,,,,35,0,35,0,901.6875418000009,,,,,,,,,,,,,,,,,,,,,,,,,,,,,,,,,,,,,,,,,,,,,,,,,,,,,,,,,Krone,3.9082,901.6727848,901.6733342000007,901.6734420000003,901.6875418000009,905.6037083000001,905.5886853000002,905.5923157000007,905.6037083000001,905.6037083000001,905.6037083000001,905.6037083000001,907.6041072000007,907.6041072000007,907.6041072000007,907.6041072000007,907.5884616000003,3,1.2352194999994026,0.22623300000032032,None,,,,,,,,,,,,,,,,,,,,,,1228,1,2025-10-10_12h15.30.346,sm,2024.2.4,59.95473417564128,2025-10-10 12h15.42.212473 +0200,
36,0,36,,,,,,space,9.156866600000285,None,None,3,0.8834271999994598,0.21842970000034256,None,0,0,0,0,,,,,1,0,1,0,,,,,36,0,36,0,907.6041072000007,,,,,,,,,,,,,,,,,,,,,,,,,,,,,,,,,,,,,,,,,,,,,,,,,,,,,,,,,Angriff,5.563,907.5889699000008,907.5896965000002,907.5898073000008,907.6041072000007,913.1699829000008,913.1544295000003,913.1581974000001,913.1699829000008,913.1699829000008,913.1699829000008,913.1699829000008,915.1706343000005,915.1706343000005,915.1706343000005,915.1706343000005,915.1546519000003,3,0.8834271999994598,0.21842970000034256,None,,,,,,,,,,,,,,,,,,,,,,1228,1,2025-10-10_12h15.30.346,sm,2024.2.4,59.95473417564128,2025-10-10 12h15.42.212473 +0200,
37,0,37,,,,,,space,9.156866600000285,None,None,3,1.4165618000006361,0.20545119999951567,None,0,0,0,0,,,,,1,0,1,0,,,,,37,0,37,0,915.1706343000005,,,,,,,,,,,,,,,,,,,,,,,,,,,,,,,,,,,,,,,,,,,,,,,,,,,,,,,,,Sterne,2.1182,915.1551228000008,915.1556215,915.1557198,915.1706343000005,917.3033552000006,917.2877147000008,917.2910964000002,917.3033552000006,917.3033552000006,917.3033552000006,917.3033552000006,919.3032580000008,919.3032580000008,919.3032580000008,919.3032580000008,919.2876035000008,3,1.4165618000006361,0.20545119999951567,None,,,,,,,,,,,,,,,,,,,,,,1228,1,2025-10-10_12h15.30.346,sm,2024.2.4,59.95473417564128,2025-10-10 12h15.42.212473 +0200,
38,0,38,,,,,,space,9.156866600000285,None,None,3,0.7430348999996568,0.19553300000006857,None,0,0,0,0,,,,,1,0,1,0,,,,,38,0,38,0,919.3032580000008,,,,,,,,,,,,,,,,,,,,,,,,,,,,,,,,,,,,,,,,,,,,,,,,,,,,,,,,,Schlamm,2.1887,919.2881064000003,919.2886150000004,919.2887188000004,919.3032580000008,921.5033117000003,921.4877219,921.4927155000005,921.5033117000003,921.5033117000003,921.5033117000003,921.5033117000003,923.5028584000002,923.5028584000002,923.5028584000002,923.5028584000002,923.4871989000003,3,0.7430348999996568,0.19553300000006857,None,,,,,,,,,,,,,,,,,,,,,,1228,1,2025-10-10_12h15.30.346,sm,2024.2.4,59.95473417564128,2025-10-10 12h15.42.212473 +0200,
39,0,39,,,,,,space,9.156866600000285,None,None,3,1.7850718999998207,None,None,0,0,0,0,,,,,1,0,1,0,,,,,39,0,39,0,923.5028584000002,,,,,,,,,,,,,,,,,,,,,,,,,,,,,,,,,,,,,,,,,,,,,,,,,,,,,,,,,Blut,2.4661,923.4876288000005,923.4880867000002,923.4881729000008,923.5028584000002,925.9693647000004,925.9536354000002,925.9569583000002,925.9693647000004,925.9693647000004,925.9693647000004,925.9693647000004,927.9694209000008,927.9694209000008,927.9694209000008,927.9694209000008,927.9538747000006,3,1.7850718999998207,None,None,,,,,,,,,,,,,,,,,,,,,,1228,1,2025-10-10_12h15.30.346,sm,2024.2.4,59.95473417564128,2025-10-10 12h15.42.212473 +0200,
40,0,40,,,,,,space,9.156866600000285,None,None,3,0.705704699999842,0.15499809999982972,None,0,0,0,0,,,,,1,0,1,0,,,,,40,0,40,0,927.9694209000008,,,,,,,,,,,,,,,,,,,,,,,,,,,,,,,,,,,,,,,,,,,,,,,,,,,,,,,,,Zapfen,2.3637,927.9543748000006,927.9549454000007,927.9550496000002,927.9694209000008,930.3360898000001,930.3204204000003,930.3244143000002,930.3360898000001,930.3360898000001,930.3360898000001,930.3360898000001,932.3358863000003,932.3358863000003,932.3358863000003,932.3358863000003,932.3204333000003,3,0.705704699999842,0.15499809999982972,None,,,,,,,,,,,,,,,,,,,,,,1228,1,2025-10-10_12h15.30.346,sm,2024.2.4,59.95473417564128,2025-10-10 12h15.42.212473 +0200,
41,0,41,,,,,,space,9.156866600000285,None,None,3,0.9017177999994601,0.19947040000079141,None,0,0,0,0,,,,,1,0,1,0,,,,,41,0,41,0,932.3358863000003,,,,,,,,,,,,,,,,,,,,,,,,,,,,,,,,,,,,,,,,,,,,,,,,,,,,,,,,,Schloss,2.492,932.3209367000009,932.3214384000003,932.3215435000002,932.3358863000003,934.8363392000001,934.8202261000006,934.8242544000004,934.8363392000001,934.8363392000001,934.8363392000001,934.8363392000001,936.8354998000004,936.8354998000004,936.8354998000004,936.8354998000004,936.8199700000005,3,0.9017177999994601,0.19947040000079141,None,,,,,,,,,,,,,,,,,,,,,,1228,1,2025-10-10_12h15.30.346,sm,2024.2.4,59.95473417564128,2025-10-10 12h15.42.212473 +0200,
42,0,42,,,,,,space,9.156866600000285,None,None,3,0.8190763000002335,0.21083360000011453,None,0,0,0,0,,,,,1,0,1,0,,,,,42,0,42,0,936.8354998000004,,,,,,,,,,,,,,,,,,,,,,,,,,,,,,,,,,,,,,,,,,,,,,,,,,,,,,,,,Spülung,4.7268,936.8204678000002,936.8209895000009,936.8210923000006,936.8354998000004,941.5683858000002,941.5527376,941.5561826000003,941.5683858000002,941.5683858000002,941.5683858000002,941.5683858000002,943.5684405000002,943.5684405000002,943.5684405000002,943.5684405000002,943.5531349000003,3,0.8190763000002335,0.21083360000011453,None,,,,,,,,,,,,,,,,,,,,,,1228,1,2025-10-10_12h15.30.346,sm,2024.2.4,59.95473417564128,2025-10-10 12h15.42.212473 +0200,
43,0,43,,,,,,space,9.156866600000285,None,None,3,0.8464862999999241,0.2379823999999644,None,0,0,0,0,,,,,1,0,1,0,,,,,43,0,43,0,943.5684405000002,,,,,,,,,,,,,,,,,,,,,,,,,,,,,,,,,,,,,,,,,,,,,,,,,,,,,,,,,Bildung,2.2502,943.5536374000003,943.5543782000004,943.5544828000002,943.5684405000002,945.8185264000003,945.8028763000002,945.8070401000004,945.8185264000003,945.8185264000003,945.8185264000003,945.8185264000003,947.8183113000005,947.8183113000005,947.8183113000005,947.8183113000005,947.8027589000003,3,0.8464862999999241,0.2379823999999644,None,,,,,,,,,,,,,,,,,,,,,,1228,1,2025-10-10_12h15.30.346,sm,2024.2.4,59.95473417564128,2025-10-10 12h15.42.212473 +0200,
44,0,44,,,,,,space,9.156866600000285,None,None,3,0.7473276000000624,0.21377680000023247,None,0,0,0,0,,,,,1,0,1,0,,,,,44,0,44,0,947.8183113000005,,,,,,,,,,,,,,,,,,,,,,,,,,,,,,,,,,,,,,,,,,,,,,,,,,,,,,,,,Lokomotive,2.593,947.8032598000009,947.8037672,947.8038701000005,947.8183113000005,950.4180980000001,950.4022774000005,950.4060384000004,950.4180980000001,950.4180980000001,950.4180980000001,950.4180980000001,952.4179976000005,952.4179976000005,952.4179976000005,952.4179976000005,952.4024452000003,3,0.7473276000000624,0.21377680000023247,None,,,,,,,,,,,,,,,,,,,,,,1228,1,2025-10-10_12h15.30.346,sm,2024.2.4,59.95473417564128,2025-10-10 12h15.42.212473 +0200,
45,0,45,,,,,,space,9.156866600000285,None,None,3,0.8117824000000837,0.23836970000047586,None,0,0,0,0,,,,,1,0,1,0,,,,,45,0,45,0,952.4179976000005,,,,,,,,,,,,,,,,,,,,,,,,,,,,,,,,,,,,,,,,,,,,,,,,,,,,,,,,,Theater,2.2946,952.4029502000003,952.4034640000009,952.4035672,952.4179976000005,954.7175178000007,954.7020206000007,954.7061285000009,954.7175178000007,954.7175178000007,954.7175178000007,954.7175178000007,956.7175619000009,956.7175619000009,956.7175619000009,956.7175619000009,956.7026725000005,3,0.8117824000000837,0.23836970000047586,None,,,,,,,,,,,,,,,,,,,,,,1228,1,2025-10-10_12h15.30.346,sm,2024.2.4,59.95473417564128,2025-10-10 12h15.42.212473 +0200,
46,0,46,,,,,,space,9.156866600000285,None,None,3,0.8656055999999808,0.22440029999961553,None,0,0,0,0,,,,,1,0,1,0,,,,,46,0,46,0,956.7175619000009,,,,,,,,,,,,,,,,,,,,,,,,,,,,,,,,,,,,,,,,,,,,,,,,,,,,,,,,,Mappe,2.6022,956.7031728000002,956.7038593000007,956.7039705000007,956.7175619000009,959.3341188000004,959.3184699000003,959.3217979000001,959.3341188000004,959.3341188000004,959.3341188000004,959.3341188000004,961.3341895000003,961.3341895000003,961.3341895000003,961.3341895000003,961.3188524000007,3,0.8656055999999808,0.22440029999961553,None,,,,,,,,,,,,,,,,,,,,,,1228,1,2025-10-10_12h15.30.346,sm,2024.2.4,59.95473417564128,2025-10-10 12h15.42.212473 +0200,
47,0,47,,,,,,space,9.156866600000285,None,None,2,0.942983699999786,0.1905066999997871,None,0,0,0,0,,,,,1,0,1,0,,,,,47,0,47,0,961.3341895000003,,,,,,,,,,,,,,,,,,,,,,,,,,,,,,,,,,,,,,,,,,,,,,,,,,,,,,,,,Hand,2.1171,961.3193587000005,961.3198706000003,961.3199760000007,961.3341895000003,963.4504484000008,963.4349580000007,963.4384152000002,963.4504484000008,963.4504484000008,963.4504484000008,963.4504484000008,965.4510514000003,965.4510514000003,965.4510514000003,965.4510514000003,965.4351693000008,2,0.942983699999786,0.1905066999997871,None,,,,,,,,,,,,,,,,,,,,,,1228,1,2025-10-10_12h15.30.346,sm,2024.2.4,59.95473417564128,2025-10-10 12h15.42.212473 +0200,
48,0,48,,,,,,space,9.156866600000285,None,None,2,0.9894404999995459,0.19251230000008945,None,0,0,0,0,,,,,1,0,1,0,,,,,48,0,48,0,965.4510514000003,,,,,,,,,,,,,,,,,,,,,,,,,,,,,,,,,,,,,,,,,,,,,,,,,,,,,,,,,Bruder,2.2449,965.4356782000004,965.4362706000002,965.4363737000003,965.4510514000003,967.7005528000009,967.6848037000009,967.6888707000007,967.7005528000009,967.7005528000009,967.7005528000009,967.7005528000009,969.7003081000003,969.7003081000003,969.7003081000003,969.7003081000003,969.6847458000002,2,0.9894404999995459,0.19251230000008945,None,,,,,,,,,,,,,,,,,,,,,,1228,1,2025-10-10_12h15.30.346,sm,2024.2.4,59.95473417564128,2025-10-10 12h15.42.212473 +0200,
49,0,49,,,,,,space,9.156866600000285,None,None,3,1.6650454000000536,0.22507649999988644,None,0,0,0,0,,,,,1,0,1,0,,,,,49,0,49,0,969.7003081000003,,,,,,,,,,,,,,,,,,,,,,,,,,,,,,,,,,,,,,,,,,,,,,,,,,,,,,,,,Gruppe,2.7203,969.6852488000004,969.6857619000002,969.6858664000001,969.7003081000003,972.4334202,972.4174525000008,972.4206533000006,972.4334202,972.4334202,972.4334202,972.4334202,974.4332906000009,974.4332906000009,974.4332906000009,974.4332906000009,974.4177351000008,3,1.6650454000000536,0.22507649999988644,None,,,,,,,,,,,,,,,,,,,,,,1228,1,2025-10-10_12h15.30.346,sm,2024.2.4,59.95473417564128,2025-10-10 12h15.42.212473 +0200,
50,0,50,,,,,,space,9.156866600000285,None,None,3,0.5990779000003386,0.20740089999981137,None,0,0,0,0,,,,,1,0,1,0,,,,,50,0,50,0,974.4332906000009,,,,,,,,,,,,,,,,,,,,,,,,,,,,,,,,,,,,,,,,,,,,,,,,,,,,,,,,,Medaille,2.8268,974.4182340000007,974.4188167000002,974.4189205000002,974.4332906000009,977.2665844000003,977.2507305000008,977.2542585000001,977.2665844000003,977.2665844000003,977.2665844000003,977.2665844000003,979.2664621000004,979.2664621000004,979.2664621000004,979.2664621000004,979.2508861000006,3,0.5990779000003386,0.20740089999981137,None,,,,,,,,,,,,,,,,,,,,,,1228,1,2025-10-10_12h15.30.346,sm,2024.2.4,59.95473417564128,2025-10-10 12h15.42.212473 +0200,
51,0,51,,,,,,space,9.156866600000285,None,None,3,0.5906789000000572,0.23632829999951355,None,0,0,0,0,,,,,1,0,1,0,,,,,51,0,51,0,979.2664621000004,,,,,,,,,,,,,,,,,,,,,,,,,,,,,,,,,,,,,,,,,,,,,,,,,,,,,,,,,Sauber,2.3887,979.2513831000006,979.2519288000003,979.2520313000005,979.2664621000004,981.6660536000009,981.6507255000006,981.6558113000001,981.6660536000009,981.6660536000009,981.6660536000009,981.6660536000009,983.6659876000003,983.6659876000003,983.6659876000003,983.6659876000003,983.6506950000003,3,0.5906789000000572,0.23632829999951355,None,,,,,,,,,,,,,,,,,,,,,,1228,1,2025-10-10_12h15.30.346,sm,2024.2.4,59.95473417564128,2025-10-10 12h15.42.212473 +0200,
52,0,52,,,,,,space,9.156866600000285,None,None,2,1.6024779999997918,0.17044190000069648,None,0,0,0,0,,,,,1,0,1,0,,,,,52,0,52,0,983.6659876000003,,,,,,,,,,,,,,,,,,,,,,,,,,,,,,,,,,,,,,,,,,,,,,,,,,,,,,,,,Rasen,2.8106,983.6511957000002,983.6517229000001,983.6518308000004,983.6659876000003,986.4827415000009,986.4668616000008,986.4705598,986.4827415000009,986.4827415000009,986.4827415000009,986.4827415000009,988.4825540000002,988.4825540000002,988.4825540000002,988.4825540000002,988.4668944000005,2,1.6024779999997918,0.17044190000069648,None,,,,,,,,,,,,,,,,,,,,,,1228,1,2025-10-10_12h15.30.346,sm,2024.2.4,59.95473417564128,2025-10-10 12h15.42.212473 +0200,
53,0,53,,,,,,space,9.156866600000285,None,None,3,1.0926360000003115,0.21631870000055642,None,0,0,0,0,,,,,1,0,1,0,,,,,53,0,53,0,988.4825540000002,,,,,,,,,,,,,,,,,,,,,,,,,,,,,,,,,,,,,,,,,,,,,,,,,,,,,,,,,Fernseher,2.688,988.4673958000003,988.4679631000008,988.4680649000002,988.4825540000002,991.1822370000009,991.1669846000004,991.1705302,991.1822370000009,991.1822370000009,991.1822370000009,991.1822370000009,993.1823577000005,993.1823577000005,993.1823577000005,993.1823577000005,993.1665672000008,3,1.0926360000003115,0.21631870000055642,None,,,,,,,,,,,,,,,,,,,,,,1228,1,2025-10-10_12h15.30.346,sm,2024.2.4,59.95473417564128,2025-10-10 12h15.42.212473 +0200,
54,0,54,,,,,,space,9.156866600000285,None,None,2,0.8198337000003448,0.18489520000002813,None,0,0,0,0,,,,,1,0,1,0,,,,,54,0,54,0,993.1823577000005,,,,,,,,,,,,,,,,,,,,,,,,,,,,,,,,,,,,,,,,,,,,,,,,,,,,,,,,,Klempner,2.7336,993.1670723000007,993.1675756000004,993.1676783000003,993.1823577000005,995.9152834000006,995.8998832000007,995.9037005,995.9152834000006,995.9152834000006,995.9152834000006,995.9152834000006,997.9154793000007,997.9154793000007,997.9154793000007,997.9154793000007,997.8998086000001,2,0.8198337000003448,0.18489520000002813,None,,,,,,,,,,,,,,,,,,,,,,1228,1,2025-10-10_12h15.30.346,sm,2024.2.4,59.95473417564128,2025-10-10 12h15.42.212473 +0200,
55,0,55,,,,,,space,9.156866600000285,None,None,2,0.896725399999923,0.20040779999999359,None,0,0,0,0,,,,,1,0,1,0,,,,,55,0,55,0,997.9154793000007,,,,,,,,,,,,,,,,,,,,,,,,,,,,,,,,,,,,,,,,,,,,,,,,,,,,,,,,,Schulter,2.393,997.9003094000009,997.9008320000003,997.9009353000001,997.9154793000007,1000.3149817000003,1000.2993133000009,1000.3030937000003,1000.3149817000003,1000.3149817000003,1000.3149817000003,1000.3149817000003,1002.3150683000003,1002.3150683000003,1002.3150683000003,1002.3150683000003,1002.2997645000005,2,0.896725399999923,0.20040779999999359,None,,,,,,,,,,,,,,,,,,,,,,1228,1,2025-10-10_12h15.30.346,sm,2024.2.4,59.95473417564128,2025-10-10 12h15.42.212473 +0200,
56,0,56,,,,,,space,9.156866600000285,None,None,3,0.9003690999998071,0.2653872999999294,None,0,0,0,0,,,,,1,0,1,0,,,,,56,0,56,0,1002.3150683000003,,,,,,,,,,,,,,,,,,,,,,,,,,,,,,,,,,,,,,,,,,,,,,,,,,,,,,,,,Applaus,2.076,1002.3002704,1002.3007788000004,1002.3008823,1002.3150683000003,1004.3980770000007,1004.3828580000009,1004.3866004000001,1004.3980770000007,1004.3980770000007,1004.3980770000007,1004.3980770000007,1006.3981250000006,1006.3981250000006,1006.3981250000006,1006.3981250000006,1006.3825345000005,3,0.9003690999998071,0.2653872999999294,None,,,,,,,,,,,,,,,,,,,,,,1228,1,2025-10-10_12h15.30.346,sm,2024.2.4,59.95473417564128,2025-10-10 12h15.42.212473 +0200,
57,0,57,,,,,,space,9.156866600000285,None,None,2,0.7357869999996183,0.19258280000030936,None,0,0,0,0,,,,,1,0,1,0,,,,,57,0,57,0,1006.3981250000006,,,,,,,,,,,,,,,,,,,,,,,,,,,,,,,,,,,,,,,,,,,,,,,,,,,,,,,,,Ziege,2.2417,1006.3830336000001,1006.3836050000009,1006.3837123000003,1006.3981250000006,1008.6480683000009,1008.6325965000005,1008.6363631000004,1008.6480683000009,1008.6480683000009,1008.6480683000009,1008.6480683000009,1010.6477563000008,1010.6477563000008,1010.6477563000008,1010.6477563000008,1010.6321709000003,2,0.7357869999996183,0.19258280000030936,None,,,,,,,,,,,,,,,,,,,,,,1228,1,2025-10-10_12h15.30.346,sm,2024.2.4,59.95473417564128,2025-10-10 12h15.42.212473 +0200,
58,0,58,,,,,,space,9.156866600000285,None,None,3,1.0831440000001749,0.20068999999966763,None,0,0,0,0,,,,,1,0,1,0,,,,,58,0,58,0,1010.6477563000008,,,,,,,,,,,,,,,,,,,,,,,,,,,,,,,,,,,,,,,,,,,,,,,,,,,,,,,,,Wissen,2.0231,1010.6326374,1010.6332062000001,1010.6333074000004,1010.6477563000008,1012.6810292,1012.6653455000005,1012.6694467000007,1012.6810292,1012.6810292,1012.6810292,1012.6810292,1014.6810353000001,1014.6810353000001,1014.6810353000001,1014.6810353000001,1014.6654406000007,3,1.0831440000001749,0.20068999999966763,None,,,,,,,,,,,,,,,,,,,,,,1228,1,2025-10-10_12h15.30.346,sm,2024.2.4,59.95473417564128,2025-10-10 12h15.42.212473 +0200,
59,0,59,,,,,,space,9.156866600000285,None,None,3,0.9164268000004085,0.2604230999995707,None,0,0,0,0,,,,,1,0,1,0,,,,,59,0,59,0,1014.6810353000001,,,,,,,,,,,,,,,,,,,,,,,,,,,,,,,,,,,,,,,,,,,,,,,,,,,,,,,,,Geschichte,4.2593,1014.6659388000007,1014.6664854,1014.6665985000009,1014.6810353000001,1018.9473982000009,1018.9317599000005,1018.9362316000006,1018.9473982000009,1018.9473982000009,1018.9473982000009,1018.9473982000009,1020.9474494000006,1020.9474494000006,1020.9474494000006,1020.9474494000006,1020.9318815000006,3,0.9164268000004085,0.2604230999995707,None,,,,,,,,,,,,,,,,,,,,,,1228,1,2025-10-10_12h15.30.346,sm,2024.2.4,59.95473417564128,2025-10-10 12h15.42.212473 +0200,
60,0,60,,,,,,space,9.156866600000285,None,None,3,0.6788102000000436,0.20562279999921884,None,0,0,0,0,,,,,1,0,1,0,,,,,60,0,60,0,1020.9474494000006,,,,,,,,,,,,,,,,,,,,,,,,,,,,,,,,,,,,,,,,,,,,,,,,,,,,,,,,,Sprache,2.2113,1020.9323798000005,1020.9328864000008,1020.9329915000008,1020.9474494000006,1023.1634186000001,1023.1479436000009,1023.1513599000009,1023.1634186000001,1023.1634186000001,1023.1634186000001,1023.1634186000001,1025.1636902,1025.1636902,1025.1636902,1025.1636902,1025.1482006000006,3,0.6788102000000436,0.20562279999921884,None,,,,,,,,,,,,,,,,,,,,,,1228,1,2025-10-10_12h15.30.346,sm,2024.2.4,59.95473417564128,2025-10-10 12h15.42.212473 +0200,
61,0,61,,,,,,space,9.156866600000285,None,None,2,0.6964294999997946,0.16614649999974063,None,0,0,0,0,,,,,1,0,1,0,,,,,61,0,61,0,1025.1636902,,,,,,,,,,,,,,,,,,,,,,,,,,,,,,,,,,,,,,,,,,,,,,,,,,,,,,,,,Apfel,2.3928,1025.1486979000001,1025.1494195000005,1025.1495280000008,1025.1636902,1027.5632792000006,1027.5476443000007,1027.5510443000003,1027.5632792000006,1027.5632792000006,1027.5632792000006,1027.5632792000006,1029.5633397000001,1029.5633397000001,1029.5633397000001,1029.5633397000001,1029.5479738000004,2,0.6964294999997946,0.16614649999974063,None,,,,,,,,,,,,,,,,,,,,,,1228,1,2025-10-10_12h15.30.346,sm,2024.2.4,59.95473417564128,2025-10-10 12h15.42.212473 +0200,
62,0,62,,,,,,space,9.156866600000285,None,None,3,1.1494644000003973,0.2366812000000209,None,0,0,0,0,,,,,1,0,1,0,,,,,62,0,62,0,1029.5633397000001,,,,,,,,,,,,,,,,,,,,,,,,,,,,,,,,,,,,,,,,,,,,,,,,,,,,,,,,,Schnorchel,2.7735,1029.5484698,1029.5489850000004,1029.5490885000008,1029.5633397000001,1032.3467070000006,1032.3311645000003,1032.3355495000005,1032.3467070000006,1032.3467070000006,1032.3467070000006,1032.3467070000006,1034.3466641000005,1034.3466641000005,1034.3466641000005,1034.3466641000005,1034.331099000001,3,1.1494644000003973,0.2366812000000209,None,,,,,,,,,,,,,,,,,,,,,,1228,1,2025-10-10_12h15.30.346,sm,2024.2.4,59.95473417564128,2025-10-10 12h15.42.212473 +0200,
