thisN,thisTrialN,thisRepN,Cue,Target,Mediator1,Mediator2,iti,scanner_ready_press.keys,scanner_ready_press.rt,scanner_ready_press.duration,skip_trigger.keys,living_nonliving.keys,living_nonliving.rt,living_nonliving.duration,end_mapping.keys,blocks.thisRepN,blocks.thisTrialN,blocks.thisN,blocks.thisIndex,load_and_shuffle.thisRepN,load_and_shuffle.thisTrialN,load_and_shuffle.thisN,load_and_shuffle.thisIndex,runs.thisRepN,runs.thisTrialN,runs.thisN,runs.thisIndex,iti_loading_loop.thisRepN,iti_loading_loop.thisTrialN,iti_loading_loop.thisN,iti_loading_loop.thisIndex,semantic_mapping_run.thisRepN,semantic_mapping_run.thisTrialN,semantic_mapping_run.thisN,semantic_mapping_run.thisIndex,thisRow.t,notes,welcome.started,welcome_text.started,key_resp__welcome.started,welcome.stopped,key_resp__welcome.keys,key_resp__welcome.rt,key_resp__welcome.duration,scout.started,scout_text.started,key_resp.started,scout.stopped,key_resp.keys,key_resp.rt,key_resp.duration,instructions_semantic_mapping1.started,sm_instructions1_text.started,sm_instructions1_key.started,instructions_semantic_mapping1.stopped,sm_instructions1_key.keys,sm_instructions1_key.rt,sm_instructions1_key.duration,instructions_semantic_mapping2.started,sm_instructions2_text.started,sm_instructions2_key.started,instructions_semantic_mapping2.stopped,sm_instructions2_key.keys,sm_instructions2_key.rt,sm_instructions2_key.duration,reset_run.started,reset_run.stopped,shuffle_items.started,shuffle_items.stopped,set_up_runs.started,set_up_runs.stopped,load_iti.started,load_iti.stopped,prep_scanner.started,scanner_ready_press.started,ready_set_text.started,prep_scanner.stopped,runs.scanner_ready_press.keys,runs.scanner_ready_press.rt,runs.scanner_ready_press.duration,wait_for_trigger.started,starting_soon.started,skip_trigger.started,wait_for_trigger.stopped,runs.skip_trigger.keys,blank.started,begin_end_run_cross.started,sound_1.started,sound_1.stopped,sound_2.started,sound_2.stopped,begin_end_run_cross.stopped,blank.stopped,CurrentItem,CurrentITI,set_up_trial.started,set_up_trial.stopped,sm_iti.started,iti_cross.started,iti_cross.stopped,sm_iti.stopped,item.started,living_nonliving.started,end_mapping.started,living_nonliving_text.started,semantic_map_item.started,living_nonliving.stopped,end_mapping.stopped,living_nonliving_text.stopped,semantic_map_item.stopped,item.stopped,semantic_mapping_run.living_nonliving.keys,semantic_mapping_run.living_nonliving.rt,semantic_mapping_run.living_nonliving.duration,semantic_mapping_run.end_mapping.keys,fieldmap.started,fieldmap.stopped,runs.fm_key.keys,task_break.started,feeback_text.started,task_break_text.started,task_break_resp.started,feeback_text.stopped,task_break.stopped,runs.task_break_resp.keys,runs.task_break_resp.rt,runs.task_break_resp.duration,fm_text.started,fm_key.started,runs.fm_key.rt,runs.fm_key.duration,thanks.started,thanks_text.started,thanks_text.stopped,thanks.stopped,PID,MRI,date,expName,psychopyVersion,frameRate,expStart,
,,,,,,,,,,,,,,,,,,,,,,,,,,,,,,,,,,,,,,0.003665200000796176,0.01457600000048842,0.01457600000048842,587.7163679000005,space,587.6857884000001,None,,,,,,,,,,,,,,,,,,,,,,,,,,,,,,,,,,,,,,,,,,,,,,,,,,,,,,,,,,,,,,,,,,,,,,,,,,,,,,,,,,,,,,,,,,,,1771,1,2025-10-28_13h59.04.988,sm,2024.2.4,59.91906133210517,2025-10-28 13h59.15.069785 +0100,
,,,,,,,,,,,,,,,,,,,,,,,,,,,,,,,,,,,,,,,,,,,,,587.7165068000004,587.7311774,587.7311774,655.3792289000003,space,67.6339410999999,None,,,,,,,,,,,,,,,,,,,,,,,,,,,,,,,,,,,,,,,,,,,,,,,,,,,,,,,,,,,,,,,,,,,,,,,,,,,,,,,,,,,,,1771,1,2025-10-28_13h59.04.988,sm,2024.2.4,59.91906133210517,2025-10-28 13h59.15.069785 +0100,
,,,,,,,,,,,,,,,,,,,,,,,,,,,,,,,,,,,,,,,,,,,,,,,,,,,,655.3793443000004,655.3940398000004,655.3940398000004,663.8099416000005,2,8.407454199999847,None,,,,,,,,,,,,,,,,,,,,,,,,,,,,,,,,,,,,,,,,,,,,,,,,,,,,,,,,,,,,,,,,,,,,,,,,,,,,,,1771,1,2025-10-28_13h59.04.988,sm,2024.2.4,59.91906133210517,2025-10-28 13h59.15.069785 +0100,
,,,,,,,,,,,,,,,,,,,,,,,,,,,,,,,,,,,,,,,,,,,,,,,,,,,,,,,,,,,663.8100474000003,663.8250506000004,663.8250506000004,674.4592915000003,2,10.62057249999998,None,,,,,,,,,,,,,,,,,,,,,,,,,,,,,,,,,,,,,,,,,,,,,,,,,,,,,,,,,,,,,,,,,,,,,,,1771,1,2025-10-28_13h59.04.988,sm,2024.2.4,59.91906133210517,2025-10-28 13h59.15.069785 +0100,
0,0,0,Wurm,Schleim,Loch,Erde,3.4199,space,16.725851000000148,None,None,2,1.347521499999857,0.2622852000004059,None,0,0,0,0,0,79,79,17,0,0,0,0,0,79,79,27,0,0,0,0,750.0048855000005,,,,,,,,,,,,,,,,,,,,,,,,,,,,,,674.4603089000002,674.4612616000004,674.5286946000006,674.5289534000003,674.5335392000006,674.5338125000007,674.5634712000001,674.5636572000003,674.5701820000004,674.5740571000006,674.5740571000006,691.3103663000002,space,16.725851000000148,None,691.3105229000003,691.3252635000008,691.3252635000008,737.9888157000005,None,737.9976165000007,738.0057917000004,738.0041531666668,739.2071184000006,747.9886154666667,748.9972299000001,750.0048855000005,749.9893753000006,Atem,3.4199,749.9906881000006,749.9913914000008,749.9943853000004,750.0048855000005,753.4379950000002,753.4224703,753.425921,753.4379950000002,753.4379950000002,753.4379950000002,753.4379950000002,755.4382340000002,755.4382340000002,755.4382340000002,755.4382340000002,755.4226882000003,2,1.347521499999857,0.2622852000004059,None,,,,,,,,,,,,,,,,,,,,,1771,1,2025-10-28_13h59.04.988,sm,2024.2.4,59.91906133210517,2025-10-28 13h59.15.069785 +0100,
1,0,1,,,,,,space,16.725851000000148,None,None,3,1.1502692999993087,0.23343430000022636,None,0,0,0,0,,,,,0,0,0,0,,,,,1,0,1,0,755.4382340000002,,,,,,,,,,,,,,,,,,,,,,,,,,,,,,,,,,,,,,,,,,,,,,,,,,,,,,,,,,Rebe,2.1825,755.4232083000006,755.4237412000002,755.4238446000008,755.4382340000002,757.6213023,757.6058182000006,757.6092921000009,757.6213023,757.6213023,757.6213023,757.6213023,759.6211918000008,759.6211918000008,759.6211918000008,759.6211918000008,759.6057556000005,3,1.1502692999993087,0.23343430000022636,None,,,,,,,,,,,,,,,,,,,,,1771,1,2025-10-28_13h59.04.988,sm,2024.2.4,59.91906133210517,2025-10-28 13h59.15.069785 +0100,
2,0,2,,,,,,space,16.725851000000148,None,None,3,1.2023394999996526,0.2541711000003488,None,0,0,0,0,,,,,0,0,0,0,,,,,2,0,2,0,759.6211918000008,,,,,,,,,,,,,,,,,,,,,,,,,,,,,,,,,,,,,,,,,,,,,,,,,,,,,,,,,,Dorn,2.0863,759.6062663000002,759.6067812000001,759.6068918000001,759.6211918000008,761.7209604,761.7051124000009,761.7089591000004,761.7209604,761.7209604,761.7209604,761.7209604,763.7211224000002,763.7211224000002,763.7211224000002,763.7211224000002,763.7054069000005,3,1.2023394999996526,0.2541711000003488,None,,,,,,,,,,,,,,,,,,,,,1771,1,2025-10-28_13h59.04.988,sm,2024.2.4,59.91906133210517,2025-10-28 13h59.15.069785 +0100,
3,0,3,,,,,,space,16.725851000000148,None,None,3,1.2418877999998585,0.28471129999979894,None,0,0,0,0,,,,,0,0,0,0,,,,,3,0,3,0,763.7211224000002,,,,,,,,,,,,,,,,,,,,,,,,,,,,,,,,,,,,,,,,,,,,,,,,,,,,,,,,,,Asche,2.1274,763.7058550000002,763.7063960000005,763.7064912000005,763.7211224000002,765.8538663000008,765.8386707,765.8427619000004,765.8538663000008,765.8538663000008,765.8538663000008,765.8538663000008,767.8540496000005,767.8540496000005,767.8540496000005,767.8540496000005,767.8388501000009,3,1.2418877999998585,0.28471129999979894,None,,,,,,,,,,,,,,,,,,,,,1771,1,2025-10-28_13h59.04.988,sm,2024.2.4,59.91906133210517,2025-10-28 13h59.15.069785 +0100,
4,0,4,,,,,,space,16.725851000000148,None,None,3,1.0455484000003707,0.25508819999959087,None,0,0,0,0,,,,,0,0,0,0,,,,,4,0,4,0,767.8540496000005,,,,,,,,,,,,,,,,,,,,,,,,,,,,,,,,,,,,,,,,,,,,,,,,,,,,,,,,,,Anruf,3.5964,767.8393798000006,767.8400632000003,767.8401757000001,767.8540496000005,771.4537556000005,771.4381045,771.4417355000005,771.4537556000005,771.4537556000005,771.4537556000005,771.4537556000005,773.4538944000005,773.4538944000005,773.4538944000005,773.4538944000005,773.4382995000005,3,1.0455484000003707,0.25508819999959087,None,,,,,,,,,,,,,,,,,,,,,1771,1,2025-10-28_13h59.04.988,sm,2024.2.4,59.91906133210517,2025-10-28 13h59.15.069785 +0100,
5,0,5,,,,,,space,16.725851000000148,None,None,3,1.53448280000066,0.24632609999935084,None,0,0,0,0,,,,,0,0,0,0,,,,,5,0,5,0,773.4538944000005,,,,,,,,,,,,,,,,,,,,,,,,,,,,,,,,,,,,,,,,,,,,,,,,,,,,,,,,,,Krieg,2.5282,773.4388088000005,773.4393228000008,773.439429,773.4538944000005,775.9866446000005,775.9713324000004,775.9773196000006,775.9866446000005,775.9866446000005,775.9866446000005,775.9866446000005,777.9868409000001,777.9868409000001,777.9868409000001,777.9868409000001,777.9711976000008,3,1.53448280000066,0.24632609999935084,None,,,,,,,,,,,,,,,,,,,,,1771,1,2025-10-28_13h59.04.988,sm,2024.2.4,59.91906133210517,2025-10-28 13h59.15.069785 +0100,
6,0,6,,,,,,space,16.725851000000148,None,None,2,1.3482620000004317,0.22539830000005168,None,0,0,0,0,,,,,0,0,0,0,,,,,6,0,6,0,777.9868409000001,,,,,,,,,,,,,,,,,,,,,,,,,,,,,,,,,,,,,,,,,,,,,,,,,,,,,,,,,,Knöchel,2.7586,777.9717029000003,777.9722008000008,777.9723113,777.9868409000001,780.7530603000005,780.7375511,780.7414913000002,780.7530603000005,780.7530603000005,780.7530603000005,780.7530603000005,782.7533604,782.7533604,782.7533604,782.7533604,782.7376444000001,2,1.3482620000004317,0.22539830000005168,None,,,,,,,,,,,,,,,,,,,,,1771,1,2025-10-28_13h59.04.988,sm,2024.2.4,59.91906133210517,2025-10-28 13h59.15.069785 +0100,
7,0,7,,,,,,space,16.725851000000148,None,None,3,0.8362497999996776,0.2662419999996928,None,0,0,0,0,,,,,0,0,0,0,,,,,7,0,7,0,782.7533604,,,,,,,,,,,,,,,,,,,,,,,,,,,,,,,,,,,,,,,,,,,,,,,,,,,,,,,,,,Krone,2.1952,782.7381546000006,782.7386734000002,782.7387874000005,782.7533604,784.9529580000008,784.9373193000001,784.9411273000005,784.9529580000008,784.9529580000008,784.9529580000008,784.9529580000008,786.953434,786.953434,786.953434,786.953434,786.9374629000004,3,0.8362497999996776,0.2662419999996928,None,,,,,,,,,,,,,,,,,,,,,1771,1,2025-10-28_13h59.04.988,sm,2024.2.4,59.91906133210517,2025-10-28 13h59.15.069785 +0100,
8,0,8,,,,,,space,16.725851000000148,None,None,2,1.0746407999995427,0.22564430000056745,None,0,0,0,0,,,,,0,0,0,0,,,,,8,0,8,0,786.953434,,,,,,,,,,,,,,,,,,,,,,,,,,,,,,,,,,,,,,,,,,,,,,,,,,,,,,,,,,Student,2.1326,786.9379703000004,786.9385492000001,786.9386586,786.953434,789.0860619000005,789.0708048000006,789.0757564000005,789.0860619000005,789.0860619000005,789.0860619000005,789.0860619000005,791.0860397000006,791.0860397000006,791.0860397000006,791.0860397000006,791.0704558000007,2,1.0746407999995427,0.22564430000056745,None,,,,,,,,,,,,,,,,,,,,,1771,1,2025-10-28_13h59.04.988,sm,2024.2.4,59.91906133210517,2025-10-28 13h59.15.069785 +0100,
9,0,9,,,,,,space,16.725851000000148,None,None,2,0.8318239000000176,0.21530359999997017,None,0,0,0,0,,,,,0,0,0,0,,,,,9,0,9,0,791.0860397000006,,,,,,,,,,,,,,,,,,,,,,,,,,,,,,,,,,,,,,,,,,,,,,,,,,,,,,,,,,Gruppe,3.6689,791.0709670000006,791.0716024000003,791.0717102000008,791.0860397000006,794.7691657000005,794.7536204000007,794.7578932000006,794.7691657000005,794.7691657000005,794.7691657000005,794.7691657000005,796.7691998,796.7691998,796.7691998,796.7691998,796.7535068000007,2,0.8318239000000176,0.21530359999997017,None,,,,,,,,,,,,,,,,,,,,,1771,1,2025-10-28_13h59.04.988,sm,2024.2.4,59.91906133210517,2025-10-28 13h59.15.069785 +0100,
10,0,10,,,,,,space,16.725851000000148,None,None,2,0.6651570999993055,0.2005462000006446,None,0,0,0,0,,,,,0,0,0,0,,,,,10,0,10,0,796.7691998,,,,,,,,,,,,,,,,,,,,,,,,,,,,,,,,,,,,,,,,,,,,,,,,,,,,,,,,,,Geschwister,3.1687,796.7540109000001,796.7545766000003,796.7546815000005,796.7691998,799.9521640000003,799.9366347000005,799.9413534000005,799.9521640000003,799.9521640000003,799.9521640000003,799.9521640000003,801.9520213000005,801.9520213000005,801.9520213000005,801.9520213000005,801.9369538000001,2,0.6651570999993055,0.2005462000006446,None,,,,,,,,,,,,,,,,,,,,,1771,1,2025-10-28_13h59.04.988,sm,2024.2.4,59.91906133210517,2025-10-28 13h59.15.069785 +0100,
11,0,11,,,,,,space,16.725851000000148,None,None,3,1.113771999999699,0.24698429999989457,None,0,0,0,0,,,,,0,0,0,0,,,,,11,0,11,0,801.9520213000005,,,,,,,,,,,,,,,,,,,,,,,,,,,,,,,,,,,,,,,,,,,,,,,,,,,,,,,,,,Schwung,2.3672,801.9374661000002,801.9379693000001,801.9380727000007,801.9520213000005,804.3186977000005,804.3032459000005,804.3075044000007,804.3186977000005,804.3186977000005,804.3186977000005,804.3186977000005,806.3184338000001,806.3184338000001,806.3184338000001,806.3184338000001,806.3030055000008,3,1.113771999999699,0.24698429999989457,None,,,,,,,,,,,,,,,,,,,,,1771,1,2025-10-28_13h59.04.988,sm,2024.2.4,59.91906133210517,2025-10-28 13h59.15.069785 +0100,
12,0,12,,,,,,space,16.725851000000148,None,None,3,0.9757047000002785,0.26238089999969816,None,0,0,0,0,,,,,0,0,0,0,,,,,12,0,12,0,806.3184338000001,,,,,,,,,,,,,,,,,,,,,,,,,,,,,,,,,,,,,,,,,,,,,,,,,,,,,,,,,,Sendung,2.3396,806.3035230000005,806.3041589000004,806.3042689000004,806.3184338000001,808.6683703000008,808.6527821,808.6568255000002,808.6683703000008,808.6683703000008,808.6683703000008,808.6683703000008,810.6683807000009,810.6683807000009,810.6683807000009,810.6683807000009,810.6528905000005,3,0.9757047000002785,0.26238089999969816,None,,,,,,,,,,,,,,,,,,,,,1771,1,2025-10-28_13h59.04.988,sm,2024.2.4,59.91906133210517,2025-10-28 13h59.15.069785 +0100,
13,0,13,,,,,,space,16.725851000000148,None,None,2,1.1125686000004862,0.2538822999995318,None,0,0,0,0,,,,,0,0,0,0,,,,,13,0,13,0,810.6683807000009,,,,,,,,,,,,,,,,,,,,,,,,,,,,,,,,,,,,,,,,,,,,,,,,,,,,,,,,,,Weinen,3.2035,810.6533954000006,810.6539229,810.6540297000001,810.6683807000009,813.8849415000004,813.8690353000002,813.8726030000007,813.8849415000004,813.8849415000004,813.8849415000004,813.8849415000004,815.8845917000008,815.8845917000008,815.8845917000008,815.8845917000008,815.8691850000005,2,1.1125686000004862,0.2538822999995318,None,,,,,,,,,,,,,,,,,,,,,1771,1,2025-10-28_13h59.04.988,sm,2024.2.4,59.91906133210517,2025-10-28 13h59.15.069785 +0100,
14,0,14,,,,,,space,16.725851000000148,None,None,3,0.8304620999997496,0.393946600000163,None,0,0,0,0,,,,,0,0,0,0,,,,,14,0,14,0,815.8845917000008,,,,,,,,,,,,,,,,,,,,,,,,,,,,,,,,,,,,,,,,,,,,,,,,,,,,,,,,,,Fahrrad,3.0044,815.8696957000002,815.8702240000002,815.8703298,815.8845917000008,818.9008643000006,818.8857756000007,818.8928910000004,818.9008643000006,818.9008643000006,818.9008643000006,818.9008643000006,820.9010445000004,820.9010445000004,820.9010445000004,820.9010445000004,820.8859674000005,3,0.8304620999997496,0.393946600000163,None,,,,,,,,,,,,,,,,,,,,,1771,1,2025-10-28_13h59.04.988,sm,2024.2.4,59.91906133210517,2025-10-28 13h59.15.069785 +0100,
15,0,15,,,,,,space,16.725851000000148,None,None,2,0.7638077000001431,0.20125579999967158,None,0,0,0,0,,,,,0,0,0,0,,,,,15,0,15,0,820.9010445000004,,,,,,,,,,,,,,,,,,,,,,,,,,,,,,,,,,,,,,,,,,,,,,,,,,,,,,,,,,Blut,2.123,820.8864771000008,820.8869899000001,820.8870933000007,820.9010445000004,823.0342877000003,823.018728,823.0220994000001,823.0342877000003,823.0342877000003,823.0342877000003,823.0342877000003,825.0343301000003,825.0343301000003,825.0343301000003,825.0343301000003,825.0185318000003,2,0.7638077000001431,0.20125579999967158,None,,,,,,,,,,,,,,,,,,,,,1771,1,2025-10-28_13h59.04.988,sm,2024.2.4,59.91906133210517,2025-10-28 13h59.15.069785 +0100,
16,0,16,,,,,,space,16.725851000000148,None,None,2,1.1831938999994236,0.1807957000000897,None,0,0,0,0,,,,,0,0,0,0,,,,,16,0,16,0,825.0343301000003,,,,,,,,,,,,,,,,,,,,,,,,,,,,,,,,,,,,,,,,,,,,,,,,,,,,,,,,,,Feld,2.4888,825.0190074000002,825.0196419000004,825.0197413000005,825.0343301000003,827.5337851000004,827.5182384,827.5214197000005,827.5337851000004,827.5337851000004,827.5337851000004,827.5337851000004,829.5340295000005,829.5340295000005,829.5340295000005,829.5340295000005,829.5184552000001,2,1.1831938999994236,0.1807957000000897,None,,,,,,,,,,,,,,,,,,,,,1771,1,2025-10-28_13h59.04.988,sm,2024.2.4,59.91906133210517,2025-10-28 13h59.15.069785 +0100,
17,0,17,,,,,,space,16.725851000000148,None,None,3,0.7810466999999335,0.23078669999995327,None,0,0,0,0,,,,,0,0,0,0,,,,,17,0,17,0,829.5340295000005,,,,,,,,,,,,,,,,,,,,,,,,,,,,,,,,,,,,,,,,,,,,,,,,,,,,,,,,,,Bild,2.348,829.5189558000002,829.5195498000003,829.5196546000006,829.5340295000005,831.8837137,831.8683542000008,831.8720065000007,831.8837137,831.8837137,831.8837137,831.8837137,833.8841623000008,833.8841623000008,833.8841623000008,833.8841623000008,833.8679764000008,3,0.7810466999999335,0.23078669999995327,None,,,,,,,,,,,,,,,,,,,,,1771,1,2025-10-28_13h59.04.988,sm,2024.2.4,59.91906133210517,2025-10-28 13h59.15.069785 +0100,
18,0,18,,,,,,space,16.725851000000148,None,None,3,1.202530000000479,0.2080127999997785,None,0,0,0,0,,,,,0,0,0,0,,,,,18,0,18,0,833.8841623000008,,,,,,,,,,,,,,,,,,,,,,,,,,,,,,,,,,,,,,,,,,,,,,,,,,,,,,,,,,Gipfel,2.4139,833.8685337000006,833.8691912000004,833.8692995000001,833.8841623000008,836.3000914000004,836.2845395000004,836.2887354000004,836.3000914000004,836.3000914000004,836.3000914000004,836.3000914000004,838.3001427000008,838.3001427000008,838.3001427000008,838.3001427000008,838.2842847000002,3,1.202530000000479,0.2080127999997785,None,,,,,,,,,,,,,,,,,,,,,1771,1,2025-10-28_13h59.04.988,sm,2024.2.4,59.91906133210517,2025-10-28 13h59.15.069785 +0100,
19,0,19,,,,,,space,16.725851000000148,None,None,2,1.0477410000003147,0.19525569999950676,None,0,0,0,0,,,,,0,0,0,0,,,,,19,0,19,0,838.3001427000008,,,,,,,,,,,,,,,,,,,,,,,,,,,,,,,,,,,,,,,,,,,,,,,,,,,,,,,,,,Tanne,3.0121,838.2847974000006,838.2853045000002,838.2854122000008,838.3001427000008,841.3164552000007,841.3010035000007,841.3050382000001,841.3164552000007,841.3164552000007,841.3164552000007,841.3164552000007,843.3164745000004,843.3164745000004,843.3164745000004,843.3164745000004,843.3009357000001,2,1.0477410000003147,0.19525569999950676,None,,,,,,,,,,,,,,,,,,,,,1771,1,2025-10-28_13h59.04.988,sm,2024.2.4,59.91906133210517,2025-10-28 13h59.15.069785 +0100,
20,0,20,,,,,,space,16.725851000000148,None,None,3,1.0147893000003023,0.24844429999939166,None,0,0,0,0,,,,,0,0,0,0,,,,,20,0,20,0,843.3164745000004,,,,,,,,,,,,,,,,,,,,,,,,,,,,,,,,,,,,,,,,,,,,,,,,,,,,,,,,,,Zigarette,3.5038,843.3014355000005,843.3020880000004,843.3021948000005,843.3164745000004,846.8334915000005,846.8169630000002,846.8228884,846.8334915000005,846.8334915000005,846.8334915000005,846.8334915000005,848.8328657000002,848.8328657000002,848.8328657000002,848.8328657000002,848.8173725000006,3,1.0147893000003023,0.24844429999939166,None,,,,,,,,,,,,,,,,,,,,,1771,1,2025-10-28_13h59.04.988,sm,2024.2.4,59.91906133210517,2025-10-28 13h59.15.069785 +0100,
21,0,21,,,,,,space,16.725851000000148,None,None,3,1.4544262999997954,0.22174030000041967,None,0,0,0,0,,,,,0,0,0,0,,,,,21,0,21,0,848.8328657000002,,,,,,,,,,,,,,,,,,,,,,,,,,,,,,,,,,,,,,,,,,,,,,,,,,,,,,,,,,Lied,3.2626,848.8178727000004,848.8184403000005,848.8185471000006,848.8328657000002,852.0992008000003,852.0834177000006,852.0868287000003,852.0992008000003,852.0992008000003,852.0992008000003,852.0992008000003,854.0992700000006,854.0992700000006,854.0992700000006,854.0992700000006,854.0833753000006,3,1.4544262999997954,0.22174030000041967,None,,,,,,,,,,,,,,,,,,,,,1771,1,2025-10-28_13h59.04.988,sm,2024.2.4,59.91906133210517,2025-10-28 13h59.15.069785 +0100,
22,0,22,,,,,,space,16.725851000000148,None,None,3,1.1655949999994846,0.23623880000013742,None,0,0,0,0,,,,,0,0,0,0,,,,,22,0,22,0,854.0992700000006,,,,,,,,,,,,,,,,,,,,,,,,,,,,,,,,,,,,,,,,,,,,,,,,,,,,,,,,,,Auto,4.4384,854.0838865000005,854.0844014000004,854.0845087000007,854.0992700000006,858.5488038000003,858.5333219000004,858.5368127000002,858.5488038000003,858.5488038000003,858.5488038000003,858.5488038000003,860.5489833000001,860.5489833000001,860.5489833000001,860.5489833000001,860.5331430000006,3,1.1655949999994846,0.23623880000013742,None,,,,,,,,,,,,,,,,,,,,,1771,1,2025-10-28_13h59.04.988,sm,2024.2.4,59.91906133210517,2025-10-28 13h59.15.069785 +0100,
23,0,23,,,,,,space,16.725851000000148,None,None,2,1.2507329999998547,0.22142820000044594,None,0,0,0,0,,,,,0,0,0,0,,,,,23,0,23,0,860.5489833000001,,,,,,,,,,,,,,,,,,,,,,,,,,,,,,,,,,,,,,,,,,,,,,,,,,,,,,,,,,Team,2.2986,860.5336004000001,860.5340815000009,860.5341759000003,860.5489833000001,862.8487499000003,862.8333634,862.8367830000007,862.8487499000003,862.8487499000003,862.8487499000003,862.8487499000003,864.8484475000005,864.8484475000005,864.8484475000005,864.8484475000005,864.8329063000001,2,1.2507329999998547,0.22142820000044594,None,,,,,,,,,,,,,,,,,,,,,1771,1,2025-10-28_13h59.04.988,sm,2024.2.4,59.91906133210517,2025-10-28 13h59.15.069785 +0100,
24,0,24,,,,,,space,16.725851000000148,None,None,3,1.2927947999996832,0.2383417000000918,None,0,0,0,0,,,,,0,0,0,0,,,,,24,0,24,0,864.8484475000005,,,,,,,,,,,,,,,,,,,,,,,,,,,,,,,,,,,,,,,,,,,,,,,,,,,,,,,,,,Weihnachten,4.5336,864.8334139000008,864.8340667000002,864.8341727000006,864.8484475000005,869.3816219,869.3659894000002,869.3703913000008,869.3816219,869.3816219,869.3816219,869.3816219,871.3813912000005,871.3813912000005,871.3813912000005,871.3813912000005,871.3658353000001,3,1.2927947999996832,0.2383417000000918,None,,,,,,,,,,,,,,,,,,,,,1771,1,2025-10-28_13h59.04.988,sm,2024.2.4,59.91906133210517,2025-10-28 13h59.15.069785 +0100,
25,0,25,,,,,,space,16.725851000000148,None,None,3,1.3384762999994564,0.232085200000256,None,0,0,0,0,,,,,0,0,0,0,,,,,25,0,25,0,871.3813912000005,,,,,,,,,,,,,,,,,,,,,,,,,,,,,,,,,,,,,,,,,,,,,,,,,,,,,,,,,,Zimmer,2.5782,871.3663480000005,871.3669327000007,871.3670405000003,871.3813912000005,873.9647802000009,873.9489567,873.9529823000003,873.9647802000009,873.9647802000009,873.9647802000009,873.9647802000009,875.964653,875.964653,875.964653,875.964653,875.9494276000005,3,1.3384762999994564,0.232085200000256,None,,,,,,,,,,,,,,,,,,,,,1771,1,2025-10-28_13h59.04.988,sm,2024.2.4,59.91906133210517,2025-10-28 13h59.15.069785 +0100,
26,0,26,,,,,,space,16.725851000000148,None,None,3,1.0878633000002083,0.21135169999979553,None,0,0,0,0,,,,,0,0,0,0,,,,,26,0,26,0,875.964653,,,,,,,,,,,,,,,,,,,,,,,,,,,,,,,,,,,,,,,,,,,,,,,,,,,,,,,,,,Brise,2.7056,875.9499420000002,875.9504444000004,875.9505511000007,875.964653,878.6811742,878.6651718000003,878.6688920000006,878.6811742,878.6811742,878.6811742,878.6811742,880.6808512000007,880.6808512000007,880.6808512000007,880.6808512000007,880.6653811000006,3,1.0878633000002083,0.21135169999979553,None,,,,,,,,,,,,,,,,,,,,,1771,1,2025-10-28_13h59.04.988,sm,2024.2.4,59.91906133210517,2025-10-28 13h59.15.069785 +0100,
27,0,27,,,,,,space,16.725851000000148,None,None,3,1.3451334999999744,0.21844830000009097,None,0,0,0,0,,,,,0,0,0,0,,,,,27,0,27,0,880.6808512000007,,,,,,,,,,,,,,,,,,,,,,,,,,,,,,,,,,,,,,,,,,,,,,,,,,,,,,,,,,Wohnung,3.7635,880.6658837000004,880.6664089000005,880.6665159000004,880.6808512000007,884.4473277000006,884.4318954,884.436044,884.4473277000006,884.4473277000006,884.4473277000006,884.4473277000006,886.4477681000008,886.4477681000008,886.4477681000008,886.4477681000008,886.4316260000005,3,1.3451334999999744,0.21844830000009097,None,,,,,,,,,,,,,,,,,,,,,1771,1,2025-10-28_13h59.04.988,sm,2024.2.4,59.91906133210517,2025-10-28 13h59.15.069785 +0100,
28,0,28,,,,,,space,16.725851000000148,None,None,None,,,None,0,0,0,0,,,,,0,0,0,0,,,,,28,0,28,0,886.4477681000008,,,,,,,,,,,,,,,,,,,,,,,,,,,,,,,,,,,,,,,,,,,,,,,,,,,,,,,,,,Tube,3.309,886.4321320000008,886.4326434000004,886.4327496000005,886.4477681000008,889.7637836000004,889.7480892000003,889.752399,889.7637836000004,889.7637836000004,889.7637836000004,889.7637836000004,891.7637699000006,891.7637699000006,891.7637699000006,891.7637699000006,891.7481110000008,None,,,None,,,,,,,,,,,,,,,,,,,,,1771,1,2025-10-28_13h59.04.988,sm,2024.2.4,59.91906133210517,2025-10-28 13h59.15.069785 +0100,
29,0,29,,,,,,space,16.725851000000148,None,None,3,0.9023404999998093,0.19826629999988654,None,0,0,0,0,,,,,0,0,0,0,,,,,29,0,29,0,891.7637699000006,,,,,,,,,,,,,,,,,,,,,,,,,,,,,,,,,,,,,,,,,,,,,,,,,,,,,,,,,,Kaffee,2.1217,891.7485851000001,891.7491075000007,891.7492107000007,891.7637699000006,893.8966820000005,893.8813438000006,893.8855908000005,893.8966820000005,893.8966820000005,893.8966820000005,893.8966820000005,895.8967664000002,895.8967664000002,895.8967664000002,895.8967664000002,895.8812411000008,3,0.9023404999998093,0.19826629999988654,None,,,,,,,,,,,,,,,,,,,,,1771,1,2025-10-28_13h59.04.988,sm,2024.2.4,59.91906133210517,2025-10-28 13h59.15.069785 +0100,
30,0,30,,,,,,space,16.725851000000148,None,None,3,1.0826763000004576,0.1703498999995645,None,0,0,0,0,,,,,0,0,0,0,,,,,30,0,30,0,895.8967664000002,,,,,,,,,,,,,,,,,,,,,,,,,,,,,,,,,,,,,,,,,,,,,,,,,,,,,,,,,,Komödie,3.6909,895.8817506000005,895.8822711000003,895.8823780000002,895.8967664000002,899.5964653000001,899.5811254,899.5852243000008,899.5964653000001,899.5964653000001,899.5964653000001,899.5964653000001,901.5966532000002,901.5966532000002,901.5966532000002,901.5966532000002,901.5810532000005,3,1.0826763000004576,0.1703498999995645,None,,,,,,,,,,,,,,,,,,,,,1771,1,2025-10-28_13h59.04.988,sm,2024.2.4,59.91906133210517,2025-10-28 13h59.15.069785 +0100,
31,0,31,,,,,,space,16.725851000000148,None,None,3,1.1404302999999345,0.20544369999970513,None,0,0,0,0,,,,,0,0,0,0,,,,,31,0,31,0,901.5966532000002,,,,,,,,,,,,,,,,,,,,,,,,,,,,,,,,,,,,,,,,,,,,,,,,,,,,,,,,,,Wüste,3.6213,901.5815610000009,901.5820753000007,901.5821815000008,901.5966532000002,905.2294508000004,905.2138781000003,905.2179644000007,905.2294508000004,905.2294508000004,905.2294508000004,905.2294508000004,907.2293470000004,907.2293470000004,907.2293470000004,907.2293470000004,907.2142647000001,3,1.1404302999999345,0.20544369999970513,None,,,,,,,,,,,,,,,,,,,,,1771,1,2025-10-28_13h59.04.988,sm,2024.2.4,59.91906133210517,2025-10-28 13h59.15.069785 +0100,
32,0,32,,,,,,space,16.725851000000148,None,None,2,1.1154484999997294,0.18351780000011786,None,0,0,0,0,,,,,0,0,0,0,,,,,32,0,32,0,907.2293470000004,,,,,,,,,,,,,,,,,,,,,,,,,,,,,,,,,,,,,,,,,,,,,,,,,,,,,,,,,,Löwe,4.4112,907.2147655000008,907.2154400000009,907.2155485000003,907.2293470000004,911.6457248000006,911.6300118000008,911.6332041000005,911.6457248000006,911.6457248000006,911.6457248000006,911.6457248000006,913.6458984000001,913.6458984000001,913.6458984000001,913.6458984000001,913.6300200000005,2,1.1154484999997294,0.18351780000011786,None,,,,,,,,,,,,,,,,,,,,,1771,1,2025-10-28_13h59.04.988,sm,2024.2.4,59.91906133210517,2025-10-28 13h59.15.069785 +0100,
33,0,33,,,,,,space,16.725851000000148,None,None,3,0.9878402000003916,0.2217559999999139,None,0,0,0,0,,,,,0,0,0,0,,,,,33,0,33,0,913.6458984000001,,,,,,,,,,,,,,,,,,,,,,,,,,,,,,,,,,,,,,,,,,,,,,,,,,,,,,,,,,Sterne,3.3064,913.6305382,913.6310491000004,913.6311566000004,913.6458984000001,916.9623729000004,916.9466152000005,916.9503211000001,916.9623729000004,916.9623729000004,916.9623729000004,916.9623729000004,918.9621375000006,918.9621375000006,918.9621375000006,918.9621375000006,918.9465982000002,3,0.9878402000003916,0.2217559999999139,None,,,,,,,,,,,,,,,,,,,,,1771,1,2025-10-28_13h59.04.988,sm,2024.2.4,59.91906133210517,2025-10-28 13h59.15.069785 +0100,
34,0,34,,,,,,space,16.725851000000148,None,None,2,1.2984483000000182,0.19117529999948601,None,0,0,0,0,,,,,0,0,0,0,,,,,34,0,34,0,918.9621375000006,,,,,,,,,,,,,,,,,,,,,,,,,,,,,,,,,,,,,,,,,,,,,,,,,,,,,,,,,,Sumpf,5.4786,918.9471035000006,918.9476264000004,918.9477303000003,918.9621375000006,924.4449444000002,924.4293932,924.4333763000004,924.4449444000002,924.4449444000002,924.4449444000002,924.4449444000002,926.4450467000006,926.4450467000006,926.4450467000006,926.4450467000006,926.4292593,2,1.2984483000000182,0.19117529999948601,None,,,,,,,,,,,,,,,,,,,,,1771,1,2025-10-28_13h59.04.988,sm,2024.2.4,59.91906133210517,2025-10-28 13h59.15.069785 +0100,
35,0,35,,,,,,space,16.725851000000148,None,None,2,1.0253913999995348,0.19259130000045843,None,0,0,0,0,,,,,0,0,0,0,,,,,35,0,35,0,926.4450467000006,,,,,,,,,,,,,,,,,,,,,,,,,,,,,,,,,,,,,,,,,,,,,,,,,,,,,,,,,,Applaus,3.6558,926.4297858,926.4303027000005,926.4304077000006,926.4450467000006,930.1112026000001,930.0956230000002,930.0999466000003,930.1112026000001,930.1112026000001,930.1112026000001,930.1112026000001,932.1111571000001,932.1111571000001,932.1111571000001,932.1111571000001,932.0956693000007,2,1.0253913999995348,0.19259130000045843,None,,,,,,,,,,,,,,,,,,,,,1771,1,2025-10-28_13h59.04.988,sm,2024.2.4,59.91906133210517,2025-10-28 13h59.15.069785 +0100,
36,0,36,,,,,,space,16.725851000000148,None,None,2,0.6931906999998318,0.1924351999996361,None,0,0,0,0,,,,,0,0,0,0,,,,,36,0,36,0,932.1111571000001,,,,,,,,,,,,,,,,,,,,,,,,,,,,,,,,,,,,,,,,,,,,,,,,,,,,,,,,,,Fisch,2.0789,932.0961786000007,932.0968267000007,932.0969315000002,932.1111571000001,934.1941705000008,934.1786711000004,934.1822505,934.1941705000008,934.1941705000008,934.1941705000008,934.1941705000008,936.1942867000007,936.1942867000007,936.1942867000007,936.1942867000007,936.1787099000003,2,0.6931906999998318,0.1924351999996361,None,,,,,,,,,,,,,,,,,,,,,1771,1,2025-10-28_13h59.04.988,sm,2024.2.4,59.91906133210517,2025-10-28 13h59.15.069785 +0100,
37,0,37,,,,,,space,16.725851000000148,None,None,3,1.0402874000001248,0.23532520000026125,None,0,0,0,0,,,,,0,0,0,0,,,,,37,0,37,0,936.1942867000007,,,,,,,,,,,,,,,,,,,,,,,,,,,,,,,,,,,,,,,,,,,,,,,,,,,,,,,,,,Klippe,2.7918,936.1792184000005,936.1798016000002,936.1799152000003,936.1942867000007,938.9949741,938.9790451000008,938.9829790000003,938.9949741,938.9949741,938.9949741,938.9949741,940.9940198000004,940.9940198000004,940.9940198000004,940.9940198000004,940.9789199000006,3,1.0402874000001248,0.23532520000026125,None,,,,,,,,,,,,,,,,,,,,,1771,1,2025-10-28_13h59.04.988,sm,2024.2.4,59.91906133210517,2025-10-28 13h59.15.069785 +0100,
38,0,38,,,,,,space,16.725851000000148,None,None,2,0.6785079999999653,0.19205849999980273,None,0,0,0,0,,,,,0,0,0,0,,,,,38,0,38,0,940.9940198000004,,,,,,,,,,,,,,,,,,,,,,,,,,,,,,,,,,,,,,,,,,,,,,,,,,,,,,,,,,Fuß,2.0765,940.9794305000005,940.9799568000008,940.9800631000007,940.9940198000004,943.0771712000005,943.061506,943.0647927,943.0771712000005,943.0771712000005,943.0771712000005,943.0771712000005,945.0772701000005,945.0772701000005,945.0772701000005,945.0772701000005,945.0617188000006,2,0.6785079999999653,0.19205849999980273,None,,,,,,,,,,,,,,,,,,,,,1771,1,2025-10-28_13h59.04.988,sm,2024.2.4,59.91906133210517,2025-10-28 13h59.15.069785 +0100,
39,0,39,,,,,,space,16.725851000000148,None,None,3,1.0348328000000038,0.20643120000022464,None,0,0,0,0,,,,,0,0,0,0,,,,,39,0,39,0,945.0772701000005,,,,,,,,,,,,,,,,,,,,,,,,,,,,,,,,,,,,,,,,,,,,,,,,,,,,,,,,,,Haare,2.1386,945.0622304000008,945.0627487000002,945.0628539000008,945.0772701000005,947.2271485000001,947.2114013,947.2176581000003,947.2271485000001,947.2271485000001,947.2271485000001,947.2271485000001,949.2272423000004,949.2272423000004,949.2272423000004,949.2272423000004,949.2114118000009,3,1.0348328000000038,0.20643120000022464,None,,,,,,,,,,,,,,,,,,,,,1771,1,2025-10-28_13h59.04.988,sm,2024.2.4,59.91906133210517,2025-10-28 13h59.15.069785 +0100,
40,0,40,,,,,,space,16.725851000000148,None,None,2,0.9902430000001914,0.19031280000035622,None,0,0,0,0,,,,,0,0,0,0,,,,,40,0,40,0,949.2272423000004,,,,,,,,,,,,,,,,,,,,,,,,,,,,,,,,,,,,,,,,,,,,,,,,,,,,,,,,,,Urlaub,3.4314,949.2119134000004,949.2124369000003,949.2125399000006,949.2272423000004,952.6598536000001,952.6447223000005,952.6502635000006,952.6598536000001,952.6598536000001,952.6598536000001,952.6598536000001,954.6599313000006,954.6599313000006,954.6599313000006,954.6599313000006,954.6446444000003,2,0.9902430000001914,0.19031280000035622,None,,,,,,,,,,,,,,,,,,,,,1771,1,2025-10-28_13h59.04.988,sm,2024.2.4,59.91906133210517,2025-10-28 13h59.15.069785 +0100,
41,0,41,,,,,,space,16.725851000000148,None,None,3,0.8359378000004654,0.2283226999998078,None,0,0,0,0,,,,,0,0,0,0,,,,,41,0,41,0,954.6599313000006,,,,,,,,,,,,,,,,,,,,,,,,,,,,,,,,,,,,,,,,,,,,,,,,,,,,,,,,,,Zug,3.5175,954.6451549000003,954.6456698000002,954.6457748000003,954.6599313000006,958.1763135000001,958.1607988000005,958.1650577,958.1763135000001,958.1763135000001,958.1763135000001,958.1763135000001,960.1764129000003,960.1764129000003,960.1764129000003,960.1764129000003,960.1608060000008,3,0.8359378000004654,0.2283226999998078,None,,,,,,,,,,,,,,,,,,,,,1771,1,2025-10-28_13h59.04.988,sm,2024.2.4,59.91906133210517,2025-10-28 13h59.15.069785 +0100,
42,0,42,,,,,,space,16.725851000000148,None,None,3,1.031168899999102,0.3410847000004651,None,0,0,0,0,,,,,0,0,0,0,,,,,42,0,42,0,960.1764129000003,,,,,,,,,,,,,,,,,,,,,,,,,,,,,,,,,,,,,,,,,,,,,,,,,,,,,,,,,,Center,2.6028,960.1613120000002,960.1619659000007,960.1620711000005,960.1764129000003,962.7925633000004,962.7768916000005,962.7834653,962.7925633000004,962.7925633000004,962.7925633000004,962.7925633000004,964.7927650000001,964.7927650000001,964.7927650000001,964.7927650000001,964.7770017000003,3,1.031168899999102,0.3410847000004651,None,,,,,,,,,,,,,,,,,,,,,1771,1,2025-10-28_13h59.04.988,sm,2024.2.4,59.91906133210517,2025-10-28 13h59.15.069785 +0100,
43,0,43,,,,,,space,16.725851000000148,None,None,3,0.8968085000005885,0.19143669999994017,None,0,0,0,0,,,,,0,0,0,0,,,,,43,0,43,0,964.7927650000001,,,,,,,,,,,,,,,,,,,,,,,,,,,,,,,,,,,,,,,,,,,,,,,,,,,,,,,,,,Monument,5.0441,964.7775140000003,964.7780779000004,964.7781832000001,964.7927650000001,969.842498,969.8264908000001,969.8299012000007,969.842498,969.842498,969.842498,969.842498,971.8423595000004,971.8423595000004,971.8423595000004,971.8423595000004,971.8267780000006,3,0.8968085000005885,0.19143669999994017,None,,,,,,,,,,,,,,,,,,,,,1771,1,2025-10-28_13h59.04.988,sm,2024.2.4,59.91906133210517,2025-10-28 13h59.15.069785 +0100,
44,0,44,,,,,,space,16.725851000000148,None,None,3,1.2500028999993447,0.18728210000062973,None,0,0,0,0,,,,,0,0,0,0,,,,,44,0,44,0,971.8423595000004,,,,,,,,,,,,,,,,,,,,,,,,,,,,,,,,,,,,,,,,,,,,,,,,,,,,,,,,,,Keller,2.8902,971.8272873000005,971.8278012000001,971.8279115000005,971.8423595000004,974.7418208000008,974.7264737000005,974.7301957,974.7418208000008,974.7418208000008,974.7418208000008,974.7418208000008,976.7419497000001,976.7419497000001,976.7419497000001,976.7419497000001,976.7267232000004,3,1.2500028999993447,0.18728210000062973,None,,,,,,,,,,,,,,,,,,,,,1771,1,2025-10-28_13h59.04.988,sm,2024.2.4,59.91906133210517,2025-10-28 13h59.15.069785 +0100,
45,0,45,,,,,,space,16.725851000000148,None,None,3,1.049584600000344,0.21210939999946277,None,0,0,0,0,,,,,0,0,0,0,,,,,45,0,45,0,976.7419497000001,,,,,,,,,,,,,,,,,,,,,,,,,,,,,,,,,,,,,,,,,,,,,,,,,,,,,,,,,,Salz,3.5643,976.7272257000004,976.7278828000008,976.7279907000002,976.7419497000001,980.3085761000002,980.2927728000004,980.2964493000009,980.3085761000002,980.3085761000002,980.3085761000002,980.3085761000002,982.3084824000007,982.3084824000007,982.3084824000007,982.3084824000007,982.2929879000003,3,1.049584600000344,0.21210939999946277,None,,,,,,,,,,,,,,,,,,,,,1771,1,2025-10-28_13h59.04.988,sm,2024.2.4,59.91906133210517,2025-10-28 13h59.15.069785 +0100,
46,0,46,,,,,,space,16.725851000000148,None,None,2,0.9241618999994898,0.19119930000033492,None,0,0,0,0,,,,,0,0,0,0,,,,,46,0,46,0,982.3084824000007,,,,,,,,,,,,,,,,,,,,,,,,,,,,,,,,,,,,,,,,,,,,,,,,,,,,,,,,,,Sprache,2.2302,982.2934939000006,982.2940040000003,982.2941095000006,982.3084824000007,984.5416577000005,984.5259839,984.5303553000003,984.5416577000005,984.5416577000005,984.5416577000005,984.5416577000005,986.5419017000004,986.5419017000004,986.5419017000004,986.5419017000004,986.5259846000008,2,0.9241618999994898,0.19119930000033492,None,,,,,,,,,,,,,,,,,,,,,1771,1,2025-10-28_13h59.04.988,sm,2024.2.4,59.91906133210517,2025-10-28 13h59.15.069785 +0100,
47,0,47,,,,,,space,16.725851000000148,None,None,3,0.844017100000201,0.1821380000001227,None,0,0,0,0,,,,,0,0,0,0,,,,,47,0,47,0,986.5419017000004,,,,,,,,,,,,,,,,,,,,,,,,,,,,,,,,,,,,,,,,,,,,,,,,,,,,,,,,,,Tisch,2.3833,986.5264926,986.5269915000008,986.5271013000001,986.5419017000004,988.9244986000003,988.9088813000008,988.9134437000002,988.9244986000003,988.9244986000003,988.9244986000003,988.9244986000003,990.9246183000005,990.9246183000005,990.9246183000005,990.9246183000005,990.9089964000004,3,0.844017100000201,0.1821380000001227,None,,,,,,,,,,,,,,,,,,,,,1771,1,2025-10-28_13h59.04.988,sm,2024.2.4,59.91906133210517,2025-10-28 13h59.15.069785 +0100,
48,0,48,,,,,,space,16.725851000000148,None,None,2,1.3004223999996611,0.16359620000002906,None,0,0,0,0,,,,,0,0,0,0,,,,,48,0,48,0,990.9246183000005,,,,,,,,,,,,,,,,,,,,,,,,,,,,,,,,,,,,,,,,,,,,,,,,,,,,,,,,,,Film,2.8989,990.9095046000002,990.9100288000009,990.9101375,990.9246183000005,993.8241729000001,993.8087615000004,993.8125315000007,993.8241729000001,993.8241729000001,993.8241729000001,993.8241729000001,995.8242593000004,995.8242593000004,995.8242593000004,995.8242593000004,995.8090570000004,2,1.3004223999996611,0.16359620000002906,None,,,,,,,,,,,,,,,,,,,,,1771,1,2025-10-28_13h59.04.988,sm,2024.2.4,59.91906133210517,2025-10-28 13h59.15.069785 +0100,
49,0,49,,,,,,space,16.725851000000148,None,None,3,1.1896964999996271,0.21075480000035896,None,0,0,0,0,,,,,0,0,0,0,,,,,49,0,49,0,995.8242593000004,,,,,,,,,,,,,,,,,,,,,,,,,,,,,,,,,,,,,,,,,,,,,,,,,,,,,,,,,,Käse,2.6963,995.8095691000008,995.8100920000006,995.8101983000006,995.8242593000004,998.5241359000001,998.5084168000003,998.5118920000004,998.5241359000001,998.5241359000001,998.5241359000001,998.5241359000001,1000.5241583000006,1000.5241583000006,1000.5241583000006,1000.5241583000006,1000.5088219000008,3,1.1896964999996271,0.21075480000035896,None,,,,,,,,,,,,,,,,,,,,,1771,1,2025-10-28_13h59.04.988,sm,2024.2.4,59.91906133210517,2025-10-28 13h59.15.069785 +0100,
50,0,50,,,,,,space,16.725851000000148,None,None,3,0.883150000000569,0.21844569999939267,None,0,0,0,0,,,,,0,0,0,0,,,,,50,0,50,0,1000.5241583000006,,,,,,,,,,,,,,,,,,,,,,,,,,,,,,,,,,,,,,,,,,,,,,,,,,,,,,,,,,Sack,2.2957,1000.5093473000006,1000.5099888000004,1000.5101035000007,1000.5241583000006,1002.8237328000005,1002.8085078000004,1002.8118181,1002.8237328000005,1002.8237328000005,1002.8237328000005,1002.8237328000005,1004.8237611000004,1004.8237611000004,1004.8237611000004,1004.8237611000004,1004.8083404000008,3,0.883150000000569,0.21844569999939267,None,,,,,,,,,,,,,,,,,,,,,1771,1,2025-10-28_13h59.04.988,sm,2024.2.4,59.91906133210517,2025-10-28 13h59.15.069785 +0100,
51,0,51,,,,,,space,16.725851000000148,None,None,2,0.8721571000005497,0.16815889999998035,None,0,0,0,0,,,,,0,0,0,0,,,,,51,0,51,0,1004.8237611000004,,,,,,,,,,,,,,,,,,,,,,,,,,,,,,,,,,,,,,,,,,,,,,,,,,,,,,,,,,Orange,2.6539,1004.8088491000008,1004.8093600000002,1004.8094657000001,1004.8237611000004,1007.4900382000005,1007.4745265000001,1007.4809126,1007.4900382000005,1007.4900382000005,1007.4900382000005,1007.4900382000005,1009.4900377000004,1009.4900377000004,1009.4900377000004,1009.4900377000004,1009.4745091000004,2,0.8721571000005497,0.16815889999998035,None,,,,,,,,,,,,,,,,,,,,,1771,1,2025-10-28_13h59.04.988,sm,2024.2.4,59.91906133210517,2025-10-28 13h59.15.069785 +0100,
52,0,52,,,,,,space,16.725851000000148,None,None,2,1.0544577999999092,0.17114000000037777,None,0,0,0,0,,,,,0,0,0,0,,,,,52,0,52,0,1009.4900377000004,,,,,,,,,,,,,,,,,,,,,,,,,,,,,,,,,,,,,,,,,,,,,,,,,,,,,,,,,,Spion,3.5885,1009.4750148000003,1009.4757078000002,1009.4758201000004,1009.4900377000004,1013.0898222000005,1013.0740875000001,1013.0775400000002,1013.0898222000005,1013.0898222000005,1013.0898222000005,1013.0898222000005,1015.0899070000005,1015.0899070000005,1015.0899070000005,1015.0899070000005,1015.0741013000006,2,1.0544577999999092,0.17114000000037777,None,,,,,,,,,,,,,,,,,,,,,1771,1,2025-10-28_13h59.04.988,sm,2024.2.4,59.91906133210517,2025-10-28 13h59.15.069785 +0100,
53,0,53,,,,,,space,16.725851000000148,None,None,3,0.9028723999999784,0.18656110000029003,None,0,0,0,0,,,,,0,0,0,0,,,,,53,0,53,0,1015.0899070000005,,,,,,,,,,,,,,,,,,,,,,,,,,,,,,,,,,,,,,,,,,,,,,,,,,,,,,,,,,Brille,2.0249,1015.0746111000008,1015.0751104000001,1015.0752149,1015.0899070000005,1017.1226861000005,1017.1072626000005,1017.1114079000008,1017.1226861000005,1017.1226861000005,1017.1226861000005,1017.1226861000005,1019.1228556000005,1019.1228556000005,1019.1228556000005,1019.1228556000005,1019.1078007000006,3,0.9028723999999784,0.18656110000029003,None,,,,,,,,,,,,,,,,,,,,,1771,1,2025-10-28_13h59.04.988,sm,2024.2.4,59.91906133210517,2025-10-28 13h59.15.069785 +0100,
54,0,54,,,,,,space,16.725851000000148,None,None,3,1.8210290999995777,None,None,0,0,0,0,,,,,0,0,0,0,,,,,54,0,54,0,1019.1228556000005,,,,,,,,,,,,,,,,,,,,,,,,,,,,,,,,,,,,,,,,,,,,,,,,,,,,,,,,,,Ferien,3.6553,1019.1083193000004,1019.1088336000003,1019.1089436000002,1019.1228556000005,1022.7893924,1022.7742289000007,1022.7785476000008,1022.7893924,1022.7893924,1022.7893924,1022.7893924,1024.7894552000007,1024.7894552000007,1024.7894552000007,1024.7894552000007,1024.7738145000003,3,1.8210290999995777,None,None,,,,,,,,,,,,,,,,,,,,,1771,1,2025-10-28_13h59.04.988,sm,2024.2.4,59.91906133210517,2025-10-28 13h59.15.069785 +0100,
55,0,55,,,,,,space,16.725851000000148,None,None,2,0.6720120999998471,0.17554279999967548,None,0,0,0,0,,,,,0,0,0,0,,,,,55,0,55,0,1024.7894552000007,,,,,,,,,,,,,,,,,,,,,,,,,,,,,,,,,,,,,,,,,,,,,,,,,,,,,,,,,,Spinne,2.4373,1024.7743282000001,1024.7748970000002,1024.7750015000001,1024.7894552000007,1027.2388896000002,1027.2237772000008,1027.2272512000009,1027.2388896000002,1027.2388896000002,1027.2388896000002,1027.2388896000002,1029.2391908000009,1029.2391908000009,1029.2391908000009,1029.2391908000009,1029.2234702000005,2,0.6720120999998471,0.17554279999967548,None,,,,,,,,,,,,,,,,,,,,,1771,1,2025-10-28_13h59.04.988,sm,2024.2.4,59.91906133210517,2025-10-28 13h59.15.069785 +0100,
56,0,56,,,,,,space,16.725851000000148,None,None,3,0.9157244999996692,0.19235140000000683,None,0,0,0,0,,,,,0,0,0,0,,,,,56,0,56,0,1029.2391908000009,,,,,,,,,,,,,,,,,,,,,,,,,,,,,,,,,,,,,,,,,,,,,,,,,,,,,,,,,,Sauber,3.0813,1029.2239803000002,1029.2244858000004,1029.2245884000004,1029.2391908000009,1032.3218393000006,1032.3062660000005,1032.3097784000001,1032.3218393000006,1032.3218393000006,1032.3218393000006,1032.3218393000006,1034.3220714000008,1034.3220714000008,1034.3220714000008,1034.3220714000008,1034.3069632000006,3,0.9157244999996692,0.19235140000000683,None,,,,,,,,,,,,,,,,,,,,,1771,1,2025-10-28_13h59.04.988,sm,2024.2.4,59.91906133210517,2025-10-28 13h59.15.069785 +0100,
57,0,57,,,,,,space,16.725851000000148,None,None,3,1.2467588999998043,0.1645078999999896,None,0,0,0,0,,,,,0,0,0,0,,,,,57,0,57,0,1034.3220714000008,,,,,,,,,,,,,,,,,,,,,,,,,,,,,,,,,,,,,,,,,,,,,,,,,,,,,,,,,,Geschirr,2.2104,1034.3074959000005,1034.3081733000008,1034.3082857000009,1034.3220714000008,1036.5385026000004,1036.5228463000003,1036.5267860000004,1036.5385026000004,1036.5385026000004,1036.5385026000004,1036.5385026000004,1038.5386125000005,1038.5386125000005,1038.5386125000005,1038.5386125000005,1038.5227744000003,3,1.2467588999998043,0.1645078999999896,None,,,,,,,,,,,,,,,,,,,,,1771,1,2025-10-28_13h59.04.988,sm,2024.2.4,59.91906133210517,2025-10-28 13h59.15.069785 +0100,
58,0,58,,,,,,space,16.725851000000148,None,None,3,1.0666354000004503,0.1705958999991708,None,0,0,0,0,,,,,0,0,0,0,,,,,58,0,58,0,1038.5386125000005,,,,,,,,,,,,,,,,,,,,,,,,,,,,,,,,,,,,,,,,,,,,,,,,,,,,,,,,,,Zirkus,2.5121,1038.5232805000005,1038.5238264000009,1038.5239310000006,1038.5386125000005,1041.0548177,1041.0394465000008,1041.0434690000002,1041.0548177,1041.0548177,1041.0548177,1041.0548177,1043.0550088,1043.0550088,1043.0550088,1043.0550088,1043.0393088,3,1.0666354000004503,0.1705958999991708,None,,,,,,,,,,,,,,,,,,,,,1771,1,2025-10-28_13h59.04.988,sm,2024.2.4,59.91906133210517,2025-10-28 13h59.15.069785 +0100,
59,0,59,,,,,,space,16.725851000000148,None,None,3,0.8843655000000581,0.20053349999943748,None,0,0,0,0,,,,,0,0,0,0,,,,,59,0,59,0,1043.0550088,,,,,,,,,,,,,,,,,,,,,,,,,,,,,,,,,,,,,,,,,,,,,,,,,,,,,,,,,,Zimt,3.7105,1043.0398164000007,1043.0403889000008,1043.0404968000003,1043.0550088,1046.7710930000003,1046.7560347000008,1046.7590292000004,1046.7710930000003,1046.7710930000003,1046.7710930000003,1046.7710930000003,1048.7711066000002,1048.7711066000002,1048.7711066000002,1048.7711066000002,1048.7555384000007,3,0.8843655000000581,0.20053349999943748,None,,,,,,,,,,,,,,,,,,,,,1771,1,2025-10-28_13h59.04.988,sm,2024.2.4,59.91906133210517,2025-10-28 13h59.15.069785 +0100,
60,0,60,,,,,,space,16.725851000000148,None,None,3,1.2094164999998611,0.1804924000007304,None,0,0,0,0,,,,,0,0,0,0,,,,,60,0,60,0,1048.7711066000002,,,,,,,,,,,,,,,,,,,,,,,,,,,,,,,,,,,,,,,,,,,,,,,,,,,,,,,,,,Scheidung,3.9851,1048.756045,1048.7565536000002,1048.7566593000001,1048.7711066000002,1052.7707800000007,1052.7553453,1052.7599708000007,1052.7707800000007,1052.7707800000007,1052.7707800000007,1052.7707800000007,1054.7708228000001,1054.7708228000001,1054.7708228000001,1054.7708228000001,1054.7551982000005,3,1.2094164999998611,0.1804924000007304,None,,,,,,,,,,,,,,,,,,,,,1771,1,2025-10-28_13h59.04.988,sm,2024.2.4,59.91906133210517,2025-10-28 13h59.15.069785 +0100,
61,0,61,,,,,,space,16.725851000000148,None,None,2,0.756522199999381,0.19339080000008835,None,0,0,0,0,,,,,0,0,0,0,,,,,61,0,61,0,1054.7708228000001,,,,,,,,,,,,,,,,,,,,,,,,,,,,,,,,,,,,,,,,,,,,,,,,,,,,,,,,,,Augen,2.4876,1054.7556868000001,1054.7561881000001,1054.7562973000004,1054.7708228000001,1057.2706539,1057.2547291,1057.2580290000005,1057.2706539,1057.2706539,1057.2706539,1057.2706539,1059.2708911,1059.2708911,1059.2708911,1059.2708911,1059.2550539000003,2,0.756522199999381,0.19339080000008835,None,,,,,,,,,,,,,,,,,,,,,1771,1,2025-10-28_13h59.04.988,sm,2024.2.4,59.91906133210517,2025-10-28 13h59.15.069785 +0100,
62,0,62,,,,,,space,16.725851000000148,None,None,2,0.9998783999999432,0.1934004000004279,None,0,0,0,0,,,,,0,0,0,0,,,,,62,0,62,0,1059.2708911,,,,,,,,,,,,,,,,,,,,,,,,,,,,,,,,,,,,,,,,,,,,,,,,,,,,,,,,,,Gras,3.8401,1059.2555673000006,1059.2562602000007,1059.2563711000003,1059.2708911,1063.1204763000005,1063.1048161000008,1063.1078038000005,1063.1204763000005,1063.1204763000005,1063.1204763000005,1063.1204763000005,1065.1201878000002,1065.1201878000002,1065.1201878000002,1065.1201878000002,1065.1053632000003,2,0.9998783999999432,0.1934004000004279,None,,,,,,,,,,,,,,,,,,,,,1771,1,2025-10-28_13h59.04.988,sm,2024.2.4,59.91906133210517,2025-10-28 13h59.15.069785 +0100,
63,0,63,,,,,,space,16.725851000000148,None,None,3,0.7287521999996898,0.16696940000019822,None,0,0,0,0,,,,,0,0,0,0,,,,,63,0,63,0,1065.1201878000002,,,,,,,,,,,,,,,,,,,,,,,,,,,,,,,,,,,,,,,,,,,,,,,,,,,,,,,,,,Soße,2.7409,1065.1058680000006,1065.1064050000004,1065.1065104000008,1065.1201878000002,1067.8700928000007,1067.8541975000007,1067.8575841000002,1067.8700928000007,1067.8700928000007,1067.8700928000007,1067.8700928000007,1069.8703887000001,1069.8703887000001,1069.8703887000001,1069.8703887000001,1069.8544401000008,3,0.7287521999996898,0.16696940000019822,None,,,,,,,,,,,,,,,,,,,,,1771,1,2025-10-28_13h59.04.988,sm,2024.2.4,59.91906133210517,2025-10-28 13h59.15.069785 +0100,
64,0,64,,,,,,space,16.725851000000148,None,None,3,0.87427100000059,0.17712010000013834,None,0,0,0,0,,,,,0,0,0,0,,,,,64,0,64,0,1069.8703887000001,,,,,,,,,,,,,,,,,,,,,,,,,,,,,,,,,,,,,,,,,,,,,,,,,,,,,,,,,,Medaille,2.4676,1069.8549465000006,1069.8554614000004,1069.8555659000003,1069.8703887000001,1072.3532646000003,1072.3376199000004,1072.3414722000007,1072.3532646000003,1072.3532646000003,1072.3532646000003,1072.3532646000003,1074.3533413000005,1074.3533413000005,1074.3533413000005,1074.3533413000005,1074.3373919000005,3,0.87427100000059,0.17712010000013834,None,,,,,,,,,,,,,,,,,,,,,1771,1,2025-10-28_13h59.04.988,sm,2024.2.4,59.91906133210517,2025-10-28 13h59.15.069785 +0100,
65,0,65,,,,,,space,16.725851000000148,None,None,3,1.1535625000005894,0.1931273999998666,None,0,0,0,0,,,,,0,0,0,0,,,,,65,0,65,0,1074.3533413000005,,,,,,,,,,,,,,,,,,,,,,,,,,,,,,,,,,,,,,,,,,,,,,,,,,,,,,,,,,Bücher,3.0501,1074.3378953000001,1074.3384132,1074.3385208,1074.3533413000005,1077.402599,1077.3869649000007,1077.3905419000002,1077.402599,1077.402599,1077.402599,1077.402599,1079.4027666000002,1079.4027666000002,1079.4027666000002,1079.4027666000002,1079.3871499000006,3,1.1535625000005894,0.1931273999998666,None,,,,,,,,,,,,,,,,,,,,,1771,1,2025-10-28_13h59.04.988,sm,2024.2.4,59.91906133210517,2025-10-28 13h59.15.069785 +0100,
66,0,66,,,,,,space,16.725851000000148,None,None,3,0.7890726999994513,0.1616295000003447,None,0,0,0,0,,,,,0,0,0,0,,,,,66,0,66,0,1079.4027666000002,,,,,,,,,,,,,,,,,,,,,,,,,,,,,,,,,,,,,,,,,,,,,,,,,,,,,,,,,,Bluse,3.7784,1079.3876724000002,1079.3883553000005,1079.3884611000003,1079.4027666000002,1083.1863192,1083.1708033000004,1083.1747367000007,1083.1863192,1083.1863192,1083.1863192,1083.1863192,1085.185797,1085.185797,1085.185797,1085.185797,1085.1702400000004,3,0.7890726999994513,0.1616295000003447,None,,,,,,,,,,,,,,,,,,,,,1771,1,2025-10-28_13h59.04.988,sm,2024.2.4,59.91906133210517,2025-10-28 13h59.15.069785 +0100,
67,0,67,,,,,,space,16.725851000000148,None,None,3,0.7547816000005696,0.19905000000017026,None,0,0,0,0,,,,,0,0,0,0,,,,,67,0,67,0,1085.185797,,,,,,,,,,,,,,,,,,,,,,,,,,,,,,,,,,,,,,,,,,,,,,,,,,,,,,,,,,Schlüssel,4.0256,1085.1707453000008,1085.1712528000007,1085.1713578000008,1085.185797,1089.2187881,1089.2033854000001,1089.2098848000005,1089.2187881,1089.2187881,1089.2187881,1089.2187881,1091.2189149000005,1091.2189149000005,1091.2189149000005,1091.2189149000005,1091.2029961000007,3,0.7547816000005696,0.19905000000017026,None,,,,,,,,,,,,,,,,,,,,,1771,1,2025-10-28_13h59.04.988,sm,2024.2.4,59.91906133210517,2025-10-28 13h59.15.069785 +0100,
68,0,68,,,,,,space,16.725851000000148,None,None,3,0.9127597000006062,0.16359229999943636,None,0,0,0,0,,,,,0,0,0,0,,,,,68,0,68,0,1091.2189149000005,,,,,,,,,,,,,,,,,,,,,,,,,,,,,,,,,,,,,,,,,,,,,,,,,,,,,,,,,,Weiß,2.3365,1091.2034509000005,1091.2039300000006,1091.2040222000005,1091.2189149000005,1093.5685481,1093.5528392000006,1093.5562929000007,1093.5685481,1093.5685481,1093.5685481,1093.5685481,1095.5685871000005,1095.5685871000005,1095.5685871000005,1095.5685871000005,1095.5529648000002,3,0.9127597000006062,0.16359229999943636,None,,,,,,,,,,,,,,,,,,,,,1771,1,2025-10-28_13h59.04.988,sm,2024.2.4,59.91906133210517,2025-10-28 13h59.15.069785 +0100,
69,0,69,,,,,,space,16.725851000000148,None,None,3,0.7493180999999822,0.1968550999999934,None,0,0,0,0,,,,,0,0,0,0,,,,,69,0,69,0,1095.5685871000005,,,,,,,,,,,,,,,,,,,,,,,,,,,,,,,,,,,,,,,,,,,,,,,,,,,,,,,,,,Datei,2.5603,1095.5534687000008,1095.5539814000003,1095.554086,1095.5685871000005,1098.1351168,1098.1195567000004,1098.1237962000005,1098.1351168,1098.1351168,1098.1351168,1098.1351168,1100.1352929000004,1100.1352929000004,1100.1352929000004,1100.1352929000004,1100.1193369000002,3,0.7493180999999822,0.1968550999999934,None,,,,,,,,,,,,,,,,,,,,,1771,1,2025-10-28_13h59.04.988,sm,2024.2.4,59.91906133210517,2025-10-28 13h59.15.069785 +0100,
70,0,70,,,,,,space,16.725851000000148,None,None,3,0.6743845999999394,0.19064299999990908,None,0,0,0,0,,,,,0,0,0,0,,,,,70,0,70,0,1100.1352929000004,,,,,,,,,,,,,,,,,,,,,,,,,,,,,,,,,,,,,,,,,,,,,,,,,,,,,,,,,,Gemüse,3.2267,1100.1198475,1100.1204745000005,1100.1206453000004,1100.1352929000004,1103.3678527000002,1103.3524786000007,1103.3568218,1103.3678527000002,1103.3678527000002,1103.3678527000002,1103.3678527000002,1105.3679778000005,1105.3679778000005,1105.3679778000005,1105.3679778000005,1105.3528054000008,3,0.6743845999999394,0.19064299999990908,None,,,,,,,,,,,,,,,,,,,,,1771,1,2025-10-28_13h59.04.988,sm,2024.2.4,59.91906133210517,2025-10-28 13h59.15.069785 +0100,
71,0,71,,,,,,space,16.725851000000148,None,None,2,1.206264800000099,0.1539465999994718,None,0,0,0,0,,,,,0,0,0,0,,,,,71,0,71,0,1105.3679778000005,,,,,,,,,,,,,,,,,,,,,,,,,,,,,,,,,,,,,,,,,,,,,,,,,,,,,,,,,,Wissen,3.2106,1105.3533404,1105.3538924000004,1105.3540041000006,1105.3679778000005,1108.5843221000005,1108.5690974000008,1108.5725153000003,1108.5843221000005,1108.5843221000005,1108.5843221000005,1108.5843221000005,1110.5848197000005,1110.5848197000005,1110.5848197000005,1110.5848197000005,1110.5686580000001,2,1.206264800000099,0.1539465999994718,None,,,,,,,,,,,,,,,,,,,,,1771,1,2025-10-28_13h59.04.988,sm,2024.2.4,59.91906133210517,2025-10-28 13h59.15.069785 +0100,
72,0,72,,,,,,space,16.725851000000148,None,None,3,0.9487582000001566,0.18066710000039166,None,0,0,0,0,,,,,0,0,0,0,,,,,72,0,72,0,1110.5848197000005,,,,,,,,,,,,,,,,,,,,,,,,,,,,,,,,,,,,,,,,,,,,,,,,,,,,,,,,,,Kuchen ,2.87,1110.5691643,1110.5699060000006,1110.5700158000009,1110.5848197000005,1113.4673205000008,1113.4517085000007,1113.4556787000001,1113.4673205000008,1113.4673205000008,1113.4673205000008,1113.4673205000008,1115.4676001000007,1115.4676001000007,1115.4676001000007,1115.4676001000007,1115.4518202000008,3,0.9487582000001566,0.18066710000039166,None,,,,,,,,,,,,,,,,,,,,,1771,1,2025-10-28_13h59.04.988,sm,2024.2.4,59.91906133210517,2025-10-28 13h59.15.069785 +0100,
73,0,73,,,,,,space,16.725851000000148,None,None,3,0.8821649999999863,0.16851370000040333,None,0,0,0,0,,,,,0,0,0,0,,,,,73,0,73,0,1115.4676001000007,,,,,,,,,,,,,,,,,,,,,,,,,,,,,,,,,,,,,,,,,,,,,,,,,,,,,,,,,,Schreibtisch,2.8005,1115.4522682000006,1115.4528794000007,1115.4529712000003,1115.4676001000007,1118.2669752000002,1118.2516361000007,1118.2557976000007,1118.2669752000002,1118.2669752000002,1118.2669752000002,1118.2669752000002,1120.2670823000008,1120.2670823000008,1120.2670823000008,1120.2670823000008,1120.2513543000005,3,0.8821649999999863,0.16851370000040333,None,,,,,,,,,,,,,,,,,,,,,1771,1,2025-10-28_13h59.04.988,sm,2024.2.4,59.91906133210517,2025-10-28 13h59.15.069785 +0100,
74,0,74,,,,,,space,16.725851000000148,None,None,3,1.0668794999992315,0.1755170000005819,None,0,0,0,0,,,,,0,0,0,0,,,,,74,0,74,0,1120.2670823000008,,,,,,,,,,,,,,,,,,,,,,,,,,,,,,,,,,,,,,,,,,,,,,,,,,,,,,,,,,Kunst,4.7442,1120.2518656000002,1120.2524421000007,1120.2525460000006,1120.2670823000008,1125.0166972000006,1125.0009733000006,1125.0060604,1125.0166972000006,1125.0166972000006,1125.0166972000006,1125.0166972000006,1127.0167606000005,1127.0167606000005,1127.0167606000005,1127.0167606000005,1127.0012542000004,3,1.0668794999992315,0.1755170000005819,None,,,,,,,,,,,,,,,,,,,,,1771,1,2025-10-28_13h59.04.988,sm,2024.2.4,59.91906133210517,2025-10-28 13h59.15.069785 +0100,
75,0,75,,,,,,space,16.725851000000148,None,None,3,0.947525599999608,0.19738520000009885,None,0,0,0,0,,,,,0,0,0,0,,,,,75,0,75,0,1127.0167606000005,,,,,,,,,,,,,,,,,,,,,,,,,,,,,,,,,,,,,,,,,,,,,,,,,,,,,,,,,,Angriff,3.5399,1127.0017634000005,1127.0022927,1127.0023983,1127.0167606000005,1130.5665572000007,1130.5506929000003,1130.5550484000005,1130.5665572000007,1130.5665572000007,1130.5665572000007,1130.5665572000007,1132.5664059,1132.5664059,1132.5664059,1132.5664059,1132.5506921000006,3,0.947525599999608,0.19738520000009885,None,,,,,,,,,,,,,,,,,,,,,1771,1,2025-10-28_13h59.04.988,sm,2024.2.4,59.91906133210517,2025-10-28 13h59.15.069785 +0100,
76,0,76,,,,,,space,16.725851000000148,None,None,2,1.0640892999999778,0.16553440000006958,None,0,0,0,0,,,,,0,0,0,0,,,,,76,0,76,0,1132.5664059,,,,,,,,,,,,,,,,,,,,,,,,,,,,,,,,,,,,,,,,,,,,,,,,,,,,,,,,,,Geschichte,2.0747,1132.5512048,1132.5517159,1132.5518246000001,1132.5664059,1134.6494952000003,1134.6342304,1134.6390921000002,1134.6494952000003,1134.6494952000003,1134.6494952000003,1134.6494952000003,1136.6494628,1136.6494628,1136.6494628,1136.6494628,1136.6340629000006,2,1.0640892999999778,0.16553440000006958,None,,,,,,,,,,,,,,,,,,,,,1771,1,2025-10-28_13h59.04.988,sm,2024.2.4,59.91906133210517,2025-10-28 13h59.15.069785 +0100,
77,0,77,,,,,,space,16.725851000000148,None,None,2,0.729791099999602,0.1726834000000963,None,0,0,0,0,,,,,0,0,0,0,,,,,77,0,77,0,1136.6494628,,,,,,,,,,,,,,,,,,,,,,,,,,,,,,,,,,,,,,,,,,,,,,,,,,,,,,,,,,Handwerker,2.2379,1136.6345774000001,1136.6351014000002,1136.6352079000008,1136.6494628,1138.8995952000005,1138.8836757000008,1138.8882171000005,1138.8995952000005,1138.8995952000005,1138.8995952000005,1138.8995952000005,1140.8994349000004,1140.8994349000004,1140.8994349000004,1140.8994349000004,1140.8835946000008,2,0.729791099999602,0.1726834000000963,None,,,,,,,,,,,,,,,,,,,,,1771,1,2025-10-28_13h59.04.988,sm,2024.2.4,59.91906133210517,2025-10-28 13h59.15.069785 +0100,
78,0,78,,,,,,space,16.725851000000148,None,None,3,0.958979800000634,0.18057969999972556,None,0,0,0,0,,,,,0,0,0,0,,,,,78,0,78,0,1140.8994349000004,,,,,,,,,,,,,,,,,,,,,,,,,,,,,,,,,,,,,,,,,,,,,,,,,,,,,,,,,,Schleim,2.1555,1140.8841030000003,1140.8847586000002,1140.8848630000002,1140.8994349000004,1143.0656763000006,1143.0504164000004,1143.0546436000004,1143.0656763000006,1143.0656763000006,1143.0656763000006,1143.0656763000006,1145.0656922000007,1145.0656922000007,1145.0656922000007,1145.0656922000007,1145.0499558000001,3,0.958979800000634,0.18057969999972556,None,,,,,,,,,,,,,,,,,,,,,1771,1,2025-10-28_13h59.04.988,sm,2024.2.4,59.91906133210517,2025-10-28 13h59.15.069785 +0100,
79,0,79,,,,,,space,16.725851000000148,None,None,3,0.8989077999995061,0.13227120000010473,None,0,0,0,0,,,,,0,0,0,0,,,,,79,0,79,0,1145.0656922000007,,,,,,,,,,,,,,,,,,,,,,,,,,,,,,,,,,,,,,,,,,,,,,,,,,,,,,,,,,Puppe,2.5469,1145.0504671000008,1145.0509713000001,1145.0510769000002,1145.0656922000007,1147.6151090000003,1147.5998934000008,1147.6064693000008,1147.6151090000003,1147.6151090000003,1147.6151090000003,1147.6151090000003,1149.6270604000001,1149.6270604000001,1149.6270604000001,1149.6270604000001,1149.5998422000002,3,0.8989077999995061,0.13227120000010473,None,,,,,,,,,,,,,,,,,,,,,1771,1,2025-10-28_13h59.04.988,sm,2024.2.4,59.91906133210517,2025-10-28 13h59.15.069785 +0100,
0,0,0,,,,,2.2302,space,3.3000413999998273,None,None,2,1.3127205000000686,0.16656110000076296,None,0,0,0,0,,,,,1,0,1,0,0,79,79,7,0,0,0,0,1195.8458376000008,,,,,,,,,,,,,,,,,,,,,,,,,,,,,,,,,,,,1167.8113507000007,1167.8115898000005,1167.8178204000005,1167.8230482000008,1167.8230482000008,1171.1307557,space,3.3000413999998273,None,1171.1309026000008,1171.1475828000002,1171.1475828000002,1183.8152256000003,None,1183.8220685000006,1183.8468636000007,1183.830591066667,1185.0367705000008,1193.8293515666667,1194.8364312000003,,1195.8298257000006,Club,2.2302,1195.8312906,1195.8320107000009,1195.8321307000006,1195.8458376000008,1198.0791489000003,1198.0637138000002,1198.0684637000004,1198.0791489000003,1198.0791489000003,1198.0791489000003,1198.0791489000003,1200.0795589000008,1200.0795589000008,1200.0795589000008,1200.0795589000008,1200.0635914000004,2,1.3127205000000686,0.16656110000076296,None,1161.614888,1161.6149590000005,None,1161.6233550000006,1161.6318786000002,1165.6311949,1165.6311949,1165.6311949,1167.7659668000006,2,2.1299989999997706,None,,,,,,,,,1771,1,2025-10-28_13h59.04.988,sm,2024.2.4,59.91906133210517,2025-10-28 13h59.15.069785 +0100,
1,0,1,,,,,,space,3.3000413999998273,None,None,3,0.8566075000007913,0.2086870999992243,None,0,0,0,0,,,,,1,0,1,0,,,,,1,0,1,0,1200.0795589000008,,,,,,,,,,,,,,,,,,,,,,,,,,,,,,,,,,,,,,,,,,,,,,,,,,,,,,,,,,Dachboden,2.1555,1200.0641107000001,1200.0646310000002,1200.0647352000005,1200.0795589000008,1202.2464593000004,1202.2298434000004,1202.2338357000008,1202.2464593000004,1202.2464593000004,1202.2464593000004,1202.2464593000004,1204.2457605000009,1204.2457605000009,1204.2457605000009,1204.2457605000009,1204.2301605000002,3,0.8566075000007913,0.2086870999992243,None,,,,,,,,,,,,,,,,,,,,,1771,1,2025-10-28_13h59.04.988,sm,2024.2.4,59.91906133210517,2025-10-28 13h59.15.069785 +0100,
2,0,2,,,,,,space,3.3000413999998273,None,None,3,1.0148581000003105,0.19686470000033296,None,0,0,0,0,,,,,1,0,1,0,,,,,2,0,2,0,1204.2457605000009,,,,,,,,,,,,,,,,,,,,,,,,,,,,,,,,,,,,,,,,,,,,,,,,,,,,,,,,,,Weltraum,3.6909,1204.2306677000006,1204.2311765000004,1204.2312822000004,1204.2457605000009,1207.9454146000007,1207.9300264000003,1207.9341821000007,1207.9454146000007,1207.9454146000007,1207.9454146000007,1207.9454146000007,1209.9453208000004,1209.9453208000004,1209.9453208000004,1209.9453208000004,1209.9298368,3,1.0148581000003105,0.19686470000033296,None,,,,,,,,,,,,,,,,,,,,,1771,1,2025-10-28_13h59.04.988,sm,2024.2.4,59.91906133210517,2025-10-28 13h59.15.069785 +0100,
3,0,3,,,,,,space,3.3000413999998273,None,None,3,0.9135143000003154,0.19245150000006106,None,0,0,0,0,,,,,1,0,1,0,,,,,3,0,3,0,1209.9453208000004,,,,,,,,,,,,,,,,,,,,,,,,,,,,,,,,,,,,,,,,,,,,,,,,,,,,,,,,,,Bart,3.4199,1209.9303500000005,1209.9308637000004,1209.9309681000004,1209.9453208000004,1213.378541,1213.3625669000003,1213.3660919000004,1213.378541,1213.378541,1213.378541,1213.378541,1215.3782369,1215.3782369,1215.3782369,1215.3782369,1215.3626146000006,3,0.9135143000003154,0.19245150000006106,None,,,,,,,,,,,,,,,,,,,,,1771,1,2025-10-28_13h59.04.988,sm,2024.2.4,59.91906133210517,2025-10-28 13h59.15.069785 +0100,
4,0,4,,,,,,space,3.3000413999998273,None,None,2,0.8213966000002983,0.17658169999958773,None,0,0,0,0,,,,,1,0,1,0,,,,,4,0,4,0,1215.3782369,,,,,,,,,,,,,,,,,,,,,,,,,,,,,,,,,,,,,,,,,,,,,,,,,,,,,,,,,,Hand,4.7442,1215.3631268000008,1215.3637807000005,1215.3638843000008,1215.3782369,1220.1279074000004,1220.1121743000003,1220.115506,1220.1279074000004,1220.1279074000004,1220.1279074000004,1220.1279074000004,1222.1278297000008,1222.1278297000008,1222.1278297000008,1222.1278297000008,1222.1122688000005,2,0.8213966000002983,0.17658169999958773,None,,,,,,,,,,,,,,,,,,,,,1771,1,2025-10-28_13h59.04.988,sm,2024.2.4,59.91906133210517,2025-10-28 13h59.15.069785 +0100,
5,0,5,,,,,,space,3.3000413999998273,None,None,2,0.9278245000004972,0.18250939999961702,None,0,0,0,0,,,,,1,0,1,0,,,,,5,0,5,0,1222.1278297000008,,,,,,,,,,,,,,,,,,,,,,,,,,,,,,,,,,,,,,,,,,,,,,,,,,,,,,,,,,Publikum,2.4876,1222.1127758000002,1222.1133524000006,1222.1134569000005,1222.1278297000008,1224.6276922000006,1224.6120684000007,1224.6168577000008,1224.6276922000006,1224.6276922000006,1224.6276922000006,1224.6276922000006,1226.6276704000002,1226.6276704000002,1226.6276704000002,1226.6276704000002,1226.6119336000002,2,0.9278245000004972,0.18250939999961702,None,,,,,,,,,,,,,,,,,,,,,1771,1,2025-10-28_13h59.04.988,sm,2024.2.4,59.91906133210517,2025-10-28 13h59.15.069785 +0100,
6,0,6,,,,,,space,3.3000413999998273,None,None,2,0.7745592000001125,0.18000000000029104,None,0,0,0,0,,,,,1,0,1,0,,,,,6,0,6,0,1226.6276704000002,,,,,,,,,,,,,,,,,,,,,,,,,,,,,,,,,,,,,,,,,,,,,,,,,,,,,,,,,,Zunge,2.123,1226.6124039000006,1226.6130428000006,1226.6131428000008,1226.6276704000002,1228.7605656000005,1228.7449802,1228.7488693000005,1228.7605656000005,1228.7605656000005,1228.7605656000005,1228.7605656000005,1230.7610305000007,1230.7610305000007,1230.7610305000007,1230.7610305000007,1230.7453213000008,2,0.7745592000001125,0.18000000000029104,None,,,,,,,,,,,,,,,,,,,,,1771,1,2025-10-28_13h59.04.988,sm,2024.2.4,59.91906133210517,2025-10-28 13h59.15.069785 +0100,
7,0,7,,,,,,space,3.3000413999998273,None,None,3,0.8048490000001038,0.1900474000003669,None,0,0,0,0,,,,,1,0,1,0,,,,,7,0,7,0,1230.7610305000007,,,,,,,,,,,,,,,,,,,,,,,,,,,,,,,,,,,,,,,,,,,,,,,,,,,,,,,,,,Schläger,2.5782,1230.7458269000008,1230.7463274000002,1230.7464316000005,1230.7610305000007,1233.3439400000007,1233.3280337000006,1233.3326707000006,1233.3439400000007,1233.3439400000007,1233.3439400000007,1233.3439400000007,1235.3436941,1235.3436941,1235.3436941,1235.3436941,1235.3283382000009,3,0.8048490000001038,0.1900474000003669,None,,,,,,,,,,,,,,,,,,,,,1771,1,2025-10-28_13h59.04.988,sm,2024.2.4,59.91906133210517,2025-10-28 13h59.15.069785 +0100,
8,0,8,,,,,,space,3.3000413999998273,None,None,3,1.174806200000603,0.2054385999999795,None,0,0,0,0,,,,,1,0,1,0,,,,,8,0,8,0,1235.3436941,,,,,,,,,,,,,,,,,,,,,,,,,,,,,,,,,,,,,,,,,,,,,,,,,,,,,,,,,,Kino,3.7105,1235.3288516000002,1235.3293752000009,1235.3294843000003,1235.3436941,1239.0603424,1239.0442067000004,1239.0475036000007,1239.0603424,1239.0603424,1239.0603424,1239.0603424,1241.0602178000008,1241.0602178000008,1241.0602178000008,1241.0602178000008,1241.0445081000007,3,1.174806200000603,0.2054385999999795,None,,,,,,,,,,,,,,,,,,,,,1771,1,2025-10-28_13h59.04.988,sm,2024.2.4,59.91906133210517,2025-10-28 13h59.15.069785 +0100,
9,0,9,,,,,,space,3.3000413999998273,None,None,3,0.8701289999999062,0.17052890000013576,None,0,0,0,0,,,,,1,0,1,0,,,,,9,0,9,0,1241.0602178000008,,,,,,,,,,,,,,,,,,,,,,,,,,,,,,,,,,,,,,,,,,,,,,,,,,,,,,,,,,Juwel,3.2035,1241.0450176000004,1241.0455349000003,1241.0456383,1241.0602178000008,1244.2761921000001,1244.2606784000009,1244.2667992000006,1244.2761921000001,1244.2761921000001,1244.2761921000001,1244.2761921000001,1246.2764505000005,1246.2764505000005,1246.2764505000005,1246.2764505000005,1246.2608877000002,3,0.8701289999999062,0.17052890000013576,None,,,,,,,,,,,,,,,,,,,,,1771,1,2025-10-28_13h59.04.988,sm,2024.2.4,59.91906133210517,2025-10-28 13h59.15.069785 +0100,
10,0,10,,,,,,space,3.3000413999998273,None,None,2,1.0777200999991692,0.1776067000000694,None,0,0,0,0,,,,,1,0,1,0,,,,,10,0,10,0,1246.2764505000005,,,,,,,,,,,,,,,,,,,,,,,,,,,,,,,,,,,,,,,,,,,,,,,,,,,,,,,,,,Koch,3.0501,1246.2614009000008,1246.2619333000002,1246.2620406000005,1246.2764505000005,1249.3263962,1249.3105329,1249.3142651000007,1249.3263962,1249.3263962,1249.3263962,1249.3263962,1251.3263224000002,1251.3263224000002,1251.3263224000002,1251.3263224000002,1251.3106539,2,1.0777200999991692,0.1776067000000694,None,,,,,,,,,,,,,,,,,,,,,1771,1,2025-10-28_13h59.04.988,sm,2024.2.4,59.91906133210517,2025-10-28 13h59.15.069785 +0100,
11,0,11,,,,,,space,3.3000413999998273,None,None,3,0.8080973999994967,0.22192470000027242,None,0,0,0,0,,,,,1,0,1,0,,,,,11,0,11,0,1251.3263224000002,,,,,,,,,,,,,,,,,,,,,,,,,,,,,,,,,,,,,,,,,,,,,,,,,,,,,,,,,,Berg,2.4373,1251.3111591000006,1251.3117472000004,1251.3118644000006,1251.3263224000002,1253.7760953000006,1253.7604234,1253.7640169000006,1253.7760953000006,1253.7760953000006,1253.7760953000006,1253.7760953000006,1255.7762421000007,1255.7762421000007,1255.7762421000007,1255.7762421000007,1255.7600498000002,3,0.8080973999994967,0.22192470000027242,None,,,,,,,,,,,,,,,,,,,,,1771,1,2025-10-28_13h59.04.988,sm,2024.2.4,59.91906133210517,2025-10-28 13h59.15.069785 +0100,
12,0,12,,,,,,space,3.3000413999998273,None,None,3,0.8693170999995345,0.1794156000005387,None,0,0,0,0,,,,,1,0,1,0,,,,,12,0,12,0,1255.7762421000007,,,,,,,,,,,,,,,,,,,,,,,,,,,,,,,,,,,,,,,,,,,,,,,,,,,,,,,,,,Maske,3.7784,1255.7605021000008,1255.7609783000007,1255.7610698000008,1255.7762421000007,1259.5588828,1259.5434370000003,1259.5475255000001,1259.5588828,1259.5588828,1259.5588828,1259.5588828,1261.5590718000003,1261.5590718000003,1261.5590718000003,1261.5590718000003,1261.5431883,3,0.8693170999995345,0.1794156000005387,None,,,,,,,,,,,,,,,,,,,,,1771,1,2025-10-28_13h59.04.988,sm,2024.2.4,59.91906133210517,2025-10-28 13h59.15.069785 +0100,
13,0,13,,,,,,space,3.3000413999998273,None,None,2,1.355766899999253,0.1785905000006096,None,0,0,0,0,,,,,1,0,1,0,,,,,13,0,13,0,1261.5590718000003,,,,,,,,,,,,,,,,,,,,,,,,,,,,,,,,,,,,,,,,,,,,,,,,,,,,,,,,,,Blätter,2.0249,1261.5436963000002,1261.5442086000003,1261.5443132,1261.5590718000003,1263.5922182000004,1263.5764731000008,1263.5816794000002,1263.5922182000004,1263.5922182000004,1263.5922182000004,1263.5922182000004,1265.5922256000003,1265.5922256000003,1265.5922256000003,1265.5922256000003,1265.5764367000002,2,1.355766899999253,0.1785905000006096,None,,,,,,,,,,,,,,,,,,,,,1771,1,2025-10-28_13h59.04.988,sm,2024.2.4,59.91906133210517,2025-10-28 13h59.15.069785 +0100,
14,0,14,,,,,,space,3.3000413999998273,None,None,2,0.7896522000000914,0.1665538999995988,None,0,0,0,0,,,,,1,0,1,0,,,,,14,0,14,0,1265.5922256000003,,,,,,,,,,,,,,,,,,,,,,,,,,,,,,,,,,,,,,,,,,,,,,,,,,,,,,,,,,Eule,2.5469,1265.5769409000004,1265.5774490000003,1265.5775525000008,1265.5922256000003,1268.1416736,1268.1259653000006,1268.1290937000003,1268.1416736,1268.1416736,1268.1416736,1268.1416736,1270.1419012000006,1270.1419012000006,1270.1419012000006,1270.1419012000006,1270.126107,2,0.7896522000000914,0.1665538999995988,None,,,,,,,,,,,,,,,,,,,,,1771,1,2025-10-28_13h59.04.988,sm,2024.2.4,59.91906133210517,2025-10-28 13h59.15.069785 +0100,
15,0,15,,,,,,space,3.3000413999998273,None,None,2,0.73252439999942,0.17887090000022,None,0,0,0,0,,,,,1,0,1,0,,,,,15,0,15,0,1270.1419012000006,,,,,,,,,,,,,,,,,,,,,,,,,,,,,,,,,,,,,,,,,,,,,,,,,,,,,,,,,,Alligator,2.2986,1270.1266155000003,1270.1271344000006,1270.1272396000004,1270.1419012000006,1272.4413763000002,1272.4258635000006,1272.4294862000006,1272.4413763000002,1272.4413763000002,1272.4413763000002,1272.4413763000002,1274.4413727,1274.4413727,1274.4413727,1274.4413727,1274.4259856000008,2,0.73252439999942,0.17887090000022,None,,,,,,,,,,,,,,,,,,,,,1771,1,2025-10-28_13h59.04.988,sm,2024.2.4,59.91906133210517,2025-10-28 13h59.15.069785 +0100,
16,0,16,,,,,,space,3.3000413999998273,None,None,3,1.8340038000005734,None,None,0,0,0,0,,,,,1,0,1,0,,,,,16,0,16,0,1274.4413727,,,,,,,,,,,,,,,,,,,,,,,,,,,,,,,,,,,,,,,,,,,,,,,,,,,,,,,,,,Anhänger,2.6963,1274.4264631000005,1274.4269590000004,1274.4270572000005,1274.4413727,1277.1413520000006,1277.1258037000007,1277.1300253000009,1277.1413520000006,1277.1413520000006,1277.1413520000006,1277.1413520000006,1279.1414935000003,1279.1414935000003,1279.1414935000003,1279.1414935000003,1279.1257183000007,3,1.8340038000005734,None,None,,,,,,,,,,,,,,,,,,,,,1771,1,2025-10-28_13h59.04.988,sm,2024.2.4,59.91906133210517,2025-10-28 13h59.15.069785 +0100,
17,0,17,,,,,,space,3.3000413999998273,None,None,2,0.8505171999995582,0.17583029999968858,None,0,0,0,0,,,,,1,0,1,0,,,,,17,0,17,0,1279.1414935000003,,,,,,,,,,,,,,,,,,,,,,,,,,,,,,,,,,,,,,,,,,,,,,,,,,,,,,,,,,Gelenk,2.3833,1279.1262269000008,1279.1267765000002,1279.1268843000007,1279.1414935000003,1281.5243022000004,1281.5087773000005,1281.5125624000002,1281.5243022000004,1281.5243022000004,1281.5243022000004,1281.5243022000004,1283.5243974000005,1283.5243974000005,1283.5243974000005,1283.5243974000005,1283.5088383000002,2,0.8505171999995582,0.17583029999968858,None,,,,,,,,,,,,,,,,,,,,,1771,1,2025-10-28_13h59.04.988,sm,2024.2.4,59.91906133210517,2025-10-28 13h59.15.069785 +0100,
18,0,18,,,,,,space,3.3000413999998273,None,None,2,0.7556000000004133,0.17790969999987283,None,0,0,0,0,,,,,1,0,1,0,,,,,18,0,18,0,1283.5243974000005,,,,,,,,,,,,,,,,,,,,,,,,,,,,,,,,,,,,,,,,,,,,,,,,,,,,,,,,,,Klee,3.2626,1283.5093467000006,1283.5098684000004,1283.5099749,1283.5243974000005,1286.7903864,1286.7750256000008,1286.7780617000008,1286.7903864,1286.7903864,1286.7903864,1286.7903864,1288.7905146000003,1288.7905146000003,1288.7905146000003,1288.7905146000003,1288.7755895,2,0.7556000000004133,0.17790969999987283,None,,,,,,,,,,,,,,,,,,,,,1771,1,2025-10-28_13h59.04.988,sm,2024.2.4,59.91906133210517,2025-10-28 13h59.15.069785 +0100,
19,0,19,,,,,,space,3.3000413999998273,None,None,3,1.2427182000001267,0.22778119999929913,None,0,0,0,0,,,,,1,0,1,0,,,,,19,0,19,0,1288.7905146000003,,,,,,,,,,,,,,,,,,,,,,,,,,,,,,,,,,,,,,,,,,,,,,,,,,,,,,,,,,Farbe,2.8989,1288.7760925000002,1288.7767577000004,1288.7768706000006,1288.7905146000003,1291.6903555000008,1291.6750408000007,1291.6790276000002,1291.6903555000008,1291.6903555000008,1291.6903555000008,1291.6903555000008,1293.6904611,1293.6904611,1293.6904611,1293.6904611,1293.6749027000005,3,1.2427182000001267,0.22778119999929913,None,,,,,,,,,,,,,,,,,,,,,1771,1,2025-10-28_13h59.04.988,sm,2024.2.4,59.91906133210517,2025-10-28 13h59.15.069785 +0100,
20,0,20,,,,,,space,3.3000413999998273,None,None,2,0.731815899999674,0.20444339999994554,None,0,0,0,0,,,,,1,0,1,0,,,,,20,0,20,0,1293.6904611,,,,,,,,,,,,,,,,,,,,,,,,,,,,,,,,,,,,,,,,,,,,,,,,,,,,,,,,,,Familie,2.5603,1293.6754062,1293.6759898,1293.6760935000002,1293.6904611,1296.2566682000006,1296.2412426,1296.2457360000008,1296.2566682000006,1296.2566682000006,1296.2566682000006,1296.2566682000006,1298.2567969000002,1298.2567969000002,1298.2567969000002,1298.2567969000002,1298.2411281000004,2,0.731815899999674,0.20444339999994554,None,,,,,,,,,,,,,,,,,,,,,1771,1,2025-10-28_13h59.04.988,sm,2024.2.4,59.91906133210517,2025-10-28 13h59.15.069785 +0100,
21,0,21,,,,,,space,3.3000413999998273,None,None,3,0.8975166999998692,0.20936780000010913,None,0,0,0,0,,,,,1,0,1,0,,,,,21,0,21,0,1298.2567969000002,,,,,,,,,,,,,,,,,,,,,,,,,,,,,,,,,,,,,,,,,,,,,,,,,,,,,,,,,,Netz,3.2267,1298.2416400000002,1298.2421474000002,1298.2422599000001,1298.2567969000002,1301.4897548000008,1301.4742739000003,1301.4777496000006,1301.4897548000008,1301.4897548000008,1301.4897548000008,1301.4897548000008,1303.4898625000005,1303.4898625000005,1303.4898625000005,1303.4898625000005,1303.4744119000006,3,0.8975166999998692,0.20936780000010913,None,,,,,,,,,,,,,,,,,,,,,1771,1,2025-10-28_13h59.04.988,sm,2024.2.4,59.91906133210517,2025-10-28 13h59.15.069785 +0100,
22,0,22,,,,,,space,3.3000413999998273,None,None,3,0.7500958999999057,0.22832280000056926,None,0,0,0,0,,,,,1,0,1,0,,,,,22,0,22,0,1303.4898625000005,,,,,,,,,,,,,,,,,,,,,,,,,,,,,,,,,,,,,,,,,,,,,,,,,,,,,,,,,,Sitzgurt,3.5399,1303.4749183000004,1303.4754217,1303.4755258000005,1303.4898625000005,1307.0396729000004,1307.0240096000007,1307.0285311000007,1307.0396729000004,1307.0396729000004,1307.0396729000004,1307.0396729000004,1309.0394832000002,1309.0394832000002,1309.0394832000002,1309.0394832000002,1309.0239744,3,0.7500958999999057,0.22832280000056926,None,,,,,,,,,,,,,,,,,,,,,1771,1,2025-10-28_13h59.04.988,sm,2024.2.4,59.91906133210517,2025-10-28 13h59.15.069785 +0100,
23,0,23,,,,,,space,3.3000413999998273,None,None,3,1.015303600000152,0.21638009999969654,None,0,0,0,0,,,,,1,0,1,0,,,,,23,0,23,0,1309.0394832000002,,,,,,,,,,,,,,,,,,,,,,,,,,,,,,,,,,,,,,,,,,,,,,,,,,,,,,,,,,Dip,2.0789,1309.0244818,1309.0251360000002,1309.0252402000006,1309.0394832000002,1311.1224414000008,1311.1068554000003,1311.1101335000003,1311.1224414000008,1311.1224414000008,1311.1224414000008,1311.1224414000008,1313.1228660000006,1313.1228660000006,1313.1228660000006,1313.1228660000006,1313.1069390000002,3,1.015303600000152,0.21638009999969654,None,,,,,,,,,,,,,,,,,,,,,1771,1,2025-10-28_13h59.04.988,sm,2024.2.4,59.91906133210517,2025-10-28 13h59.15.069785 +0100,
24,0,24,,,,,,space,3.3000413999998273,None,None,2,1.068850100000418,0.18064099999992322,None,0,0,0,0,,,,,1,0,1,0,,,,,24,0,24,0,1313.1228660000006,,,,,,,,,,,,,,,,,,,,,,,,,,,,,,,,,,,,,,,,,,,,,,,,,,,,,,,,,,Spaß,3.7635,1313.107446,1313.1079637000003,1313.1080671,1313.1228660000006,1316.8890330000004,1316.8732509000001,1316.8768707000008,1316.8890330000004,1316.8890330000004,1316.8890330000004,1316.8890330000004,1318.8889824000007,1318.8889824000007,1318.8889824000007,1318.8889824000007,1318.8735596000006,2,1.068850100000418,0.18064099999992322,None,,,,,,,,,,,,,,,,,,,,,1771,1,2025-10-28_13h59.04.988,sm,2024.2.4,59.91906133210517,2025-10-28 13h59.15.069785 +0100,
25,0,25,,,,,,space,3.3000413999998273,None,None,3,0.8114101999999548,0.21602809999967576,None,0,0,0,0,,,,,1,0,1,0,,,,,25,0,25,0,1318.8889824000007,,,,,,,,,,,,,,,,,,,,,,,,,,,,,,,,,,,,,,,,,,,,,,,,,,,,,,,,,,Kamera,2.2104,1318.8740699,1318.8745821000002,1318.8746849000008,1318.8889824000007,1321.1053215000002,1321.0898746000003,1321.0936055000002,1321.1053215000002,1321.1053215000002,1321.1053215000002,1321.1053215000002,1323.1054479000004,1323.1054479000004,1323.1054479000004,1323.1054479000004,1323.0896889000005,3,0.8114101999999548,0.21602809999967576,None,,,,,,,,,,,,,,,,,,,,,1771,1,2025-10-28_13h59.04.988,sm,2024.2.4,59.91906133210517,2025-10-28 13h59.15.069785 +0100,
26,0,26,,,,,,space,3.3000413999998273,None,None,2,0.7429456999998365,0.2042457999996259,None,0,0,0,0,,,,,1,0,1,0,,,,,26,0,26,0,1323.1054479000004,,,,,,,,,,,,,,,,,,,,,,,,,,,,,,,,,,,,,,,,,,,,,,,,,,,,,,,,,,Feier,2.8902,1323.0901955000008,1323.0907964000007,1323.0909011000003,1323.1054479000004,1326.0051505000001,1325.9893366000006,1325.9928931000004,1326.0051505000001,1326.0051505000001,1326.0051505000001,1326.0051505000001,1328.0051435000005,1328.0051435000005,1328.0051435000005,1328.0051435000005,1327.9894557000007,2,0.7429456999998365,0.2042457999996259,None,,,,,,,,,,,,,,,,,,,,,1771,1,2025-10-28_13h59.04.988,sm,2024.2.4,59.91906133210517,2025-10-28 13h59.15.069785 +0100,
27,0,27,,,,,,space,3.3000413999998273,None,None,3,1.1862662000003183,0.21507349999956205,None,0,0,0,0,,,,,1,0,1,0,,,,,27,0,27,0,1328.0051435000005,,,,,,,,,,,,,,,,,,,,,,,,,,,,,,,,,,,,,,,,,,,,,,,,,,,,,,,,,,Herbst,2.4676,1327.9899697,1327.9904938,1327.9906028000005,1328.0051435000005,1330.4888651,1330.4727797000005,1330.4776664,1330.4888651,1330.4888651,1330.4888651,1330.4888651,1332.4883174000006,1332.4883174000006,1332.4883174000006,1332.4883174000006,1332.4724101000002,3,1.1862662000003183,0.21507349999956205,None,,,,,,,,,,,,,,,,,,,,,1771,1,2025-10-28_13h59.04.988,sm,2024.2.4,59.91906133210517,2025-10-28 13h59.15.069785 +0100,
28,0,28,,,,,,space,3.3000413999998273,None,None,2,1.0973688000003676,0.17136130000017147,None,0,0,0,0,,,,,1,0,1,0,,,,,28,0,28,0,1332.4883174000006,,,,,,,,,,,,,,,,,,,,,,,,,,,,,,,,,,,,,,,,,,,,,,,,,,,,,,,,,,Ozean,2.1274,1332.4729252000006,1332.4734713000007,1332.4735785000003,1332.4883174000006,1334.6210391000004,1334.6055998000002,1334.6096529000006,1334.6210391000004,1334.6210391000004,1334.6210391000004,1334.6210391000004,1336.6212992,1336.6212992,1336.6212992,1336.6212992,1336.6058655000006,2,1.0973688000003676,0.17136130000017147,None,,,,,,,,,,,,,,,,,,,,,1771,1,2025-10-28_13h59.04.988,sm,2024.2.4,59.91906133210517,2025-10-28 13h59.15.069785 +0100,
29,0,29,,,,,,space,3.3000413999998273,None,None,2,1.0063522000000376,0.21354259999952774,None,0,0,0,0,,,,,1,0,1,0,,,,,29,0,29,0,1336.6212992,,,,,,,,,,,,,,,,,,,,,,,,,,,,,,,,,,,,,,,,,,,,,,,,,,,,,,,,,,Garten,2.3672,1336.6063769000002,1336.6069003000002,1336.6070071000004,1336.6212992,1338.9882632000008,1338.9720906000002,1338.9762133000004,1338.9882632000008,1338.9882632000008,1338.9882632000008,1338.9882632000008,1340.9877474000004,1340.9877474000004,1340.9877474000004,1340.9877474000004,1340.9720531000003,2,1.0063522000000376,0.21354259999952774,None,,,,,,,,,,,,,,,,,,,,,1771,1,2025-10-28_13h59.04.988,sm,2024.2.4,59.91906133210517,2025-10-28 13h59.15.069785 +0100,
30,0,30,,,,,,space,3.3000413999998273,None,None,2,0.9135695000004489,0.17752919999929873,None,0,0,0,0,,,,,1,0,1,0,,,,,30,0,30,0,1340.9877474000004,,,,,,,,,,,,,,,,,,,,,,,,,,,,,,,,,,,,,,,,,,,,,,,,,,,,,,,,,,Besucher,3.9851,1340.9725194000002,1340.9729954000004,1340.9730912000005,1340.9877474000004,1344.9873837000005,1344.9716026000006,1344.9755601000006,1344.9873837000005,1344.9873837000005,1344.9873837000005,1344.9873837000005,1346.9875232000004,1346.9875232000004,1346.9875232000004,1346.9875232000004,1346.9717083000005,2,0.9135695000004489,0.17752919999929873,None,,,,,,,,,,,,,,,,,,,,,1771,1,2025-10-28_13h59.04.988,sm,2024.2.4,59.91906133210517,2025-10-28 13h59.15.069785 +0100,
31,0,31,,,,,,space,3.3000413999998273,None,None,2,0.7795506000002206,0.16900410000016564,None,0,0,0,0,,,,,1,0,1,0,,,,,31,0,31,0,1346.9875232000004,,,,,,,,,,,,,,,,,,,,,,,,,,,,,,,,,,,,,,,,,,,,,,,,,,,,,,,,,,Hase,3.6558,1346.9722124,1346.9727326000002,1346.9728388000003,1346.9875232000004,1350.6538404000003,1350.6379920000008,1350.6411692000001,1350.6538404000003,1350.6538404000003,1350.6538404000003,1350.6538404000003,1352.6537130000006,1352.6537130000006,1352.6537130000006,1352.6537130000006,1352.6380544000003,2,0.7795506000002206,0.16900410000016564,None,,,,,,,,,,,,,,,,,,,,,1771,1,2025-10-28_13h59.04.988,sm,2024.2.4,59.91906133210517,2025-10-28 13h59.15.069785 +0100,
32,0,32,,,,,,space,3.3000413999998273,None,None,3,1.0689017000004242,0.21279319999939617,None,0,0,0,0,,,,,1,0,1,0,,,,,32,0,32,0,1352.6537130000006,,,,,,,,,,,,,,,,,,,,,,,,,,,,,,,,,,,,,,,,,,,,,,,,,,,,,,,,,,Afrika,3.8401,1352.6385757000007,1352.6390801000007,1352.639188,1352.6537130000006,1356.5033597000001,1356.4877964000007,1356.4920227000002,1356.5033597000001,1356.5033597000001,1356.5033597000001,1356.5033597000001,1358.5035471,1358.5035471,1358.5035471,1358.5035471,1358.4878575000002,3,1.0689017000004242,0.21279319999939617,None,,,,,,,,,,,,,,,,,,,,,1771,1,2025-10-28_13h59.04.988,sm,2024.2.4,59.91906133210517,2025-10-28 13h59.15.069785 +0100,
33,0,33,,,,,,space,3.3000413999998273,None,None,2,1.089995700000145,0.1535857999997461,None,0,0,0,0,,,,,1,0,1,0,,,,,33,0,33,0,1358.5035471,,,,,,,,,,,,,,,,,,,,,,,,,,,,,,,,,,,,,,,,,,,,,,,,,,,,,,,,,,Ehe,3.3064,1358.4883281000002,1358.4888137000007,1358.4889134000005,1358.5035471,1361.8196002000004,1361.8044628000007,1361.8081688000002,1361.8196002000004,1361.8196002000004,1361.8196002000004,1361.8196002000004,1363.8197086,1363.8197086,1363.8197086,1363.8197086,1363.8046618000008,2,1.089995700000145,0.1535857999997461,None,,,,,,,,,,,,,,,,,,,,,1771,1,2025-10-28_13h59.04.988,sm,2024.2.4,59.91906133210517,2025-10-28 13h59.15.069785 +0100,
34,0,34,,,,,,space,3.3000413999998273,None,None,3,0.8095667999996294,0.22767490000023827,None,0,0,0,0,,,,,1,0,1,0,,,,,34,0,34,0,1363.8197086,,,,,,,,,,,,,,,,,,,,,,,,,,,,,,,,,,,,,,,,,,,,,,,,,,,,,,,,,,Rock,3.4314,1363.8052002000004,1363.8059250000006,1363.8060916000004,1363.8197086,1367.2526061000008,1367.2373405000008,1367.2430251000005,1367.2526061000008,1367.2526061000008,1367.2526061000008,1367.2526061000008,1369.2531944000002,1369.2531944000002,1369.2531944000002,1369.2531944000002,1369.2370973000006,3,0.8095667999996294,0.22767490000023827,None,,,,,,,,,,,,,,,,,,,,,1771,1,2025-10-28_13h59.04.988,sm,2024.2.4,59.91906133210517,2025-10-28 13h59.15.069785 +0100,
35,0,35,,,,,,space,3.3000413999998273,None,None,3,1.3522121000005427,0.21841119999953662,None,0,0,0,0,,,,,1,0,1,0,,,,,35,0,35,0,1369.2531944000002,,,,,,,,,,,,,,,,,,,,,,,,,,,,,,,,,,,,,,,,,,,,,,,,,,,,,,,,,,Poesie,3.1687,1369.2376130000002,1369.2381307000005,1369.2382360000001,1369.2531944000002,1372.4356024000008,1372.4203112000005,1372.4246986000007,1372.4356024000008,1372.4356024000008,1372.4356024000008,1372.4356024000008,1374.4358596000002,1374.4358596000002,1374.4358596000002,1374.4358596000002,1374.4202605,3,1.3522121000005427,0.21841119999953662,None,,,,,,,,,,,,,,,,,,,,,1771,1,2025-10-28_13h59.04.988,sm,2024.2.4,59.91906133210517,2025-10-28 13h59.15.069785 +0100,
36,0,36,,,,,,space,3.3000413999998273,None,None,2,1.1988823000001503,0.18438440000045375,None,0,0,0,0,,,,,1,0,1,0,,,,,36,0,36,0,1374.4358596000002,,,,,,,,,,,,,,,,,,,,,,,,,,,,,,,,,,,,,,,,,,,,,,,,,,,,,,,,,,Gegenwart,3.0813,1374.4207722,1374.4212863000002,1374.4213904000007,1374.4358596000002,1377.5187611000001,1377.5031298000004,1377.5076018,1377.5187611000001,1377.5187611000001,1377.5187611000001,1377.5187611000001,1379.5190039000008,1379.5190039000008,1379.5190039000008,1379.5190039000008,1379.5031004000002,2,1.1988823000001503,0.18438440000045375,None,,,,,,,,,,,,,,,,,,,,,1771,1,2025-10-28_13h59.04.988,sm,2024.2.4,59.91906133210517,2025-10-28 13h59.15.069785 +0100,
37,0,37,,,,,,space,3.3000413999998273,None,None,2,1.2059711000001698,0.17852230000062264,None,0,0,0,0,,,,,1,0,1,0,,,,,37,0,37,0,1379.5190039000008,,,,,,,,,,,,,,,,,,,,,,,,,,,,,,,,,,,,,,,,,,,,,,,,,,,,,,,,,,Fledermaus,2.0747,1379.5035727000004,1379.5041438000007,1379.5042409000007,1379.5190039000008,1381.6021568000006,1381.5863419000007,1381.5908600000002,1381.6021568000006,1381.6021568000006,1381.6021568000006,1381.6021568000006,1383.6020146,1383.6020146,1383.6020146,1383.6020146,1383.5862642000002,2,1.2059711000001698,0.17852230000062264,None,,,,,,,,,,,,,,,,,,,,,1771,1,2025-10-28_13h59.04.988,sm,2024.2.4,59.91906133210517,2025-10-28 13h59.15.069785 +0100,
38,0,38,,,,,,space,3.3000413999998273,None,None,2,1.0816032000002451,0.1762682999997196,None,0,0,0,0,,,,,1,0,1,0,,,,,38,0,38,0,1383.6020146,,,,,,,,,,,,,,,,,,,,,,,,,,,,,,,,,,,,,,,,,,,,,,,,,,,,,,,,,,Rasen,2.1825,1383.5867701000006,1383.5872767,1383.5873803000004,1383.6020146,1385.7850353000003,1385.7693363000008,1385.7730013,1385.7850353000003,1385.7850353000003,1385.7850353000003,1385.7850353000003,1387.7850097,1387.7850097,1387.7850097,1387.7850097,1387.7692978000005,2,1.0816032000002451,0.1762682999997196,None,,,,,,,,,,,,,,,,,,,,,1771,1,2025-10-28_13h59.04.988,sm,2024.2.4,59.91906133210517,2025-10-28 13h59.15.069785 +0100,
39,0,39,,,,,,space,3.3000413999998273,None,None,2,1.3831387000000177,0.18154410000079224,None,0,0,0,0,,,,,1,0,1,0,,,,,39,0,39,0,1387.7850097,,,,,,,,,,,,,,,,,,,,,,,,,,,,,,,,,,,,,,,,,,,,,,,,,,,,,,,,,,Frieden,2.5121,1387.7698113000006,1387.7703325000002,1387.7704382000002,1387.7850097,1390.3012772000002,1390.2856196000002,1390.2896500000006,1390.3012772000002,1390.3012772000002,1390.3012772000002,1390.3012772000002,1392.3012583,1392.3012583,1392.3012583,1392.3012583,1392.2858967000002,2,1.3831387000000177,0.18154410000079224,None,,,,,,,,,,,,,,,,,,,,,1771,1,2025-10-28_13h59.04.988,sm,2024.2.4,59.91906133210517,2025-10-28 13h59.15.069785 +0100,
40,0,40,,,,,,space,3.3000413999998273,None,None,2,0.7974154000003182,0.16863829999965674,None,0,0,0,0,,,,,1,0,1,0,,,,,40,0,40,0,1392.3012583,,,,,,,,,,,,,,,,,,,,,,,,,,,,,,,,,,,,,,,,,,,,,,,,,,,,,,,,,,Eltern,5.4786,1392.2864105000008,1392.2869179000008,1392.2870229,1392.3012583,1397.7842308000008,1397.7686971000003,1397.7733294000009,1397.7842308000008,1397.7842308000008,1397.7842308000008,1397.7842308000008,1399.7842785000003,1399.7842785000003,1399.7842785000003,1399.7842785000003,1399.7686483000007,2,0.7974154000003182,0.16863829999965674,None,,,,,,,,,,,,,,,,,,,,,1771,1,2025-10-28_13h59.04.988,sm,2024.2.4,59.91906133210517,2025-10-28 13h59.15.069785 +0100,
41,0,41,,,,,,space,3.3000413999998273,None,None,2,1.0597349999998187,0.15957459999935963,None,0,0,0,0,,,,,1,0,1,0,,,,,41,0,41,0,1399.7842785000003,,,,,,,,,,,,,,,,,,,,,,,,,,,,,,,,,,,,,,,,,,,,,,,,,,,,,,,,,,Turnerin,2.87,1399.7691611,1399.7696784,1399.7697845000002,1399.7842785000003,1402.6673701,1402.6517373000006,1402.6559209000006,1402.6673701,1402.6673701,1402.6673701,1402.6673701,1404.6677893000005,1404.6677893000005,1404.6677893000005,1404.6677893000005,1404.6517956000007,2,1.0597349999998187,0.15957459999935963,None,,,,,,,,,,,,,,,,,,,,,1771,1,2025-10-28_13h59.04.988,sm,2024.2.4,59.91906133210517,2025-10-28 13h59.15.069785 +0100,
42,0,42,,,,,,space,3.3000413999998273,None,None,3,1.1381700000001729,0.22238799999922776,None,0,0,0,0,,,,,1,0,1,0,,,,,42,0,42,0,1404.6677893000005,,,,,,,,,,,,,,,,,,,,,,,,,,,,,,,,,,,,,,,,,,,,,,,,,,,,,,,,,,Fiktion,2.6028,1404.6523070000003,1404.6528219000002,1404.6529261000005,1404.6677893000005,1407.2836574000003,1407.2681119000008,1407.2722998000008,1407.2836574000003,1407.2836574000003,1407.2836574000003,1407.2836574000003,1409.2839486000003,1409.2839486000003,1409.2839486000003,1409.2839486000003,1409.2682838,3,1.1381700000001729,0.22238799999922776,None,,,,,,,,,,,,,,,,,,,,,1771,1,2025-10-28_13h59.04.988,sm,2024.2.4,59.91906133210517,2025-10-28 13h59.15.069785 +0100,
43,0,43,,,,,,space,3.3000413999998273,None,None,3,1.0627934000003734,0.20942869999998948,None,0,0,0,0,,,,,1,0,1,0,,,,,43,0,43,0,1409.2839486000003,,,,,,,,,,,,,,,,,,,,,,,,,,,,,,,,,,,,,,,,,,,,,,,,,,,,,,,,,,Zapfen,3.0121,1409.2688431000006,1409.2693585000006,1409.2694680000004,1409.2839486000003,1412.3001801,1412.2845175000002,1412.2883321000008,1412.3001801,1412.3001801,1412.3001801,1412.3001801,1414.3002431000004,1414.3002431000004,1414.3002431000004,1414.3002431000004,1414.2844720000003,3,1.0627934000003734,0.20942869999998948,None,,,,,,,,,,,,,,,,,,,,,1771,1,2025-10-28_13h59.04.988,sm,2024.2.4,59.91906133210517,2025-10-28 13h59.15.069785 +0100,
44,0,44,,,,,,space,3.3000413999998273,None,None,2,0.8226568000000043,0.17393489999994927,None,0,0,0,0,,,,,1,0,1,0,,,,,44,0,44,0,1414.3002431000004,,,,,,,,,,,,,,,,,,,,,,,,,,,,,,,,,,,,,,,,,,,,,,,,,,,,,,,,,,Professor,4.4112,1414.2849975000008,1414.2855017000002,1414.2856059000005,1414.3002431000004,1418.7163957000002,1418.7008629000002,1418.7055578000009,1418.7163957000002,1418.7163957000002,1418.7163957000002,1418.7163957000002,1420.7168340000007,1420.7168340000007,1420.7168340000007,1420.7168340000007,1420.7009449000006,2,0.8226568000000043,0.17393489999994927,None,,,,,,,,,,,,,,,,,,,,,1771,1,2025-10-28_13h59.04.988,sm,2024.2.4,59.91906133210517,2025-10-28 13h59.15.069785 +0100,
45,0,45,,,,,,space,3.3000413999998273,None,None,3,0.8315640999999232,0.2041081999996095,None,0,0,0,0,,,,,1,0,1,0,,,,,45,0,45,0,1420.7168340000007,,,,,,,,,,,,,,,,,,,,,,,,,,,,,,,,,,,,,,,,,,,,,,,,,,,,,,,,,,Kante,2.4139,1420.7014501000003,1420.7019656000002,1420.7020690000008,1420.7168340000007,1423.1329147000006,1423.1171725000004,1423.1213698000001,1423.1329147000006,1423.1329147000006,1423.1329147000006,1423.1329147000006,1425.1330486000006,1425.1330486000006,1425.1330486000006,1425.1330486000006,1425.1175177000005,3,0.8315640999999232,0.2041081999996095,None,,,,,,,,,,,,,,,,,,,,,1771,1,2025-10-28_13h59.04.988,sm,2024.2.4,59.91906133210517,2025-10-28 13h59.15.069785 +0100,
46,0,46,,,,,,space,3.3000413999998273,None,None,3,0.9848852999994051,0.2196867000002385,None,0,0,0,0,,,,,1,0,1,0,,,,,46,0,46,0,1425.1330486000006,,,,,,,,,,,,,,,,,,,,,,,,,,,,,,,,,,,,,,,,,,,,,,,,,,,,,,,,,,Nachricht,2.2957,1425.1180409000008,1425.1187311000003,1425.1188439000007,1425.1330486000006,1427.4323004000007,1427.4167371000003,1427.4210616,1427.4323004000007,1427.4323004000007,1427.4323004000007,1427.4323004000007,1429.4325361,1429.4325361,1429.4325361,1429.4325361,1429.4169886,3,0.9848852999994051,0.2196867000002385,None,,,,,,,,,,,,,,,,,,,,,1771,1,2025-10-28_13h59.04.988,sm,2024.2.4,59.91906133210517,2025-10-28 13h59.15.069785 +0100,
47,0,47,,,,,,space,3.3000413999998273,None,None,3,1.166940600000089,0.19037570000000414,None,0,0,0,0,,,,,1,0,1,0,,,,,47,0,47,0,1429.4325361,,,,,,,,,,,,,,,,,,,,,,,,,,,,,,,,,,,,,,,,,,,,,,,,,,,,,,,,,,Ringe,2.1952,1429.4174950000006,1429.4179975000006,1429.4181014000005,1429.4325361,1431.6321106000005,1431.6165667000005,1431.6200444000006,1431.6321106000005,1431.6321106000005,1431.6321106000005,1431.6321106000005,1433.6323865000004,1433.6323865000004,1433.6323865000004,1433.6323865000004,1433.6168065000002,3,1.166940600000089,0.19037570000000414,None,,,,,,,,,,,,,,,,,,,,,1771,1,2025-10-28_13h59.04.988,sm,2024.2.4,59.91906133210517,2025-10-28 13h59.15.069785 +0100,
48,0,48,,,,,,space,3.3000413999998273,None,None,3,1.0070246000004772,0.20483659999990778,None,0,0,0,0,,,,,1,0,1,0,,,,,48,0,48,0,1433.6323865000004,,,,,,,,,,,,,,,,,,,,,,,,,,,,,,,,,,,,,,,,,,,,,,,,,,,,,,,,,,Platz,3.5038,1433.6173149000006,1433.6178363000008,1433.6179404000004,1433.6323865000004,1437.1483825000005,1437.1329613000007,1437.1368858000005,1437.1483825000005,1437.1483825000005,1437.1483825000005,1437.1483825000005,1439.14865,1439.14865,1439.14865,1439.14865,1439.1329856000002,3,1.0070246000004772,0.20483659999990778,None,,,,,,,,,,,,,,,,,,,,,1771,1,2025-10-28_13h59.04.988,sm,2024.2.4,59.91906133210517,2025-10-28 13h59.15.069785 +0100,
49,0,49,,,,,,space,3.3000413999998273,None,None,3,1.1862891999999192,0.17716900000050373,None,0,0,0,0,,,,,1,0,1,0,,,,,49,0,49,0,1439.14865,,,,,,,,,,,,,,,,,,,,,,,,,,,,,,,,,,,,,,,,,,,,,,,,,,,,,,,,,,Strand,2.2379,1439.1334904000005,1439.1342462000002,1439.1343590000006,1439.14865,1441.3985818,1441.3828280000007,1441.3869833000008,1441.3985818,1441.3985818,1441.3985818,1441.3985818,1443.3984242000006,1443.3984242000006,1443.3984242000006,1443.3984242000006,1443.3827361000003,3,1.1862891999999192,0.17716900000050373,None,,,,,,,,,,,,,,,,,,,,,1771,1,2025-10-28_13h59.04.988,sm,2024.2.4,59.91906133210517,2025-10-28 13h59.15.069785 +0100,
50,0,50,,,,,,space,3.3000413999998273,None,None,3,1.1083314999996219,0.17013240000051155,None,0,0,0,0,,,,,1,0,1,0,,,,,50,0,50,0,1443.3984242000006,,,,,,,,,,,,,,,,,,,,,,,,,,,,,,,,,,,,,,,,,,,,,,,,,,,,,,,,,,Rauch,3.6213,1443.3832493,1443.3837667000007,1443.3838766000008,1443.3984242000006,1447.0315831000007,1447.0157850000005,1447.0195541000003,1447.0315831000007,1447.0315831000007,1447.0315831000007,1447.0315831000007,1449.0318074000006,1449.0318074000006,1449.0318074000006,1449.0318074000006,1449.0159541000003,3,1.1083314999996219,0.17013240000051155,None,,,,,,,,,,,,,,,,,,,,,1771,1,2025-10-28_13h59.04.988,sm,2024.2.4,59.91906133210517,2025-10-28 13h59.15.069785 +0100,
51,0,51,,,,,,space,3.3000413999998273,None,None,3,0.9146065000004455,0.21543079999992187,None,0,0,0,0,,,,,1,0,1,0,,,,,51,0,51,0,1449.0318074000006,,,,,,,,,,,,,,,,,,,,,,,,,,,,,,,,,,,,,,,,,,,,,,,,,,,,,,,,,,Seife,2.7586,1449.0164276000005,1449.0170605000003,1449.0171564000002,1449.0318074000006,1451.7983708000002,1451.7821371,1451.7859391000002,1451.7983708000002,1451.7983708000002,1451.7983708000002,1451.7983708000002,1453.7977112000008,1453.7977112000008,1453.7977112000008,1453.7977112000008,1453.7821263000005,3,0.9146065000004455,0.21543079999992187,None,,,,,,,,,,,,,,,,,,,,,1771,1,2025-10-28_13h59.04.988,sm,2024.2.4,59.91906133210517,2025-10-28 13h59.15.069785 +0100,
52,0,52,,,,,,space,3.3000413999998273,None,None,2,1.2578421000007438,0.17966720000003988,None,0,0,0,0,,,,,1,0,1,0,,,,,52,0,52,0,1453.7977112000008,,,,,,,,,,,,,,,,,,,,,,,,,,,,,,,,,,,,,,,,,,,,,,,,,,,,,,,,,,Bildung,2.1326,1453.7826389000002,1453.7831635000002,1453.7832667000002,1453.7977112000008,1455.9310463000002,1455.9158706000007,1455.9209538000005,1455.9310463000002,1455.9310463000002,1455.9310463000002,1455.9310463000002,1457.9311326000006,1457.9311326000006,1457.9311326000006,1457.9311326000006,1457.9154809000001,2,1.2578421000007438,0.17966720000003988,None,,,,,,,,,,,,,,,,,,,,,1771,1,2025-10-28_13h59.04.988,sm,2024.2.4,59.91906133210517,2025-10-28 13h59.15.069785 +0100,
53,0,53,,,,,,space,3.3000413999998273,None,None,2,1.4834412999998676,0.1715209000003597,None,0,0,0,0,,,,,1,0,1,0,,,,,53,0,53,0,1457.9311326000006,,,,,,,,,,,,,,,,,,,,,,,,,,,,,,,,,,,,,,,,,,,,,,,,,,,,,,,,,,Tischler,2.348,1457.9160095000007,1457.9166653000002,1457.9167720000005,1457.9311326000006,1460.2803118000002,1460.2650888000007,1460.2685442000002,1460.2803118000002,1460.2803118000002,1460.2803118000002,1460.2803118000002,1462.2804836000005,1462.2804836000005,1462.2804836000005,1462.2804836000005,1462.2651733000002,2,1.4834412999998676,0.1715209000003597,None,,,,,,,,,,,,,,,,,,,,,1771,1,2025-10-28_13h59.04.988,sm,2024.2.4,59.91906133210517,2025-10-28 13h59.15.069785 +0100,
54,0,54,,,,,,space,3.3000413999998273,None,None,3,1.176596100000097,0.1954968000000008,None,0,0,0,0,,,,,1,0,1,0,,,,,54,0,54,0,1462.2804836000005,,,,,,,,,,,,,,,,,,,,,,,,,,,,,,,,,,,,,,,,,,,,,,,,,,,,,,,,,,Radio,2.1217,1462.2656773000008,1462.2662299000003,1462.2663327,1462.2804836000005,1464.4136344000008,1464.3983031000007,1464.4021314000001,1464.4136344000008,1464.4136344000008,1464.4136344000008,1464.4136344000008,1466.4137494000006,1466.4137494000006,1466.4137494000006,1466.4137494000006,1466.3981915000004,3,1.176596100000097,0.1954968000000008,None,,,,,,,,,,,,,,,,,,,,,1771,1,2025-10-28_13h59.04.988,sm,2024.2.4,59.91906133210517,2025-10-28 13h59.15.069785 +0100,
55,0,55,,,,,,space,3.3000413999998273,None,None,3,1.1559456000004502,0.19345069999963016,None,0,0,0,0,,,,,1,0,1,0,,,,,55,0,55,0,1466.4137494000006,,,,,,,,,,,,,,,,,,,,,,,,,,,,,,,,,,,,,,,,,,,,,,,,,,,,,,,,,,Tür,2.3396,1466.3987004,1466.3992388000006,1466.3993432000007,1466.4137494000006,1468.7635874000007,1468.7478731,1468.7513957,1468.7635874000007,1468.7635874000007,1468.7635874000007,1468.7635874000007,1470.7634213000001,1470.7634213000001,1470.7634213000001,1470.7634213000001,1470.7480005000007,3,1.1559456000004502,0.19345069999963016,None,,,,,,,,,,,,,,,,,,,,,1771,1,2025-10-28_13h59.04.988,sm,2024.2.4,59.91906133210517,2025-10-28 13h59.15.069785 +0100,
56,0,56,,,,,,space,3.3000413999998273,None,None,3,1.365355300000374,0.1972976999995808,None,0,0,0,0,,,,,1,0,1,0,,,,,56,0,56,0,1470.7634213000001,,,,,,,,,,,,,,,,,,,,,,,,,,,,,,,,,,,,,,,,,,,,,,,,,,,,,,,,,,Schmerz,2.0765,1470.7485036000007,1470.7491243000004,1470.7493012000004,1470.7634213000001,1472.8465224000001,1472.8308766,1472.8341737,1472.8465224000001,1472.8465224000001,1472.8465224000001,1472.8465224000001,1474.8465762000005,1474.8465762000005,1474.8465762000005,1474.8465762000005,1474.8311330000006,3,1.365355300000374,0.1972976999995808,None,,,,,,,,,,,,,,,,,,,,,1771,1,2025-10-28_13h59.04.988,sm,2024.2.4,59.91906133210517,2025-10-28 13h59.15.069785 +0100,
57,0,57,,,,,,space,3.3000413999998273,None,None,3,1.1055240000005142,0.1935459999995146,None,0,0,0,0,,,,,1,0,1,0,,,,,57,0,57,0,1474.8465762000005,,,,,,,,,,,,,,,,,,,,,,,,,,,,,,,,,,,,,,,,,,,,,,,,,,,,,,,,,,Pizza,5.0441,1474.8316320000004,1474.8324204,1474.8325984000003,1474.8465762000005,1479.8962196000002,1479.8806481000001,1479.8849640000008,1479.8962196000002,1479.8962196000002,1479.8962196000002,1479.8962196000002,1481.8962827000005,1481.8962827000005,1481.8962827000005,1481.8962827000005,1481.8804546000001,3,1.1055240000005142,0.1935459999995146,None,,,,,,,,,,,,,,,,,,,,,1771,1,2025-10-28_13h59.04.988,sm,2024.2.4,59.91906133210517,2025-10-28 13h59.15.069785 +0100,
58,0,58,,,,,,space,3.3000413999998273,None,None,3,0.8293419999999969,0.1980664999991859,None,0,0,0,0,,,,,1,0,1,0,,,,,58,0,58,0,1481.8962827000005,,,,,,,,,,,,,,,,,,,,,,,,,,,,,,,,,,,,,,,,,,,,,,,,,,,,,,,,,,Stein,3.5885,1481.8809008000007,1481.8815149000002,1481.8816069000004,1481.8962827000005,1485.4967617000002,1485.4802919000003,1485.4851351000007,1485.4967617000002,1485.4967617000002,1485.4967617000002,1485.4967617000002,1487.4959765000003,1487.4959765000003,1487.4959765000003,1487.4959765000003,1487.480544,3,0.8293419999999969,0.1980664999991859,None,,,,,,,,,,,,,,,,,,,,,1771,1,2025-10-28_13h59.04.988,sm,2024.2.4,59.91906133210517,2025-10-28 13h59.15.069785 +0100,
59,0,59,,,,,,space,3.3000413999998273,None,None,2,1.0322544000000562,0.17444160000013653,None,0,0,0,0,,,,,1,0,1,0,,,,,59,0,59,0,1487.4959765000003,,,,,,,,,,,,,,,,,,,,,,,,,,,,,,,,,,,,,,,,,,,,,,,,,,,,,,,,,,Gesicht,3.5964,1487.4810477,1487.4815729000002,1487.4816762,1487.4959765000003,1491.0953819000006,1491.0797360000006,1491.0835129000006,1491.0953819000006,1491.0953819000006,1491.0953819000006,1491.0953819000006,1493.0957469000004,1493.0957469000004,1493.0957469000004,1493.0957469000004,1493.0801761000002,2,1.0322544000000562,0.17444160000013653,None,,,,,,,,,,,,,,,,,,,,,1771,1,2025-10-28_13h59.04.988,sm,2024.2.4,59.91906133210517,2025-10-28 13h59.15.069785 +0100,
60,0,60,,,,,,space,3.3000413999998273,None,None,3,0.868757899999764,0.22537689999990107,None,0,0,0,0,,,,,1,0,1,0,,,,,60,0,60,0,1493.0957469000004,,,,,,,,,,,,,,,,,,,,,,,,,,,,,,,,,,,,,,,,,,,,,,,,,,,,,,,,,,Mappe,2.7056,1493.0806848000002,1493.0812044000004,1493.0813106000005,1493.0957469000004,1495.8122924000008,1495.7963465000003,1495.8005150000008,1495.8122924000008,1495.8122924000008,1495.8122924000008,1495.8122924000008,1497.8121527000003,1497.8121527000003,1497.8121527000003,1497.8121527000003,1497.7963904000007,3,0.868757899999764,0.22537689999990107,None,,,,,,,,,,,,,,,,,,,,,1771,1,2025-10-28_13h59.04.988,sm,2024.2.4,59.91906133210517,2025-10-28 13h59.15.069785 +0100,
61,0,61,,,,,,space,3.3000413999998273,None,None,3,1.0459756999998717,0.1804963000004136,None,0,0,0,0,,,,,1,0,1,0,,,,,61,0,61,0,1497.8121527000003,,,,,,,,,,,,,,,,,,,,,,,,,,,,,,,,,,,,,,,,,,,,,,,,,,,,,,,,,,Loch,2.7918,1497.7968975000003,1497.7973995000002,1497.7975071,1497.8121527000003,1500.6115609000008,1500.5965961000002,1500.6003144000006,1500.6115609000008,1500.6115609000008,1500.6115609000008,1500.6115609000008,1502.6117577000005,1502.6117577000005,1502.6117577000005,1502.6117577000005,1502.5959707000002,3,1.0459756999998717,0.1804963000004136,None,,,,,,,,,,,,,,,,,,,,,1771,1,2025-10-28_13h59.04.988,sm,2024.2.4,59.91906133210517,2025-10-28 13h59.15.069785 +0100,
62,0,62,,,,,,space,3.3000413999998273,None,None,3,0.9493937000006554,0.21927509999932226,None,0,0,0,0,,,,,1,0,1,0,,,,,62,0,62,0,1502.6117577000005,,,,,,,,,,,,,,,,,,,,,,,,,,,,,,,,,,,,,,,,,,,,,,,,,,,,,,,,,,Nummer,3.5643,1502.5964775000002,1502.5969744000004,1502.5970779000008,1502.6117577000005,1506.1781671000008,1506.1623095000004,1506.1664883000003,1506.1781671000008,1506.1781671000008,1506.1781671000008,1506.1781671000008,1508.1780488000004,1508.1780488000004,1508.1780488000004,1508.1780488000004,1508.1623689000007,3,0.9493937000006554,0.21927509999932226,None,,,,,,,,,,,,,,,,,,,,,1771,1,2025-10-28_13h59.04.988,sm,2024.2.4,59.91906133210517,2025-10-28 13h59.15.069785 +0100,
