thisN,thisTrialN,thisRepN,Cue,Target,Mediator1,Mediator2,iti,scanner_ready_press.keys,scanner_ready_press.rt,scanner_ready_press.duration,skip_trigger.keys,living_nonliving.keys,living_nonliving.rt,living_nonliving.duration,end_mapping.keys,blocks.thisRepN,blocks.thisTrialN,blocks.thisN,blocks.thisIndex,load_and_shuffle.thisRepN,load_and_shuffle.thisTrialN,load_and_shuffle.thisN,load_and_shuffle.thisIndex,runs.thisRepN,runs.thisTrialN,runs.thisN,runs.thisIndex,iti_loading_loop.thisRepN,iti_loading_loop.thisTrialN,iti_loading_loop.thisN,iti_loading_loop.thisIndex,semantic_mapping_run.thisRepN,semantic_mapping_run.thisTrialN,semantic_mapping_run.thisN,semantic_mapping_run.thisIndex,thisRow.t,notes,welcome.started,welcome_text.started,key_resp__welcome.started,welcome.stopped,key_resp__welcome.keys,key_resp__welcome.rt,key_resp__welcome.duration,scout.started,scout_text.started,key_resp.started,scout.stopped,key_resp.keys,key_resp.rt,key_resp.duration,instructions_semantic_mapping1.started,sm_instructions1_text.started,sm_instructions1_key.started,instructions_semantic_mapping1.stopped,sm_instructions1_key.keys,sm_instructions1_key.rt,sm_instructions1_key.duration,instructions_semantic_mapping2.started,sm_instructions2_text.started,sm_instructions2_key.started,instructions_semantic_mapping2.stopped,sm_instructions2_key.keys,sm_instructions2_key.rt,sm_instructions2_key.duration,reset_run.started,reset_run.stopped,shuffle_items.started,shuffle_items.stopped,set_up_runs.started,set_up_runs.stopped,load_iti.started,load_iti.stopped,prep_scanner.started,scanner_ready_press.started,ready_set_text.started,prep_scanner.stopped,runs.scanner_ready_press.keys,runs.scanner_ready_press.rt,runs.scanner_ready_press.duration,wait_for_trigger.started,starting_soon.started,skip_trigger.started,wait_for_trigger.stopped,runs.skip_trigger.keys,blank.started,begin_end_run_cross.started,sound_1.started,sound_1.stopped,sound_2.started,sound_2.stopped,blank.stopped,CurrentItem,CurrentITI,set_up_trial.started,set_up_trial.stopped,sm_iti.started,iti_cross.started,iti_cross.stopped,sm_iti.stopped,item.started,living_nonliving.started,end_mapping.started,living_nonliving_text.started,semantic_map_item.started,living_nonliving.stopped,end_mapping.stopped,living_nonliving_text.stopped,semantic_map_item.stopped,item.stopped,semantic_mapping_run.living_nonliving.keys,semantic_mapping_run.living_nonliving.rt,semantic_mapping_run.living_nonliving.duration,semantic_mapping_run.end_mapping.keys,fieldmap.started,fieldmap.stopped,runs.fm_key.keys,task_break.started,feeback_text.started,task_break_text.started,task_break_resp.started,feeback_text.stopped,task_break.stopped,runs.task_break_resp.keys,runs.task_break_resp.rt,runs.task_break_resp.duration,begin_end_run_cross.stopped,fm_text.started,fm_key.started,runs.fm_key.rt,runs.fm_key.duration,thanks.started,thanks_text.started,thanks_text.stopped,thanks.stopped,PID,MRI,date,expName,psychopyVersion,frameRate,expStart,
,,,,,,,,,,,,,,,,,,,,,,,,,,,,,,,,,,,,,,0.004030199999760953,0.012953299999935552,0.012953299999935552,3.1901551999999356,space,3.0762680000007094,None,,,,,,,,,,,,,,,,,,,,,,,,,,,,,,,,,,,,,,,,,,,,,,,,,,,,,,,,,,,,,,,,,,,,,,,,,,,,,,,,,,,,,,,,,,,,1311,1,2025-10-10_14h41.06.143,sm,2024.2.4,60.0047043690617,2025-10-10 14h41.15.423138 +0200,
,,,,,,,,,,,,,,,,,,,,,,,,,,,,,,,,,,,,,,,,,,,,,3.1902730999991036,3.201164299998709,3.201164299998709,91.72695219999878,space,88.51277879999907,None,,,,,,,,,,,,,,,,,,,,,,,,,,,,,,,,,,,,,,,,,,,,,,,,,,,,,,,,,,,,,,,,,,,,,,,,,,,,,,,,,,,,,1311,1,2025-10-10_14h41.06.143,sm,2024.2.4,60.0047043690617,2025-10-10 14h41.15.423138 +0200,
,,,,,,,,,,,,,,,,,,,,,,,,,,,,,,,,,,,,,,,,,,,,,,,,,,,,91.72707989999981,91.74148329999844,91.74148329999844,101.15746349999972,2,9.402401800000007,None,,,,,,,,,,,,,,,,,,,,,,,,,,,,,,,,,,,,,,,,,,,,,,,,,,,,,,,,,,,,,,,,,,,,,,,,,,,,,,1311,1,2025-10-10_14h41.06.143,sm,2024.2.4,60.0047043690617,2025-10-10 14h41.15.423138 +0200,
,,,,,,,,,,,,,,,,,,,,,,,,,,,,,,,,,,,,,,,,,,,,,,,,,,,,,,,,,,,101.1575744999991,101.17262449999907,101.17262449999907,113.5400187999985,2,12.358050799999546,None,,,,,,,,,,,,,,,,,,,,,,,,,,,,,,,,,,,,,,,,,,,,,,,,,,,,,,,,,,,,,,,,,,,,,,,1311,1,2025-10-10_14h41.06.143,sm,2024.2.4,60.0047043690617,2025-10-10 14h41.15.423138 +0200,
0,0,0,Vergangenheit,Zeit,Gegenwart,Geschichte,2.6407,space,2.1568664999995235,None,None,2,1.5140681000011682,0.16454439999870374,None,0,0,0,0,0,79,79,7,0,0,0,0,0,79,79,8,0,0,0,0,174.16958619999969,,,,,,,,,,,,,,,,,,,,,,,,,,,,,,113.54087609999988,113.54156749999856,113.6072949999998,113.60752719999982,113.61195329999828,113.61222329999873,113.6414836999993,113.64167149999957,113.64816989999963,113.65206959999887,113.65206959999887,115.82366000000002,space,2.1568664999995235,None,115.8238222,115.84030569999959,115.84030569999959,162.13882789999843,None,162.2064776999996,162.2151763999991,162.22086373333272,163.43113379999886,172.15345926666512,173.1618725999997,174.15352319999874,Apfel,2.6407,174.1548232999994,174.15548419999868,174.15845789999912,174.16958619999969,176.81991689999995,176.80404329999874,176.80764219999946,176.81991689999995,176.81991689999995,176.81991689999995,176.81991689999995,178.81966699999975,178.81966699999975,178.81966699999975,178.81966699999975,178.80402829999912,2,1.5140681000011682,0.16454439999870374,None,,,,,,,,,,,,,,,,,,,,,,1311,1,2025-10-10_14h41.06.143,sm,2024.2.4,60.0047043690617,2025-10-10 14h41.15.423138 +0200,
1,0,1,,,,,,space,2.1568664999995235,None,None,3,1.2473373000011634,0.16220140000041283,None,0,0,0,0,,,,,0,0,0,0,,,,,1,0,1,0,178.81966699999975,,,,,,,,,,,,,,,,,,,,,,,,,,,,,,,,,,,,,,,,,,,,,,,,,,,,,,,,,Weltraum,2.0913,178.80456589999994,178.8050637999986,178.80517469999904,178.81966699999975,180.9195155999987,180.90393529999892,180.9080791999986,180.9195155999987,180.9195155999987,180.9195155999987,180.9195155999987,182.91971639999974,182.91971639999974,182.91971639999974,182.91971639999974,182.9035512999999,3,1.2473373000011634,0.16220140000041283,None,,,,,,,,,,,,,,,,,,,,,,1311,1,2025-10-10_14h41.06.143,sm,2024.2.4,60.0047043690617,2025-10-10 14h41.15.423138 +0200,
2,0,2,,,,,,space,2.1568664999995235,None,None,3,0.8730624999989232,0.18848410000100557,None,0,0,0,0,,,,,0,0,0,0,,,,,2,0,2,0,182.91971639999974,,,,,,,,,,,,,,,,,,,,,,,,,,,,,,,,,,,,,,,,,,,,,,,,,,,,,,,,,Bildung,2.2315,182.9039757999999,182.9044518999999,182.90454169999975,182.91971639999974,185.15246079999997,185.1369438999991,185.1418608999993,185.15246079999997,185.15246079999997,185.15246079999997,185.15246079999997,187.15261869999995,187.15261869999995,187.15261869999995,187.15261869999995,187.1370042999988,3,0.8730624999989232,0.18848410000100557,None,,,,,,,,,,,,,,,,,,,,,,1311,1,2025-10-10_14h41.06.143,sm,2024.2.4,60.0047043690617,2025-10-10 14h41.15.423138 +0200,
3,0,3,,,,,,space,2.1568664999995235,None,None,3,0.815753400000176,0.16948559999946156,None,0,0,0,0,,,,,0,0,0,0,,,,,3,0,3,0,187.15261869999995,,,,,,,,,,,,,,,,,,,,,,,,,,,,,,,,,,,,,,,,,,,,,,,,,,,,,,,,,Kamera,3.0599,187.1375169999992,187.13806759999898,187.13817389999895,187.15261869999995,190.21881609999946,190.20348009999907,190.21020809999936,190.21881609999946,190.21881609999946,190.21881609999946,190.21881609999946,192.2192075999992,192.2192075999992,192.2192075999992,192.2192075999992,192.20345909999924,3,0.815753400000176,0.16948559999946156,None,,,,,,,,,,,,,,,,,,,,,,1311,1,2025-10-10_14h41.06.143,sm,2024.2.4,60.0047043690617,2025-10-10 14h41.15.423138 +0200,
4,0,4,,,,,,space,2.1568664999995235,None,None,3,0.7845926999998483,0.15994129999853612,None,0,0,0,0,,,,,0,0,0,0,,,,,4,0,4,0,192.2192075999992,,,,,,,,,,,,,,,,,,,,,,,,,,,,,,,,,,,,,,,,,,,,,,,,,,,,,,,,,Schutz,2.4765,192.20398019999993,192.2045120999992,192.20461729999988,192.2192075999992,194.70227319999867,194.68623219999972,194.68964089999827,194.70227319999867,194.70227319999867,194.70227319999867,194.70227319999867,196.7020182999986,196.7020182999986,196.7020182999986,196.7020182999986,196.68624309999905,3,0.7845926999998483,0.15994129999853612,None,,,,,,,,,,,,,,,,,,,,,,1311,1,2025-10-10_14h41.06.143,sm,2024.2.4,60.0047043690617,2025-10-10 14h41.15.423138 +0200,
5,0,5,,,,,,space,2.1568664999995235,None,None,3,1.6783622000002651,0.1940587000008236,None,0,0,0,0,,,,,0,0,0,0,,,,,5,0,5,0,196.7020182999986,,,,,,,,,,,,,,,,,,,,,,,,,,,,,,,,,,,,,,,,,,,,,,,,,,,,,,,,,Schwimmen,3.8693,196.6867592999988,196.68750739999996,196.68761059999997,196.7020182999986,200.58476459999838,200.56929039999886,200.57349969999996,200.58476459999838,200.58476459999838,200.58476459999838,200.58476459999838,202.58495169999878,202.58495169999878,202.58495169999878,202.58495169999878,202.56935169999997,3,1.6783622000002651,0.1940587000008236,None,,,,,,,,,,,,,,,,,,,,,,1311,1,2025-10-10_14h41.06.143,sm,2024.2.4,60.0047043690617,2025-10-10 14h41.15.423138 +0200,
6,0,6,,,,,,space,2.1568664999995235,None,None,3,0.7971642000011343,0.16657069999928353,None,0,0,0,0,,,,,0,0,0,0,,,,,6,0,6,0,202.58495169999878,,,,,,,,,,,,,,,,,,,,,,,,,,,,,,,,,,,,,,,,,,,,,,,,,,,,,,,,,Nummer,2.0226,202.56986399999914,202.57052499999918,202.5706296999997,202.58495169999878,204.61811809999926,204.60246879999977,204.60595979999925,204.61811809999926,204.61811809999926,204.61811809999926,204.61811809999926,206.61824849999903,206.61824849999903,206.61824849999903,206.61824849999903,206.60264669999924,3,0.7971642000011343,0.16657069999928353,None,,,,,,,,,,,,,,,,,,,,,,1311,1,2025-10-10_14h41.06.143,sm,2024.2.4,60.0047043690617,2025-10-10 14h41.15.423138 +0200,
7,0,7,,,,,,space,2.1568664999995235,None,None,3,1.2167291000005207,0.1813254999997298,None,0,0,0,0,,,,,0,0,0,0,,,,,7,0,7,0,206.61824849999903,,,,,,,,,,,,,,,,,,,,,,,,,,,,,,,,,,,,,,,,,,,,,,,,,,,,,,,,,Zimmer,4.0765,206.60316559999956,206.60377959999823,206.60395569999855,206.61824849999903,210.70197199999893,210.68543899999895,210.69128909999927,210.70197199999893,210.70197199999893,210.70197199999893,210.70197199999893,212.70108739999887,212.70108739999887,212.70108739999887,212.70108739999887,212.68566269999974,3,1.2167291000005207,0.1813254999997298,None,,,,,,,,,,,,,,,,,,,,,,1311,1,2025-10-10_14h41.06.143,sm,2024.2.4,60.0047043690617,2025-10-10 14h41.15.423138 +0200,
8,0,8,,,,,,space,2.1568664999995235,None,None,3,1.65588679999928,0.20275880000008328,None,0,0,0,0,,,,,0,0,0,0,,,,,8,0,8,0,212.70108739999887,,,,,,,,,,,,,,,,,,,,,,,,,,,,,,,,,,,,,,,,,,,,,,,,,,,,,,,,,Center,2.0162,212.68617549999908,212.68669469999986,212.6868061999994,212.70108739999887,214.71730169999864,214.701767999999,214.7081681999989,214.71730169999864,214.71730169999864,214.71730169999864,214.71730169999864,216.7177120999986,216.7177120999986,216.7177120999986,216.7177120999986,216.7020106,3,1.65588679999928,0.20275880000008328,None,,,,,,,,,,,,,,,,,,,,,,1311,1,2025-10-10_14h41.06.143,sm,2024.2.4,60.0047043690617,2025-10-10 14h41.15.423138 +0200,
9,0,9,,,,,,space,2.1568664999995235,None,None,2,0.8514168000001519,0.19232080000074347,None,0,0,0,0,,,,,0,0,0,0,,,,,9,0,9,0,216.7177120999986,,,,,,,,,,,,,,,,,,,,,,,,,,,,,,,,,,,,,,,,,,,,,,,,,,,,,,,,,Handwerker,3.1265,216.70249669999976,216.7031320999995,216.70323859999917,216.7177120999986,219.85039469999901,219.83482419999928,219.84090999999898,219.85039469999901,219.85039469999901,219.85039469999901,219.85039469999901,221.8504381999992,221.8504381999992,221.8504381999992,221.8504381999992,221.83484209999915,2,0.8514168000001519,0.19232080000074347,None,,,,,,,,,,,,,,,,,,,,,,1311,1,2025-10-10_14h41.06.143,sm,2024.2.4,60.0047043690617,2025-10-10 14h41.15.423138 +0200,
10,0,10,,,,,,space,2.1568664999995235,None,None,None,,,None,0,0,0,0,,,,,0,0,0,0,,,,,10,0,10,0,221.8504381999992,,,,,,,,,,,,,,,,,,,,,,,,,,,,,,,,,,,,,,,,,,,,,,,,,,,,,,,,,Olympia,2.2027,221.8353546999988,221.83592569999928,221.83603579999908,221.8504381999992,224.06666339999902,224.05116669999916,224.05895859999873,224.06666339999902,224.06666339999902,224.06666339999902,224.06666339999902,226.06686269999955,226.06686269999955,226.06686269999955,226.06686269999955,226.05127459999858,None,,,None,,,,,,,,,,,,,,,,,,,,,,1311,1,2025-10-10_14h41.06.143,sm,2024.2.4,60.0047043690617,2025-10-10 14h41.15.423138 +0200,
11,0,11,,,,,,space,2.1568664999995235,None,None,2,0.6950109999997949,0.1252291000000696,None,0,0,0,0,,,,,0,0,0,0,,,,,11,0,11,0,226.06686269999955,,,,,,,,,,,,,,,,,,,,,,,,,,,,,,,,,,,,,,,,,,,,,,,,,,,,,,,,,Publikum,5.0454,226.05175809999855,226.05226169999878,226.05236779999905,226.06686269999955,231.1163822999988,231.1009368999985,231.1075798999991,231.1163822999988,231.1163822999988,231.1163822999988,231.1163822999988,233.11674309999944,233.11674309999944,233.11674309999944,233.11674309999944,233.1008796999995,2,0.6950109999997949,0.1252291000000696,None,,,,,,,,,,,,,,,,,,,,,,1311,1,2025-10-10_14h41.06.143,sm,2024.2.4,60.0047043690617,2025-10-10 14h41.15.423138 +0200,
12,0,12,,,,,,space,2.1568664999995235,None,None,2,0.6180666000000201,0.1255738999989262,None,0,0,0,0,,,,,0,0,0,0,,,,,12,0,12,0,233.11674309999944,,,,,,,,,,,,,,,,,,,,,,,,,,,,,,,,,,,,,,,,,,,,,,,,,,,,,,,,,Zunge,2.6754,233.10140059999867,233.10190059999877,233.10200499999883,233.11674309999944,235.7995637999993,235.78386249999858,235.78767499999958,235.7995637999993,235.7995637999993,235.7995637999993,235.7995637999993,237.79943959999946,237.79943959999946,237.79943959999946,237.79943959999946,237.78400299999885,2,0.6180666000000201,0.1255738999989262,None,,,,,,,,,,,,,,,,,,,,,,1311,1,2025-10-10_14h41.06.143,sm,2024.2.4,60.0047043690617,2025-10-10 14h41.15.423138 +0200,
13,0,13,,,,,,space,2.1568664999995235,None,None,3,0.9652383000011469,0.16534130000036384,None,0,0,0,0,,,,,0,0,0,0,,,,,13,0,13,0,237.79943959999946,,,,,,,,,,,,,,,,,,,,,,,,,,,,,,,,,,,,,,,,,,,,,,,,,,,,,,,,,Hütte,5.3152,237.78451779999887,237.7851068,237.78521359999831,237.79943959999946,243.1156289999999,243.10016629999882,243.1047663999998,243.1156289999999,243.1156289999999,243.1156289999999,243.1156289999999,245.1158293999997,245.1158293999997,245.1158293999997,245.1158293999997,245.10032679999858,3,0.9652383000011469,0.16534130000036384,None,,,,,,,,,,,,,,,,,,,,,,1311,1,2025-10-10_14h41.06.143,sm,2024.2.4,60.0047043690617,2025-10-10 14h41.15.423138 +0200,
14,0,14,,,,,,space,2.1568664999995235,None,None,2,0.897140600000057,0.138284399999975,None,0,0,0,0,,,,,0,0,0,0,,,,,14,0,14,0,245.1158293999997,,,,,,,,,,,,,,,,,,,,,,,,,,,,,,,,,,,,,,,,,,,,,,,,,,,,,,,,,Schnee,2.9548,245.10084499999903,245.10136379999858,245.10147329999927,245.1158293999997,248.08201349999945,248.06641229999877,248.07010499999888,248.08201349999945,248.08201349999945,248.08201349999945,248.08201349999945,250.08215649999875,250.08215649999875,250.08215649999875,250.08215649999875,250.06665279999834,2,0.897140600000057,0.138284399999975,None,,,,,,,,,,,,,,,,,,,,,,1311,1,2025-10-10_14h41.06.143,sm,2024.2.4,60.0047043690617,2025-10-10 14h41.15.423138 +0200,
15,0,15,,,,,,space,2.1568664999995235,None,None,2,1.4127216999986558,0.17346739999993588,None,0,0,0,0,,,,,0,0,0,0,,,,,15,0,15,0,250.08215649999875,,,,,,,,,,,,,,,,,,,,,,,,,,,,,,,,,,,,,,,,,,,,,,,,,,,,,,,,,Essen,2.0757,250.06716799999958,250.0677345999993,250.06783819999873,250.08215649999875,252.16521869999997,252.14954989999933,252.15287829999943,252.16521869999997,252.16521869999997,252.16521869999997,252.16521869999997,254.1654509,254.1654509,254.1654509,254.1654509,254.1494731999992,2,1.4127216999986558,0.17346739999993588,None,,,,,,,,,,,,,,,,,,,,,,1311,1,2025-10-10_14h41.06.143,sm,2024.2.4,60.0047043690617,2025-10-10 14h41.15.423138 +0200,
16,0,16,,,,,,space,2.1568664999995235,None,None,3,0.8933933999996952,0.15737389999958395,None,0,0,0,0,,,,,0,0,0,0,,,,,16,0,16,0,254.1654509,,,,,,,,,,,,,,,,,,,,,,,,,,,,,,,,,,,,,,,,,,,,,,,,,,,,,,,,,Datei,3.6237,254.14998619999824,254.1505036999988,254.15060959999937,254.1654509,257.79825339999843,257.7827176999999,257.78637459999845,257.79825339999843,257.79825339999843,257.79825339999843,257.79825339999843,259.7984217999983,259.7984217999983,259.7984217999983,259.7984217999983,259.7825377999998,3,0.8933933999996952,0.15737389999958395,None,,,,,,,,,,,,,,,,,,,,,,1311,1,2025-10-10_14h41.06.143,sm,2024.2.4,60.0047043690617,2025-10-10 14h41.15.423138 +0200,
17,0,17,,,,,,space,2.1568664999995235,None,None,2,0.9694300000010116,0.12973299999976007,None,0,0,0,0,,,,,0,0,0,0,,,,,17,0,17,0,259.7984217999983,,,,,,,,,,,,,,,,,,,,,,,,,,,,,,,,,,,,,,,,,,,,,,,,,,,,,,,,,Klee,5.7005,259.7830529999992,259.7836591999985,259.78384279999955,259.7984217999983,265.4977792999998,265.48236649999853,265.4859147999996,265.4977792999998,265.4977792999998,265.4977792999998,265.4977792999998,267.4979893,267.4979893,267.4979893,267.4979893,267.48217159999876,2,0.9694300000010116,0.12973299999976007,None,,,,,,,,,,,,,,,,,,,,,,1311,1,2025-10-10_14h41.06.143,sm,2024.2.4,60.0047043690617,2025-10-10 14h41.15.423138 +0200,
18,0,18,,,,,,space,2.1568664999995235,None,None,3,0.8412185999986832,0.15259360000163724,None,0,0,0,0,,,,,0,0,0,0,,,,,18,0,18,0,267.4979893,,,,,,,,,,,,,,,,,,,,,,,,,,,,,,,,,,,,,,,,,,,,,,,,,,,,,,,,,Tube,3.344,267.4826788999999,267.48322709999957,267.4833330999991,267.4979893,270.8476119999996,270.83206079999945,270.8356090999987,270.8476119999996,270.8476119999996,270.8476119999996,270.8476119999996,272.84747509999943,272.84747509999943,272.84747509999943,272.84747509999943,272.83186659999956,3,0.8412185999986832,0.15259360000163724,None,,,,,,,,,,,,,,,,,,,,,,1311,1,2025-10-10_14h41.06.143,sm,2024.2.4,60.0047043690617,2025-10-10 14h41.15.423138 +0200,
19,0,19,,,,,,space,2.1568664999995235,None,None,3,0.8676887999990868,0.2055850000015198,None,0,0,0,0,,,,,0,0,0,0,,,,,19,0,19,0,272.84747509999943,,,,,,,,,,,,,,,,,,,,,,,,,,,,,,,,,,,,,,,,,,,,,,,,,,,,,,,,,Schwarz,3.4343,272.83238639999945,272.8329294999985,272.8330346999992,272.84747509999943,276.2971817999987,276.28197239999827,276.2862260999991,276.2971817999987,276.2971817999987,276.2971817999987,276.2971817999987,278.2972332999998,278.2972332999998,278.2972332999998,278.2972332999998,278.28166109999984,3,0.8676887999990868,0.2055850000015198,None,,,,,,,,,,,,,,,,,,,,,,1311,1,2025-10-10_14h41.06.143,sm,2024.2.4,60.0047043690617,2025-10-10 14h41.15.423138 +0200,
20,0,20,,,,,,space,2.1568664999995235,None,None,2,1.1649606000009953,0.15245229999891308,None,0,0,0,0,,,,,0,0,0,0,,,,,20,0,20,0,278.2972332999998,,,,,,,,,,,,,,,,,,,,,,,,,,,,,,,,,,,,,,,,,,,,,,,,,,,,,,,,,Radio,3.0984,278.2821736999995,278.2826897999985,278.2827966999994,278.2972332999998,281.397062,281.3812822,281.3860445999999,281.397062,281.397062,281.397062,281.397062,283.39676079999845,283.39676079999845,283.39676079999845,283.39676079999845,283.3812850999984,2,1.1649606000009953,0.15245229999891308,None,,,,,,,,,,,,,,,,,,,,,,1311,1,2025-10-10_14h41.06.143,sm,2024.2.4,60.0047043690617,2025-10-10 14h41.15.423138 +0200,
21,0,21,,,,,,space,2.1568664999995235,None,None,3,1.1252861000011762,0.15159719999974186,None,0,0,0,0,,,,,0,0,0,0,,,,,21,0,21,0,283.39676079999845,,,,,,,,,,,,,,,,,,,,,,,,,,,,,,,,,,,,,,,,,,,,,,,,,,,,,,,,,Nebel,2.7623,283.3817999999992,283.3824558999986,283.38256459999866,283.39676079999845,286.1632563999992,286.1476712999993,286.1515793999988,286.1632563999992,286.1632563999992,286.1632563999992,286.1632563999992,288.1634798999985,288.1634798999985,288.1634798999985,288.1634798999985,288.1475494999995,3,1.1252861000011762,0.15159719999974186,None,,,,,,,,,,,,,,,,,,,,,,1311,1,2025-10-10_14h41.06.143,sm,2024.2.4,60.0047043690617,2025-10-10 14h41.15.423138 +0200,
22,0,22,,,,,,space,2.1568664999995235,None,None,3,0.9953118000012182,0.20410379999884753,None,0,0,0,0,,,,,0,0,0,0,,,,,22,0,22,0,288.1634798999985,,,,,,,,,,,,,,,,,,,,,,,,,,,,,,,,,,,,,,,,,,,,,,,,,,,,,,,,,Frieden,2.9053,288.1480653999988,288.14872189999915,288.1488296999996,288.1634798999985,291.0797638999993,291.0640463999989,291.0708885999993,291.0797638999993,291.0797638999993,291.0797638999993,291.0797638999993,293.07971819999875,293.07971819999875,293.07971819999875,293.07971819999875,293.0640063999999,3,0.9953118000012182,0.20410379999884753,None,,,,,,,,,,,,,,,,,,,,,,1311,1,2025-10-10_14h41.06.143,sm,2024.2.4,60.0047043690617,2025-10-10 14h41.15.423138 +0200,
23,0,23,,,,,,space,2.1568664999995235,None,None,3,0.7613411999991513,0.16356640000049083,None,0,0,0,0,,,,,0,0,0,0,,,,,23,0,23,0,293.07971819999875,,,,,,,,,,,,,,,,,,,,,,,,,,,,,,,,,,,,,,,,,,,,,,,,,,,,,,,,,Gold,3.7593,293.0645160999993,293.0650261999999,293.06512739999926,293.07971819999875,296.8456217999992,296.8303624,296.83346729999903,296.8456217999992,296.8456217999992,296.8456217999992,296.8456217999992,298.84509479999906,298.84509479999906,298.84509479999906,298.84509479999906,298.82921949999945,3,0.7613411999991513,0.16356640000049083,None,,,,,,,,,,,,,,,,,,,,,,1311,1,2025-10-10_14h41.06.143,sm,2024.2.4,60.0047043690617,2025-10-10 14h41.15.423138 +0200,
24,0,24,,,,,,space,2.1568664999995235,None,None,2,0.7285479000001942,0.1598729999986972,None,0,0,0,0,,,,,0,0,0,0,,,,,24,0,24,0,298.84509479999906,,,,,,,,,,,,,,,,,,,,,,,,,,,,,,,,,,,,,,,,,,,,,,,,,,,,,,,,,Spion,2.9372,298.82972339999833,298.8300967999985,298.8301978999989,298.84509479999906,301.795780299999,301.78050359999907,301.7845951999989,301.795780299999,301.795780299999,301.795780299999,301.795780299999,303.79566519999935,303.79566519999935,303.79566519999935,303.79566519999935,303.77999309999905,2,0.7285479000001942,0.1598729999986972,None,,,,,,,,,,,,,,,,,,,,,,1311,1,2025-10-10_14h41.06.143,sm,2024.2.4,60.0047043690617,2025-10-10 14h41.15.423138 +0200,
25,0,25,,,,,,space,2.1568664999995235,None,None,None,,,None,0,0,0,0,,,,,0,0,0,0,,,,,25,0,25,0,303.79566519999935,,,,,,,,,,,,,,,,,,,,,,,,,,,,,,,,,,,,,,,,,,,,,,,,,,,,,,,,,Knie,2.8186,303.7805013999987,303.7811479999982,303.781252499999,303.79566519999935,306.62895789999857,306.61303809999845,306.61650589999954,306.62895789999857,306.62895789999857,306.62895789999857,306.62895789999857,308.62861559999874,308.62861559999874,308.62861559999874,308.62861559999874,308.6131271999984,None,,,None,,,,,,,,,,,,,,,,,,,,,,1311,1,2025-10-10_14h41.06.143,sm,2024.2.4,60.0047043690617,2025-10-10 14h41.15.423138 +0200,
26,0,26,,,,,,space,2.1568664999995235,None,None,3,0.8895680000005086,0.16752379999888944,None,0,0,0,0,,,,,0,0,0,0,,,,,26,0,26,0,308.62861559999874,,,,,,,,,,,,,,,,,,,,,,,,,,,,,,,,,,,,,,,,,,,,,,,,,,,,,,,,,Geschäft,2.1403,308.61361139999826,308.6141271999986,308.61423419999846,308.62861559999874,310.77860859999964,310.7628320999993,310.7678296999984,310.77860859999964,310.77860859999964,310.77860859999964,310.77860859999964,312.77870399999847,312.77870399999847,312.77870399999847,312.77870399999847,312.76305559999855,3,0.8895680000005086,0.16752379999888944,None,,,,,,,,,,,,,,,,,,,,,,1311,1,2025-10-10_14h41.06.143,sm,2024.2.4,60.0047043690617,2025-10-10 14h41.15.423138 +0200,
27,0,27,,,,,,space,2.1568664999995235,None,None,2,1.3010907999996562,0.12390130000130739,None,0,0,0,0,,,,,0,0,0,0,,,,,27,0,27,0,312.77870399999847,,,,,,,,,,,,,,,,,,,,,,,,,,,,,,,,,,,,,,,,,,,,,,,,,,,,,,,,,Sturm,2.3624,312.76356079999823,312.76418529999864,312.76428809999925,312.77870399999847,315.14470299999994,315.12900439999976,315.13260509999964,315.14470299999994,315.14470299999994,315.14470299999994,315.14470299999994,317.1451277999986,317.1451277999986,317.1451277999986,317.1451277999986,317.1293272999992,2,1.3010907999996562,0.12390130000130739,None,,,,,,,,,,,,,,,,,,,,,,1311,1,2025-10-10_14h41.06.143,sm,2024.2.4,60.0047043690617,2025-10-10 14h41.15.423138 +0200,
28,0,28,,,,,,space,2.1568664999995235,None,None,2,0.8343488000009529,0.1964295999987371,None,0,0,0,0,,,,,0,0,0,0,,,,,28,0,28,0,317.1451277999986,,,,,,,,,,,,,,,,,,,,,,,,,,,,,,,,,,,,,,,,,,,,,,,,,,,,,,,,,Blumen,3.3693,317.12980479999896,317.1302836999985,317.13038659999984,317.1451277999986,320.5279541,320.51231519999965,320.51568319999933,320.5279541,320.5279541,320.5279541,320.5279541,322.5277204999984,322.5277204999984,322.5277204999984,322.5277204999984,322.5122888999995,2,0.8343488000009529,0.1964295999987371,None,,,,,,,,,,,,,,,,,,,,,,1311,1,2025-10-10_14h41.06.143,sm,2024.2.4,60.0047043690617,2025-10-10 14h41.15.423138 +0200,
29,0,29,,,,,,space,2.1568664999995235,None,None,3,0.7195477999994182,0.17058060000090336,None,0,0,0,0,,,,,0,0,0,0,,,,,29,0,29,0,322.5277204999984,,,,,,,,,,,,,,,,,,,,,,,,,,,,,,,,,,,,,,,,,,,,,,,,,,,,,,,,,Hemd,3.4856,322.5128031999993,322.5133206999999,322.513424499999,322.5277204999984,326.02758579999863,326.0118141999992,326.01472529999955,326.02758579999863,326.02758579999863,326.02758579999863,326.02758579999863,328.027648199999,328.027648199999,328.027648199999,328.027648199999,328.0119417999995,3,0.7195477999994182,0.17058060000090336,None,,,,,,,,,,,,,,,,,,,,,,1311,1,2025-10-10_14h41.06.143,sm,2024.2.4,60.0047043690617,2025-10-10 14h41.15.423138 +0200,
30,0,30,,,,,,space,2.1568664999995235,None,None,3,1.2361846000003425,0.2053684999991674,None,0,0,0,0,,,,,0,0,0,0,,,,,30,0,30,0,328.027648199999,,,,,,,,,,,,,,,,,,,,,,,,,,,,,,,,,,,,,,,,,,,,,,,,,,,,,,,,,Rolle,2.1473,328.0124571999986,328.0129617999992,328.01306849999855,328.027648199999,330.1774841999995,330.1618389999985,330.1658545999999,330.1774841999995,330.1774841999995,330.1774841999995,330.1774841999995,332.17734629999904,332.17734629999904,332.17734629999904,332.17734629999904,332.16162019999865,3,1.2361846000003425,0.2053684999991674,None,,,,,,,,,,,,,,,,,,,,,,1311,1,2025-10-10_14h41.06.143,sm,2024.2.4,60.0047043690617,2025-10-10 14h41.15.423138 +0200,
31,0,31,,,,,,space,2.1568664999995235,None,None,3,1.0114085000004707,0.2141673999994964,None,0,0,0,0,,,,,0,0,0,0,,,,,31,0,31,0,332.17734629999904,,,,,,,,,,,,,,,,,,,,,,,,,,,,,,,,,,,,,,,,,,,,,,,,,,,,,,,,,Sauber,2.1269,332.16207569999824,332.1625413999991,332.16263459999936,332.17734629999904,334.3105087999993,334.2948426999992,334.29880609999964,334.3105087999993,334.3105087999993,334.3105087999993,334.3105087999993,336.3104354999996,336.3104354999996,336.3104354999996,336.3104354999996,336.29524329999913,3,1.0114085000004707,0.2141673999994964,None,,,,,,,,,,,,,,,,,,,,,,1311,1,2025-10-10_14h41.06.143,sm,2024.2.4,60.0047043690617,2025-10-10 14h41.15.423138 +0200,
32,0,32,,,,,,space,2.1568664999995235,None,None,3,1.0514115000005404,0.32103859999915585,None,0,0,0,0,,,,,0,0,0,0,,,,,32,0,32,0,336.3104354999996,,,,,,,,,,,,,,,,,,,,,,,,,,,,,,,,,,,,,,,,,,,,,,,,,,,,,,,,,Zug,4.456,336.2957609999994,336.2962663999988,336.2963719999989,336.3104354999996,340.7766955999996,340.7611498999995,340.76485729999877,340.7766955999996,340.7766955999996,340.7766955999996,340.7766955999996,342.7766818,342.7766818,342.7766818,342.7766818,342.76120359999913,3,1.0514115000005404,0.32103859999915585,None,,,,,,,,,,,,,,,,,,,,,,1311,1,2025-10-10_14h41.06.143,sm,2024.2.4,60.0047043690617,2025-10-10 14h41.15.423138 +0200,
33,0,33,,,,,,space,2.1568664999995235,None,None,3,1.0115708000012091,0.16156389999923704,None,0,0,0,0,,,,,0,0,0,0,,,,,33,0,33,0,342.7766818,,,,,,,,,,,,,,,,,,,,,,,,,,,,,,,,,,,,,,,,,,,,,,,,,,,,,,,,,Ostern,2.152,342.761717899999,342.7622139999985,342.7623189999995,342.7766818,344.94325279999975,344.9273934999983,344.9317521999983,344.94325279999975,344.94325279999975,344.94325279999975,344.94325279999975,346.94314869999835,346.94314869999835,346.94314869999835,346.94314869999835,346.92741899999965,3,1.0115708000012091,0.16156389999923704,None,,,,,,,,,,,,,,,,,,,,,,1311,1,2025-10-10_14h41.06.143,sm,2024.2.4,60.0047043690617,2025-10-10 14h41.15.423138 +0200,
34,0,34,,,,,,space,2.1568664999995235,None,None,3,1.493629399999918,0.21846730000106618,None,0,0,0,0,,,,,0,0,0,0,,,,,34,0,34,0,346.94314869999835,,,,,,,,,,,,,,,,,,,,,,,,,,,,,,,,,,,,,,,,,,,,,,,,,,,,,,,,,Zeit,3.1892,346.9279270999996,346.928587299999,346.9286925999986,346.94314869999835,350.14283559999967,350.12714309999865,350.1301816999985,350.14283559999967,350.14283559999967,350.14283559999967,350.14283559999967,352.14278529999865,352.14278529999865,352.14278529999865,352.14278529999865,352.12705339999957,3,1.493629399999918,0.21846730000106618,None,,,,,,,,,,,,,,,,,,,,,,1311,1,2025-10-10_14h41.06.143,sm,2024.2.4,60.0047043690617,2025-10-10 14h41.15.423138 +0200,
35,0,35,,,,,,space,2.1568664999995235,None,None,2,0.6935260999998718,0.15359629999875324,None,0,0,0,0,,,,,0,0,0,0,,,,,35,0,35,0,352.14278529999865,,,,,,,,,,,,,,,,,,,,,,,,,,,,,,,,,,,,,,,,,,,,,,,,,,,,,,,,,Ziege,3.4265,352.1275635999991,352.12820909999937,352.1283131,352.14278529999865,355.57561149999856,355.5601816999988,355.56352739999966,355.57561149999856,355.57561149999856,355.57561149999856,355.57561149999856,357.5757346999999,357.5757346999999,357.5757346999999,357.5757346999999,357.56019939999896,2,0.6935260999998718,0.15359629999875324,None,,,,,,,,,,,,,,,,,,,,,,1311,1,2025-10-10_14h41.06.143,sm,2024.2.4,60.0047043690617,2025-10-10 14h41.15.423138 +0200,
36,0,36,,,,,,space,2.1568664999995235,None,None,2,0.6404009999987466,0.1735530000005383,None,0,0,0,0,,,,,0,0,0,0,,,,,36,0,36,0,357.5757346999999,,,,,,,,,,,,,,,,,,,,,,,,,,,,,,,,,,,,,,,,,,,,,,,,,,,,,,,,,Schwester,2.0445,357.5607218999994,357.5613721999998,357.56147509999937,357.5757346999999,359.6256199999989,359.610186599999,359.61443859999963,359.6256199999989,359.6256199999989,359.6256199999989,359.6256199999989,361.6255892999998,361.6255892999998,361.6255892999998,361.6255892999998,361.60990909999964,2,0.6404009999987466,0.1735530000005383,None,,,,,,,,,,,,,,,,,,,,,,1311,1,2025-10-10_14h41.06.143,sm,2024.2.4,60.0047043690617,2025-10-10 14h41.15.423138 +0200,
37,0,37,,,,,,space,2.1568664999995235,None,None,3,0.9976449000005232,0.22975690000021132,None,0,0,0,0,,,,,0,0,0,0,,,,,37,0,37,0,361.6255892999998,,,,,,,,,,,,,,,,,,,,,,,,,,,,,,,,,,,,,,,,,,,,,,,,,,,,,,,,,Nachricht,2.6884,361.610408999999,361.6110450999986,361.6111503999982,361.6255892999998,364.3251582999983,364.3096829999995,364.31316889999835,364.3251582999983,364.3251582999983,364.3251582999983,364.3251582999983,366.3255474999987,366.3255474999987,366.3255474999987,366.3255474999987,366.3097328999993,3,0.9976449000005232,0.22975690000021132,None,,,,,,,,,,,,,,,,,,,,,,1311,1,2025-10-10_14h41.06.143,sm,2024.2.4,60.0047043690617,2025-10-10 14h41.15.423138 +0200,
38,0,38,,,,,,space,2.1568664999995235,None,None,2,0.9315439000001788,0.150592099998903,None,0,0,0,0,,,,,0,0,0,0,,,,,38,0,38,0,366.3255474999987,,,,,,,,,,,,,,,,,,,,,,,,,,,,,,,,,,,,,,,,,,,,,,,,,,,,,,,,,Brise,3.148,366.31022629999825,366.31072179999865,366.31083129999934,366.3255474999987,369.4749353999996,369.45933239999977,369.4629419999983,369.4749353999996,369.4749353999996,369.4749353999996,369.4749353999996,371.4749875999987,371.4749875999987,371.4749875999987,371.4749875999987,371.4593565999985,2,0.9315439000001788,0.150592099998903,None,,,,,,,,,,,,,,,,,,,,,,1311,1,2025-10-10_14h41.06.143,sm,2024.2.4,60.0047043690617,2025-10-10 14h41.15.423138 +0200,
39,0,39,,,,,,space,2.1568664999995235,None,None,2,1.6551449000016873,0.21391219999895839,None,0,0,0,0,,,,,0,0,0,0,,,,,39,0,39,0,371.4749875999987,,,,,,,,,,,,,,,,,,,,,,,,,,,,,,,,,,,,,,,,,,,,,,,,,,,,,,,,,Flut,2.8857,371.45987649999915,371.4603836999995,371.46048749999864,371.4749875999987,374.37457579999864,374.35891289999927,374.3633463999995,374.37457579999864,374.37457579999864,374.37457579999864,374.37457579999864,376.3746831999997,376.3746831999997,376.3746831999997,376.3746831999997,376.35907289999886,2,1.6551449000016873,0.21391219999895839,None,,,,,,,,,,,,,,,,,,,,,,1311,1,2025-10-10_14h41.06.143,sm,2024.2.4,60.0047043690617,2025-10-10 14h41.15.423138 +0200,
40,0,40,,,,,,space,2.1568664999995235,None,None,3,0.672636400000556,0.19312919999902078,None,0,0,0,0,,,,,0,0,0,0,,,,,40,0,40,0,376.3746831999997,,,,,,,,,,,,,,,,,,,,,,,,,,,,,,,,,,,,,,,,,,,,,,,,,,,,,,,,,Stein,2.7652,376.3595476999999,376.3600551999989,376.36015529999895,376.3746831999997,379.141723499999,379.1257982999996,379.129179399999,379.141723499999,379.141723499999,379.141723499999,379.141723499999,381.1410616999983,381.1410616999983,381.1410616999983,381.1410616999983,381.1255599999986,3,0.672636400000556,0.19312919999902078,None,,,,,,,,,,,,,,,,,,,,,,1311,1,2025-10-10_14h41.06.143,sm,2024.2.4,60.0047043690617,2025-10-10 14h41.15.423138 +0200,
41,0,41,,,,,,space,2.1568664999995235,None,None,2,1.0611368999998376,0.16057020000152988,None,0,0,0,0,,,,,0,0,0,0,,,,,41,0,41,0,381.1410616999983,,,,,,,,,,,,,,,,,,,,,,,,,,,,,,,,,,,,,,,,,,,,,,,,,,,,,,,,,Tanz,2.4581,381.12607339999886,381.1265803999995,381.1266861999993,381.1410616999983,383.60806649999904,383.59171009999955,383.59491849999904,383.60806649999904,383.60806649999904,383.60806649999904,383.60806649999904,385.6074159999989,385.6074159999989,385.6074159999989,385.6074159999989,385.5920650999997,2,1.0611368999998376,0.16057020000152988,None,,,,,,,,,,,,,,,,,,,,,,1311,1,2025-10-10_14h41.06.143,sm,2024.2.4,60.0047043690617,2025-10-10 14h41.15.423138 +0200,
42,0,42,,,,,,space,2.1568664999995235,None,None,2,1.7356972999987192,0.14873900000020512,None,0,0,0,0,,,,,0,0,0,0,,,,,42,0,42,0,385.6074159999989,,,,,,,,,,,,,,,,,,,,,,,,,,,,,,,,,,,,,,,,,,,,,,,,,,,,,,,,,Atem,2.9366,385.5925824999995,385.59309849999954,385.59320299999854,385.6074159999989,388.5571513999985,388.5419777999996,388.54574349999893,388.5571513999985,388.5571513999985,388.5571513999985,388.5571513999985,390.55743829999847,390.55743829999847,390.55743829999847,390.55743829999847,390.5420015999989,2,1.7356972999987192,0.14873900000020512,None,,,,,,,,,,,,,,,,,,,,,,1311,1,2025-10-10_14h41.06.143,sm,2024.2.4,60.0047043690617,2025-10-10 14h41.15.423138 +0200,
43,0,43,,,,,,space,2.1568664999995235,None,None,3,0.7064009000005171,0.1938516999998683,None,0,0,0,0,,,,,0,0,0,0,,,,,43,0,43,0,390.55743829999847,,,,,,,,,,,,,,,,,,,,,,,,,,,,,,,,,,,,,,,,,,,,,,,,,,,,,,,,,Fakt,3.5826,390.5425320999984,390.54338389999975,390.54355999999825,390.55743829999847,394.1401165999996,394.12476309999875,394.1289436999996,394.1401165999996,394.1401165999996,394.1401165999996,394.1401165999996,396.1403821999993,396.1403821999993,396.1403821999993,396.1403821999993,396.1246965999999,3,0.7064009000005171,0.1938516999998683,None,,,,,,,,,,,,,,,,,,,,,,1311,1,2025-10-10_14h41.06.143,sm,2024.2.4,60.0047043690617,2025-10-10 14h41.15.423138 +0200,
44,0,44,,,,,,space,2.1568664999995235,None,None,None,,,None,0,0,0,0,,,,,0,0,0,0,,,,,44,0,44,0,396.1403821999993,,,,,,,,,,,,,,,,,,,,,,,,,,,,,,,,,,,,,,,,,,,,,,,,,,,,,,,,,Hand,2.7931,396.1252063999982,396.12571879999996,396.1258246999987,396.1403821999993,398.9399076999998,398.92455249999875,398.92788989999826,398.9399076999998,398.9399076999998,398.9399076999998,398.9399076999998,400.9401184999988,400.9401184999988,400.9401184999988,400.9401184999988,400.92448089999925,None,,,None,,,,,,,,,,,,,,,,,,,,,,1311,1,2025-10-10_14h41.06.143,sm,2024.2.4,60.0047043690617,2025-10-10 14h41.15.423138 +0200,
45,0,45,,,,,,space,2.1568664999995235,None,None,3,0.9524698000004719,0.18061110000053304,None,0,0,0,0,,,,,0,0,0,0,,,,,45,0,45,0,400.9401184999988,,,,,,,,,,,,,,,,,,,,,,,,,,,,,,,,,,,,,,,,,,,,,,,,,,,,,,,,,Berg,3.2446,400.9249358999987,400.92568329999995,400.92578709999907,400.9401184999988,404.18962329999886,404.1739243999982,404.1770555999992,404.18962329999886,404.18962329999886,404.18962329999886,404.18962329999886,406.1900491999986,406.1900491999986,406.1900491999986,406.1900491999986,406.1740055999999,3,0.9524698000004719,0.18061110000053304,None,,,,,,,,,,,,,,,,,,,,,,1311,1,2025-10-10_14h41.06.143,sm,2024.2.4,60.0047043690617,2025-10-10 14h41.15.423138 +0200,
46,0,46,,,,,,space,2.1568664999995235,None,None,3,0.8611002000016015,0.15461369999866292,None,0,0,0,0,,,,,0,0,0,0,,,,,46,0,46,0,406.1900491999986,,,,,,,,,,,,,,,,,,,,,,,,,,,,,,,,,,,,,,,,,,,,,,,,,,,,,,,,,Pizza,2.2706,406.17451379999875,406.17508729999827,406.17519059999904,406.1900491999986,408.4726695999998,408.45700209999995,408.4612092999996,408.4726695999998,408.4726695999998,408.4726695999998,408.4726695999998,410.47268189999886,410.47268189999886,410.47268189999886,410.47268189999886,410.45717579999837,3,0.8611002000016015,0.15461369999866292,None,,,,,,,,,,,,,,,,,,,,,,1311,1,2025-10-10_14h41.06.143,sm,2024.2.4,60.0047043690617,2025-10-10 14h41.15.423138 +0200,
47,0,47,,,,,,space,2.1568664999995235,None,None,2,0.8051190999995015,0.1711964000005537,None,0,0,0,0,,,,,0,0,0,0,,,,,47,0,47,0,410.47268189999886,,,,,,,,,,,,,,,,,,,,,,,,,,,,,,,,,,,,,,,,,,,,,,,,,,,,,,,,,Autorin,2.0946,410.4576894999991,410.45819719999963,410.45830699999897,410.47268189999886,412.5725046999996,412.5566106999995,412.55974349999997,412.5725046999996,412.5725046999996,412.5725046999996,412.5725046999996,414.57230179999897,414.57230179999897,414.57230179999897,414.57230179999897,414.55628819999947,2,0.8051190999995015,0.1711964000005537,None,,,,,,,,,,,,,,,,,,,,,,1311,1,2025-10-10_14h41.06.143,sm,2024.2.4,60.0047043690617,2025-10-10 14h41.15.423138 +0200,
48,0,48,,,,,,space,2.1568664999995235,None,None,3,0.7773876999999629,0.16217369999867515,None,0,0,0,0,,,,,0,0,0,0,,,,,48,0,48,0,414.57230179999897,,,,,,,,,,,,,,,,,,,,,,,,,,,,,,,,,,,,,,,,,,,,,,,,,,,,,,,,,Sack,4.1857,414.55669769999986,414.55715059999966,414.5572338999991,414.57230179999897,418.77213689999917,418.7566476999982,418.7603808999993,418.77213689999917,418.77213689999917,418.77213689999917,418.77213689999917,420.7721395999997,420.7721395999997,420.7721395999997,420.7721395999997,420.75644789999933,3,0.7773876999999629,0.16217369999867515,None,,,,,,,,,,,,,,,,,,,,,,1311,1,2025-10-10_14h41.06.143,sm,2024.2.4,60.0047043690617,2025-10-10 14h41.15.423138 +0200,
49,0,49,,,,,,space,2.1568664999995235,None,None,3,1.0791086999997788,0.17865440000059607,None,0,0,0,0,,,,,0,0,0,0,,,,,49,0,49,0,420.7721395999997,,,,,,,,,,,,,,,,,,,,,,,,,,,,,,,,,,,,,,,,,,,,,,,,,,,,,,,,,Spülung,2.208,420.75696029999926,420.75760939999964,420.7577136,420.7721395999997,422.98880779999854,422.97309549999954,422.9768525999989,422.98880779999854,422.98880779999854,422.98880779999854,422.98880779999854,424.9885605999989,424.9885605999989,424.9885605999989,424.9885605999989,424.9727819999989,3,1.0791086999997788,0.17865440000059607,None,,,,,,,,,,,,,,,,,,,,,,1311,1,2025-10-10_14h41.06.143,sm,2024.2.4,60.0047043690617,2025-10-10 14h41.15.423138 +0200,
50,0,50,,,,,,space,2.1568664999995235,None,None,None,,,None,0,0,0,0,,,,,0,0,0,0,,,,,50,0,50,0,424.9885605999989,,,,,,,,,,,,,,,,,,,,,,,,,,,,,,,,,,,,,,,,,,,,,,,,,,,,,,,,,Augen,2.1581,424.97329179999906,424.9737777999999,424.97388019999926,424.9885605999989,427.1548439999988,427.13924719999886,427.14258899999913,427.1548439999988,427.1548439999988,427.1548439999988,427.1548439999988,429.1551701999997,429.1551701999997,429.1551701999997,429.1551701999997,429.1396058999999,None,,,None,,,,,,,,,,,,,,,,,,,,,,1311,1,2025-10-10_14h41.06.143,sm,2024.2.4,60.0047043690617,2025-10-10 14h41.15.423138 +0200,
51,0,51,,,,,,space,2.1568664999995235,None,None,3,0.6521491999992577,0.17261780000080762,None,0,0,0,0,,,,,0,0,0,0,,,,,51,0,51,0,429.1551701999997,,,,,,,,,,,,,,,,,,,,,,,,,,,,,,,,,,,,,,,,,,,,,,,,,,,,,,,,,Zeichnung,2.2248,429.14008639999884,429.14059089999864,429.1406972999994,429.1551701999997,431.3879419999994,431.3726252999986,431.3770012999994,431.3879419999994,431.3879419999994,431.3879419999994,431.3879419999994,433.38796049999837,433.38796049999837,433.38796049999837,433.38796049999837,433.3724913999995,3,0.6521491999992577,0.17261780000080762,None,,,,,,,,,,,,,,,,,,,,,,1311,1,2025-10-10_14h41.06.143,sm,2024.2.4,60.0047043690617,2025-10-10 14h41.15.423138 +0200,
52,0,52,,,,,,space,2.1568664999995235,None,None,2,1.0527997999997751,0.18751690000135568,None,0,0,0,0,,,,,0,0,0,0,,,,,52,0,52,0,433.38796049999837,,,,,,,,,,,,,,,,,,,,,,,,,,,,,,,,,,,,,,,,,,,,,,,,,,,,,,,,,Schulter,2.8684,433.3729964999984,433.3736313999998,433.37373619999926,433.38796049999837,436.27101159999984,436.2554102999984,436.2593709999983,436.27101159999984,436.27101159999984,436.27101159999984,436.27101159999984,438.2710933999988,438.2710933999988,438.2710933999988,438.2710933999988,438.2558111999988,2,1.0527997999997751,0.18751690000135568,None,,,,,,,,,,,,,,,,,,,,,,1311,1,2025-10-10_14h41.06.143,sm,2024.2.4,60.0047043690617,2025-10-10 14h41.15.423138 +0200,
53,0,53,,,,,,space,2.1568664999995235,None,None,3,0.6343085999997129,0.2083309999998164,None,0,0,0,0,,,,,0,0,0,0,,,,,53,0,53,0,438.2710933999988,,,,,,,,,,,,,,,,,,,,,,,,,,,,,,,,,,,,,,,,,,,,,,,,,,,,,,,,,Tasse,2.9519,438.25633519999974,438.2568466999983,438.25695319999977,438.2710933999988,441.2374387999989,441.22176149999905,441.2259118999991,441.2374387999989,441.2374387999989,441.2374387999989,441.2374387999989,443.2373568999992,443.2373568999992,443.2373568999992,443.2373568999992,443.2220492999986,3,0.6343085999997129,0.2083309999998164,None,,,,,,,,,,,,,,,,,,,,,,1311,1,2025-10-10_14h41.06.143,sm,2024.2.4,60.0047043690617,2025-10-10 14h41.15.423138 +0200,
54,0,54,,,,,,space,2.1568664999995235,None,None,2,0.7095834000010655,0.17848400000002584,None,0,0,0,0,,,,,0,0,0,0,,,,,54,0,54,0,443.2373568999992,,,,,,,,,,,,,,,,,,,,,,,,,,,,,,,,,,,,,,,,,,,,,,,,,,,,,,,,,Professor,3.0671,443.22256129999914,443.2230735999983,443.22318239999913,443.2373568999992,446.30392849999953,446.2882379999992,446.2926889999999,446.30392849999953,446.30392849999953,446.30392849999953,446.30392849999953,448.30425769999965,448.30425769999965,448.30425769999965,448.30425769999965,448.28819509999994,2,0.7095834000010655,0.17848400000002584,None,,,,,,,,,,,,,,,,,,,,,,1311,1,2025-10-10_14h41.06.143,sm,2024.2.4,60.0047043690617,2025-10-10 14h41.15.423138 +0200,
55,0,55,,,,,,space,2.1568664999995235,None,None,3,0.7663202000003366,0.2543635000001814,None,0,0,0,0,,,,,0,0,0,0,,,,,55,0,55,0,448.30425769999965,,,,,,,,,,,,,,,,,,,,,,,,,,,,,,,,,,,,,,,,,,,,,,,,,,,,,,,,,Klinge,2.0127,448.28870859999915,448.28921759999866,448.28932149999855,448.30425769999965,450.3202373999993,450.3045424999982,450.30825359999835,450.3202373999993,450.3202373999993,450.3202373999993,450.3202373999993,452.3202738,452.3202738,452.3202738,452.3202738,452.3046648999989,3,0.7663202000003366,0.2543635000001814,None,,,,,,,,,,,,,,,,,,,,,,1311,1,2025-10-10_14h41.06.143,sm,2024.2.4,60.0047043690617,2025-10-10 14h41.15.423138 +0200,
56,0,56,,,,,,space,2.1568664999995235,None,None,3,0.8820011000007071,0.20517719999952533,None,0,0,0,0,,,,,0,0,0,0,,,,,56,0,56,0,452.3202738,,,,,,,,,,,,,,,,,,,,,,,,,,,,,,,,,,,,,,,,,,,,,,,,,,,,,,,,,Lied,3.2052,452.3051687999996,452.3056693999988,452.30577339999945,452.3202738,455.53658019999966,455.5210051999984,455.52455649999865,455.53658019999966,455.53658019999966,455.53658019999966,455.53658019999966,457.5366879999983,457.5366879999983,457.5366879999983,457.5366879999983,457.5210170999999,3,0.8820011000007071,0.20517719999952533,None,,,,,,,,,,,,,,,,,,,,,,1311,1,2025-10-10_14h41.06.143,sm,2024.2.4,60.0047043690617,2025-10-10 14h41.15.423138 +0200,
57,0,57,,,,,,space,2.1568664999995235,None,None,2,0.849591899999723,0.15560419999928854,None,0,0,0,0,,,,,0,0,0,0,,,,,57,0,57,0,457.5366879999983,,,,,,,,,,,,,,,,,,,,,,,,,,,,,,,,,,,,,,,,,,,,,,,,,,,,,,,,,Rose,3.3639,457.5215277999996,457.5220937999984,457.5222013999992,457.5366879999983,460.9028802999983,460.88707539999996,460.890257699999,460.9028802999983,460.9028802999983,460.9028802999983,460.9028802999983,462.90336489999936,462.90336489999936,462.90336489999936,462.90336489999936,462.8873875999998,2,0.849591899999723,0.15560419999928854,None,,,,,,,,,,,,,,,,,,,,,,1311,1,2025-10-10_14h41.06.143,sm,2024.2.4,60.0047043690617,2025-10-10 14h41.15.423138 +0200,
58,0,58,,,,,,space,2.1568664999995235,None,None,3,0.7004582000008668,0.17870210000000952,None,0,0,0,0,,,,,0,0,0,0,,,,,58,0,58,0,462.90336489999936,,,,,,,,,,,,,,,,,,,,,,,,,,,,,,,,,,,,,,,,,,,,,,,,,,,,,,,,,Tisch,2.3916,462.88789279999946,462.88840459999847,462.8885088999996,462.90336489999936,465.3026420999995,465.2871720999992,465.2911588999996,465.3026420999995,465.3026420999995,465.3026420999995,465.3026420999995,467.3028134999986,467.3028134999986,467.3028134999986,467.3028134999986,467.2872092999987,3,0.7004582000008668,0.17870210000000952,None,,,,,,,,,,,,,,,,,,,,,,1311,1,2025-10-10_14h41.06.143,sm,2024.2.4,60.0047043690617,2025-10-10 14h41.15.423138 +0200,
59,0,59,,,,,,space,2.1568664999995235,None,None,3,0.8130702999987989,0.19986730000164243,None,0,0,0,0,,,,,0,0,0,0,,,,,59,0,59,0,467.3028134999986,,,,,,,,,,,,,,,,,,,,,,,,,,,,,,,,,,,,,,,,,,,,,,,,,,,,,,,,,Geburtstag,4.0222,467.2877204999986,467.28831309999987,467.28841849999844,467.3028134999986,471.3356382999991,471.31982329999846,471.32413729999826,471.3356382999991,471.3356382999991,471.3356382999991,471.3356382999991,473.3359111999998,473.3359111999998,473.3359111999998,473.3359111999998,473.319929199999,3,0.8130702999987989,0.19986730000164243,None,,,,,,,,,,,,,,,,,,,,,,1311,1,2025-10-10_14h41.06.143,sm,2024.2.4,60.0047043690617,2025-10-10 14h41.15.423138 +0200,
60,0,60,,,,,,space,2.1568664999995235,None,None,3,1.0318040999991354,0.186088500000551,None,0,0,0,0,,,,,0,0,0,0,,,,,60,0,60,0,473.3359111999998,,,,,,,,,,,,,,,,,,,,,,,,,,,,,,,,,,,,,,,,,,,,,,,,,,,,,,,,,Tradition,4.8152,473.3204416999997,473.3209371999983,473.32103969999844,473.3359111999998,478.1517942999999,478.13638289999835,478.1398588999982,478.1517942999999,478.1517942999999,478.1517942999999,478.1517942999999,480.15257849999944,480.15257849999944,480.15257849999944,480.15257849999944,480.1372089999986,3,1.0318040999991354,0.186088500000551,None,,,,,,,,,,,,,,,,,,,,,,1311,1,2025-10-10_14h41.06.143,sm,2024.2.4,60.0047043690617,2025-10-10 14h41.15.423138 +0200,
61,0,61,,,,,,space,2.1568664999995235,None,None,2,1.1639278999991802,0.18644830000084767,None,0,0,0,0,,,,,0,0,0,0,,,,,61,0,61,0,480.15257849999944,,,,,,,,,,,,,,,,,,,,,,,,,,,,,,,,,,,,,,,,,,,,,,,,,,,,,,,,,Kartoffel,2.1345,480.1377476999987,480.13843299999826,480.13854569999967,480.15257849999944,482.3016646999986,482.28598839999904,482.2901746999996,482.3016646999986,482.3016646999986,482.3016646999986,482.3016646999986,484.3016897999987,484.3016897999987,484.3016897999987,484.3016897999987,484.28616539999894,2,1.1639278999991802,0.18644830000084767,None,,,,,,,,,,,,,,,,,,,,,,1311,1,2025-10-10_14h41.06.143,sm,2024.2.4,60.0047043690617,2025-10-10 14h41.15.423138 +0200,
62,0,62,,,,,,space,2.1568664999995235,None,None,2,1.0856958000003942,0.1416477999991912,None,0,0,0,0,,,,,0,0,0,0,,,,,62,0,62,0,484.3016897999987,,,,,,,,,,,,,,,,,,,,,,,,,,,,,,,,,,,,,,,,,,,,,,,,,,,,,,,,,Vulkan,2.625,484.28667589999895,484.28723809999974,484.28734369999984,484.3016897999987,486.9346356999995,486.9188990999992,486.9222893999995,486.9346356999995,486.9346356999995,486.9346356999995,486.9346356999995,488.9346919999989,488.9346919999989,488.9346919999989,488.9346919999989,488.9191034999985,2,1.0856958000003942,0.1416477999991912,None,,,,,,,,,,,,,,,,,,,,,,1311,1,2025-10-10_14h41.06.143,sm,2024.2.4,60.0047043690617,2025-10-10 14h41.15.423138 +0200,
63,0,63,,,,,,space,2.1568664999995235,None,None,2,0.8185661999996228,0.180547399999341,None,0,0,0,0,,,,,0,0,0,0,,,,,63,0,63,0,488.9346919999989,,,,,,,,,,,,,,,,,,,,,,,,,,,,,,,,,,,,,,,,,,,,,,,,,,,,,,,,,Lachen,3.1208,488.9196033999997,488.9200889999993,488.9201947999991,488.9346919999989,492.06861859999844,492.0521424999988,492.0556865999988,492.06861859999844,492.06861859999844,492.06861859999844,492.06861859999844,494.067737899999,494.067737899999,494.067737899999,494.067737899999,494.05214819999856,2,0.8185661999996228,0.180547399999341,None,,,,,,,,,,,,,,,,,,,,,,1311,1,2025-10-10_14h41.06.143,sm,2024.2.4,60.0047043690617,2025-10-10 14h41.15.423138 +0200,
64,0,64,,,,,,space,2.1568664999995235,None,None,2,0.8313994999989518,0.19379420000041137,None,0,0,0,0,,,,,0,0,0,0,,,,,64,0,64,0,494.067737899999,,,,,,,,,,,,,,,,,,,,,,,,,,,,,,,,,,,,,,,,,,,,,,,,,,,,,,,,,Ozean,2.487,494.0526745999996,494.05318709999847,494.05329639999945,494.067737899999,496.56781779999983,496.5520910999985,496.55608159999974,496.56781779999983,496.56781779999983,496.56781779999983,496.56781779999983,498.56769539999914,498.56769539999914,498.56769539999914,498.56769539999914,498.5518398999993,2,0.8313994999989518,0.19379420000041137,None,,,,,,,,,,,,,,,,,,,,,,1311,1,2025-10-10_14h41.06.143,sm,2024.2.4,60.0047043690617,2025-10-10 14h41.15.423138 +0200,
65,0,65,,,,,,space,2.1568664999995235,None,None,2,0.7840711999997438,0.15475530000003346,None,0,0,0,0,,,,,0,0,0,0,,,,,65,0,65,0,498.56769539999914,,,,,,,,,,,,,,,,,,,,,,,,,,,,,,,,,,,,,,,,,,,,,,,,,,,,,,,,,Team,4.1553,498.5523516999983,498.5528516999984,498.5529555999983,498.56769539999914,502.73377339999934,502.71813349999866,502.7213852999994,502.73377339999934,502.73377339999934,502.73377339999934,502.73377339999934,504.7337757999994,504.7337757999994,504.7337757999994,504.7337757999994,504.7182417999993,2,0.7840711999997438,0.15475530000003346,None,,,,,,,,,,,,,,,,,,,,,,1311,1,2025-10-10_14h41.06.143,sm,2024.2.4,60.0047043690617,2025-10-10 14h41.15.423138 +0200,
66,0,66,,,,,,space,2.1568664999995235,None,None,3,0.6381227000001672,0.18009999999958382,None,0,0,0,0,,,,,0,0,0,0,,,,,66,0,66,0,504.7337757999994,,,,,,,,,,,,,,,,,,,,,,,,,,,,,,,,,,,,,,,,,,,,,,,,,,,,,,,,,Helm,3.8778,504.7187490999986,504.7192815999988,504.71938539999974,504.7337757999994,508.6168046999992,508.6010669999996,508.6062396999987,508.6168046999992,508.6168046999992,508.6168046999992,508.6168046999992,510.6168065999991,510.6168065999991,510.6168065999991,510.6168065999991,510.6012151999985,3,0.6381227000001672,0.18009999999958382,None,,,,,,,,,,,,,,,,,,,,,,1311,1,2025-10-10_14h41.06.143,sm,2024.2.4,60.0047043690617,2025-10-10 14h41.15.423138 +0200,
67,0,67,,,,,,space,2.1568664999995235,None,None,2,0.8150454999995418,0.17890520000037213,None,0,0,0,0,,,,,0,0,0,0,,,,,67,0,67,0,510.6168065999991,,,,,,,,,,,,,,,,,,,,,,,,,,,,,,,,,,,,,,,,,,,,,,,,,,,,,,,,,Schläger,2.0883,510.60173869999926,510.60224879999987,510.6023581999998,510.6168065999991,512.7165479999985,512.7010340999987,512.7056398999994,512.7165479999985,512.7165479999985,512.7165479999985,512.7165479999985,514.7167133999992,514.7167133999992,514.7167133999992,514.7167133999992,514.7009064999984,2,0.8150454999995418,0.17890520000037213,None,,,,,,,,,,,,,,,,,,,,,,1311,1,2025-10-10_14h41.06.143,sm,2024.2.4,60.0047043690617,2025-10-10 14h41.15.423138 +0200,
68,0,68,,,,,,space,2.1568664999995235,None,None,3,1.7238469000003533,None,None,0,0,0,0,,,,,0,0,0,0,,,,,68,0,68,0,514.7167133999992,,,,,,,,,,,,,,,,,,,,,,,,,,,,,,,,,,,,,,,,,,,,,,,,,,,,,,,,,Zirkus,2.4324,514.7014136999987,514.7019115999992,514.7020201999985,514.7167133999992,517.1497038999987,517.1338410999997,517.1372661999994,517.1497038999987,517.1497038999987,517.1497038999987,517.1497038999987,519.1495424999994,519.1495424999994,519.1495424999994,519.1495424999994,519.1341008999989,3,1.7238469000003533,None,None,,,,,,,,,,,,,,,,,,,,,,1311,1,2025-10-10_14h41.06.143,sm,2024.2.4,60.0047043690617,2025-10-10 14h41.15.423138 +0200,
69,0,69,,,,,,space,2.1568664999995235,None,None,3,0.8559133999988262,0.14105920000110928,None,0,0,0,0,,,,,0,0,0,0,,,,,69,0,69,0,519.1495424999994,,,,,,,,,,,,,,,,,,,,,,,,,,,,,,,,,,,,,,,,,,,,,,,,,,,,,,,,,Scheidung,2.9235,519.134619299999,519.1351685999998,519.1352721999992,519.1495424999994,522.0828742999984,522.067079299999,522.0714196999998,522.0828742999984,522.0828742999984,522.0828742999984,522.0828742999984,524.0827233,524.0827233,524.0827233,524.0827233,524.0674950999983,3,0.8559133999988262,0.14105920000110928,None,,,,,,,,,,,,,,,,,,,,,,1311,1,2025-10-10_14h41.06.143,sm,2024.2.4,60.0047043690617,2025-10-10 14h41.15.423138 +0200,
70,0,70,,,,,,space,2.1568664999995235,None,None,2,0.670832399999199,0.1759406000001036,None,0,0,0,0,,,,,0,0,0,0,,,,,70,0,70,0,524.0827233,,,,,,,,,,,,,,,,,,,,,,,,,,,,,,,,,,,,,,,,,,,,,,,,,,,,,,,,,Fledermaus,2.5903,524.0680268999986,524.0686245999987,524.0687420999984,524.0827233,526.6825463999994,526.6666217999991,526.6708074999988,526.6825463999994,526.6825463999994,526.6825463999994,526.6825463999994,528.6823026999991,528.6823026999991,528.6823026999991,528.6823026999991,528.6666680999988,2,0.670832399999199,0.1759406000001036,None,,,,,,,,,,,,,,,,,,,,,,1311,1,2025-10-10_14h41.06.143,sm,2024.2.4,60.0047043690617,2025-10-10 14h41.15.423138 +0200,
71,0,71,,,,,,space,2.1568664999995235,None,None,3,0.8394028000002436,0.2124471999995876,None,0,0,0,0,,,,,0,0,0,0,,,,,71,0,71,0,528.6823026999991,,,,,,,,,,,,,,,,,,,,,,,,,,,,,,,,,,,,,,,,,,,,,,,,,,,,,,,,,Wein,2.0054,528.6671909999986,528.6677821999983,528.6678856999988,528.6823026999991,530.6987909,530.6831784999995,530.6868352999991,530.6987909,530.6987909,530.6987909,530.6987909,532.6988339999989,532.6988339999989,532.6988339999989,532.6988339999989,532.6832351999983,3,0.8394028000002436,0.2124471999995876,None,,,,,,,,,,,,,,,,,,,,,,1311,1,2025-10-10_14h41.06.143,sm,2024.2.4,60.0047043690617,2025-10-10 14h41.15.423138 +0200,
72,0,72,,,,,,space,2.1568664999995235,None,None,3,0.7669928000013897,0.19851219999873138,None,0,0,0,0,,,,,0,0,0,0,,,,,72,0,72,0,532.6988339999989,,,,,,,,,,,,,,,,,,,,,,,,,,,,,,,,,,,,,,,,,,,,,,,,,,,,,,,,,Raum,4.5273,532.683747699999,532.6842676999986,532.684369999999,532.6988339999989,537.2315596999997,537.2162732999986,537.2203817999998,537.2315596999997,537.2315596999997,537.2315596999997,537.2315596999997,539.2317712999993,539.2317712999993,539.2317712999993,539.2317712999993,539.2162272999994,3,0.7669928000013897,0.19851219999873138,None,,,,,,,,,,,,,,,,,,,,,,1311,1,2025-10-10_14h41.06.143,sm,2024.2.4,60.0047043690617,2025-10-10 14h41.15.423138 +0200,
73,0,73,,,,,,space,2.1568664999995235,None,None,3,0.7024755000002187,0.20679539999946428,None,0,0,0,0,,,,,0,0,0,0,,,,,73,0,73,0,539.2317712999993,,,,,,,,,,,,,,,,,,,,,,,,,,,,,,,,,,,,,,,,,,,,,,,,,,,,,,,,,Schuh,3.5259,539.2167427999993,539.2172466999982,539.2173484999985,539.2317712999993,542.7647871999998,542.7491033999995,542.7532316999987,542.7647871999998,542.7647871999998,542.7647871999998,542.7647871999998,544.7647986999982,544.7647986999982,544.7647986999982,544.7647986999982,544.749087799999,3,0.7024755000002187,0.20679539999946428,None,,,,,,,,,,,,,,,,,,,,,,1311,1,2025-10-10_14h41.06.143,sm,2024.2.4,60.0047043690617,2025-10-10 14h41.15.423138 +0200,
74,0,74,,,,,,space,2.1568664999995235,None,None,2,0.8140325000003941,0.17967270000008284,None,0,0,0,0,,,,,0,0,0,0,,,,,74,0,74,0,544.7647986999982,,,,,,,,,,,,,,,,,,,,,,,,,,,,,,,,,,,,,,,,,,,,,,,,,,,,,,,,,Alligator,3.136,544.7496074999999,544.7501014999998,544.7502036999995,544.7647986999982,547.9144268,547.8987094999993,547.9026940999993,547.9144268,547.9144268,547.9144268,547.9144268,549.9144922999985,549.9144922999985,549.9144922999985,549.9144922999985,549.8988593999984,2,0.8140325000003941,0.17967270000008284,None,,,,,,,,,,,,,,,,,,,,,,1311,1,2025-10-10_14h41.06.143,sm,2024.2.4,60.0047043690617,2025-10-10 14h41.15.423138 +0200,
75,0,75,,,,,,space,2.1568664999995235,None,None,2,1.7679715000012948,0.19112089999907766,None,0,0,0,0,,,,,0,0,0,0,,,,,75,0,75,0,549.9144922999985,,,,,,,,,,,,,,,,,,,,,,,,,,,,,,,,,,,,,,,,,,,,,,,,,,,,,,,,,Erde,2.3913,549.8993785999992,549.899938999999,549.900040999999,549.9144922999985,552.3142671999994,552.2986698999994,552.301931,552.3142671999994,552.3142671999994,552.3142671999994,552.3142671999994,554.3142573999994,554.3142573999994,554.3142573999994,554.3142573999994,554.2991589999983,2,1.7679715000012948,0.19112089999907766,None,,,,,,,,,,,,,,,,,,,,,,1311,1,2025-10-10_14h41.06.143,sm,2024.2.4,60.0047043690617,2025-10-10 14h41.15.423138 +0200,
76,0,76,,,,,,space,2.1568664999995235,None,None,3,0.6900714000003063,0.19169610000062676,None,0,0,0,0,,,,,0,0,0,0,,,,,76,0,76,0,554.3142573999994,,,,,,,,,,,,,,,,,,,,,,,,,,,,,,,,,,,,,,,,,,,,,,,,,,,,,,,,,Schlüssel,3.379,554.2996389999989,554.3001502999996,554.3002468999985,554.3142573999994,557.6973058999993,557.6815362999987,557.6853087999989,557.6973058999993,557.6973058999993,557.6973058999993,557.6973058999993,559.6976828999996,559.6976828999996,559.6976828999996,559.6976828999996,559.6820040999992,3,0.6900714000003063,0.19169610000062676,None,,,,,,,,,,,,,,,,,,,,,,1311,1,2025-10-10_14h41.06.143,sm,2024.2.4,60.0047043690617,2025-10-10 14h41.15.423138 +0200,
77,0,77,,,,,,space,2.1568664999995235,None,None,3,0.8707535000012285,0.21946869999919727,None,0,0,0,0,,,,,0,0,0,0,,,,,77,0,77,0,559.6976828999996,,,,,,,,,,,,,,,,,,,,,,,,,,,,,,,,,,,,,,,,,,,,,,,,,,,,,,,,,Safari,2.0934,559.6825525999993,559.6830911999987,559.6832003999989,559.6976828999996,561.7969862999998,561.7814389999985,561.7854056999986,561.7969862999998,561.7969862999998,561.7969862999998,561.7969862999998,563.7970219999988,563.7970219999988,563.7970219999988,563.7970219999988,563.7814046999993,3,0.8707535000012285,0.21946869999919727,None,,,,,,,,,,,,,,,,,,,,,,1311,1,2025-10-10_14h41.06.143,sm,2024.2.4,60.0047043690617,2025-10-10 14h41.15.423138 +0200,
78,0,78,,,,,,space,2.1568664999995235,None,None,3,0.8997214999999414,0.2074465000005148,None,0,0,0,0,,,,,0,0,0,0,,,,,78,0,78,0,563.7970219999988,,,,,,,,,,,,,,,,,,,,,,,,,,,,,,,,,,,,,,,,,,,,,,,,,,,,,,,,,Kino,2.1426,563.7819223999995,563.782441899999,563.782546299999,563.7970219999988,565.9465301,565.9310344999994,565.9341441999986,565.9465301,565.9465301,565.9465301,565.9465301,567.9469952999989,567.9469952999989,567.9469952999989,567.9469952999989,567.9312628999996,3,0.8997214999999414,0.2074465000005148,None,,,,,,,,,,,,,,,,,,,,,,1311,1,2025-10-10_14h41.06.143,sm,2024.2.4,60.0047043690617,2025-10-10 14h41.15.423138 +0200,
79,0,79,,,,,,space,2.1568664999995235,None,None,3,1.2157772000009572,0.3680274999987887,None,0,0,0,0,,,,,0,0,0,0,,,,,79,0,79,0,567.9469952999989,,,,,,,,,,,,,,,,,,,,,,,,,,,,,,,,,,,,,,,,,,,,,,,,,,,,,,,,,Pflege,3.3411,567.9317678999996,567.9323100999991,567.9324127,567.9469952999989,571.2963925999993,571.2806469999996,571.2850089999993,571.2963925999993,571.2963925999993,571.2963925999993,571.2963925999993,573.3081465999985,573.3081465999985,573.3081465999985,573.3081465999985,573.2809989999987,3,1.2157772000009572,0.3680274999987887,None,,,,,,,,,,,,,,,,,,,,,,1311,1,2025-10-10_14h41.06.143,sm,2024.2.4,60.0047043690617,2025-10-10 14h41.15.423138 +0200,
0,0,0,,,,,2.1403,space,1.7289340000006632,None,None,3,1.327240399999937,0.16853679999985616,None,0,0,0,0,,,,,1,0,1,0,0,79,79,71,0,0,0,0,617.5604077999997,,,,,,,,,,,,,,,,,,,,,,,,,,,,,,,,,,,,591.9084593999996,591.9086826999992,591.9149275999989,591.9193097999996,591.9193097999996,593.6638036999993,space,1.7289340000006632,None,593.6639606999997,593.6784661999991,593.6784661999991,605.5293000999991,None,605.5369072999983,605.5613355999994,605.5447194666651,606.7500990999997,615.5439724666651,616.5506673,617.5443057999983,Schwung,2.1403,617.545818999999,617.5466952999996,617.5468127999993,617.5604077999997,619.7102035999997,619.694641099999,619.6983862999987,619.7102035999997,619.7102035999997,619.7102035999997,619.7102035999997,621.7102538999989,621.7102538999989,621.7102538999989,621.7102538999989,621.6947867999988,3,1.327240399999937,0.16853679999985616,None,585.2960718999984,585.2961474999993,None,585.303908599999,585.3122891999992,589.3124613999989,589.3124613999989,589.3124613999989,591.8636505999984,2,2.5376785999997082,None,,,,,,,,,,1311,1,2025-10-10_14h41.06.143,sm,2024.2.4,60.0047043690617,2025-10-10 14h41.15.423138 +0200,
1,0,1,,,,,,space,1.7289340000006632,None,None,3,0.7196208000004845,0.17593630000010307,None,0,0,0,0,,,,,1,0,1,0,,,,,1,0,1,0,621.7102538999989,,,,,,,,,,,,,,,,,,,,,,,,,,,,,,,,,,,,,,,,,,,,,,,,,,,,,,,,,Wohnung,2.6754,621.6953002999999,621.6959528999996,621.6960581999992,621.7102538999989,624.3932401999991,624.3776232,624.3815883999996,624.3932401999991,624.3932401999991,624.3932401999991,624.3932401999991,626.3932765999998,626.3932765999998,626.3932765999998,626.3932765999998,626.3776658999996,3,0.7196208000004845,0.17593630000010307,None,,,,,,,,,,,,,,,,,,,,,,1311,1,2025-10-10_14h41.06.143,sm,2024.2.4,60.0047043690617,2025-10-10 14h41.15.423138 +0200,
2,0,2,,,,,,space,1.7289340000006632,None,None,3,0.7459354999991774,0.22902990000147838,None,0,0,0,0,,,,,1,0,1,0,,,,,2,0,2,0,626.3932765999998,,,,,,,,,,,,,,,,,,,,,,,,,,,,,,,,,,,,,,,,,,,,,,,,,,,,,,,,,Konzert,2.9366,626.3781899999994,626.378832299999,626.3789368999987,626.3932765999998,629.3432184999983,629.3277741999991,629.3316399999985,629.3432184999983,629.3432184999983,629.3432184999983,629.3432184999983,631.3431492,631.3431492,631.3431492,631.3431492,631.3273751999986,3,0.7459354999991774,0.22902990000147838,None,,,,,,,,,,,,,,,,,,,,,,1311,1,2025-10-10_14h41.06.143,sm,2024.2.4,60.0047043690617,2025-10-10 14h41.15.423138 +0200,
3,0,3,,,,,,space,1.7289340000006632,None,None,3,0.7574838000000454,0.2018208000008599,None,0,0,0,0,,,,,1,0,1,0,,,,,3,0,3,0,631.3431492,,,,,,,,,,,,,,,,,,,,,,,,,,,,,,,,,,,,,,,,,,,,,,,,,,,,,,,,,Seife,2.0913,631.327853499999,631.3284844999998,631.3285801999991,631.3431492,633.4429205999986,633.4272285999996,633.4307976,633.4429205999986,633.4429205999986,633.4429205999986,633.4429205999986,635.4426624999996,635.4426624999996,635.4426624999996,635.4426624999996,635.4271536999986,3,0.7574838000000454,0.2018208000008599,None,,,,,,,,,,,,,,,,,,,,,,1311,1,2025-10-10_14h41.06.143,sm,2024.2.4,60.0047043690617,2025-10-10 14h41.15.423138 +0200,
4,0,4,,,,,,space,1.7289340000006632,None,None,2,0.6426657000010891,0.1727006999990408,None,0,0,0,0,,,,,1,0,1,0,,,,,4,0,4,0,635.4426624999996,,,,,,,,,,,,,,,,,,,,,,,,,,,,,,,,,,,,,,,,,,,,,,,,,,,,,,,,,Wurm,3.148,635.4276672999986,635.4281781999998,635.4282824999991,635.4426624999996,638.5926797999982,638.5766193999989,638.5795969999999,638.5926797999982,638.5926797999982,638.5926797999982,638.5926797999982,640.5925216999985,640.5925216999985,640.5925216999985,640.5925216999985,640.5768560999986,2,0.6426657000010891,0.1727006999990408,None,,,,,,,,,,,,,,,,,,,,,,1311,1,2025-10-10_14h41.06.143,sm,2024.2.4,60.0047043690617,2025-10-10 14h41.15.423138 +0200,
5,0,5,,,,,,space,1.7289340000006632,None,None,3,0.9452681000002485,0.19450699999833887,None,0,0,0,0,,,,,1,0,1,0,,,,,5,0,5,0,640.5925216999985,,,,,,,,,,,,,,,,,,,,,,,,,,,,,,,,,,,,,,,,,,,,,,,,,,,,,,,,,Tee,3.6237,640.5773781999997,640.5778861999988,640.5779904999999,640.5925216999985,644.2253305999984,644.2096126999986,644.2135584999996,644.2253305999984,644.2253305999984,644.2253305999984,644.2253305999984,646.2253415999985,646.2253415999985,646.2253415999985,646.2253415999985,646.2100022999985,3,0.9452681000002485,0.19450699999833887,None,,,,,,,,,,,,,,,,,,,,,,1311,1,2025-10-10_14h41.06.143,sm,2024.2.4,60.0047043690617,2025-10-10 14h41.15.423138 +0200,
6,0,6,,,,,,space,1.7289340000006632,None,None,2,0.9635603000006085,0.14461099999971339,None,0,0,0,0,,,,,1,0,1,0,,,,,6,0,6,0,646.2253415999985,,,,,,,,,,,,,,,,,,,,,,,,,,,,,,,,,,,,,,,,,,,,,,,,,,,,,,,,,Garten,2.2027,646.2104961999994,646.2110025999991,646.2111110999995,646.2253415999985,648.4419286999982,648.4264083999988,648.4304115999985,648.4419286999982,648.4419286999982,648.4419286999982,648.4419286999982,650.4421128999984,650.4421128999984,650.4421128999984,650.4421128999984,650.4262790999983,2,0.9635603000006085,0.14461099999971339,None,,,,,,,,,,,,,,,,,,,,,,1311,1,2025-10-10_14h41.06.143,sm,2024.2.4,60.0047043690617,2025-10-10 14h41.15.423138 +0200,
7,0,7,,,,,,space,1.7289340000006632,None,None,2,0.6569847999999183,0.17800519999946118,None,0,0,0,0,,,,,1,0,1,0,,,,,7,0,7,0,650.4421128999984,,,,,,,,,,,,,,,,,,,,,,,,,,,,,,,,,,,,,,,,,,,,,,,,,,,,,,,,,Vogel,3.4343,650.426787299999,650.4273304999988,650.4274330999997,650.4421128999984,653.8922871999985,653.8760708999998,653.8799714999986,653.8922871999985,653.8922871999985,653.8922871999985,653.8922871999985,655.8916312999991,655.8916312999991,655.8916312999991,655.8916312999991,655.8760998999987,2,0.6569847999999183,0.17800519999946118,None,,,,,,,,,,,,,,,,,,,,,,1311,1,2025-10-10_14h41.06.143,sm,2024.2.4,60.0047043690617,2025-10-10 14h41.15.423138 +0200,
8,0,8,,,,,,space,1.7289340000006632,None,None,3,0.7332623999991483,0.19085070000073756,None,0,0,0,0,,,,,1,0,1,0,,,,,8,0,8,0,655.8916312999991,,,,,,,,,,,,,,,,,,,,,,,,,,,,,,,,,,,,,,,,,,,,,,,,,,,,,,,,,Arbeit,2.9548,655.8766100999983,655.8771123999995,655.8772175999984,655.8916312999991,658.8578122999988,658.8422723999993,658.8461848999996,658.8578122999988,658.8578122999988,658.8578122999988,658.8578122999988,660.8578966999994,660.8578966999994,660.8578966999994,660.8578966999994,660.8423639999983,3,0.7332623999991483,0.19085070000073756,None,,,,,,,,,,,,,,,,,,,,,,1311,1,2025-10-10_14h41.06.143,sm,2024.2.4,60.0047043690617,2025-10-10 14h41.15.423138 +0200,
9,0,9,,,,,,space,1.7289340000006632,None,None,2,0.6598792999993748,0.16553080000085174,None,0,0,0,0,,,,,1,0,1,0,,,,,9,0,9,0,660.8578966999994,,,,,,,,,,,,,,,,,,,,,,,,,,,,,,,,,,,,,,,,,,,,,,,,,,,,,,,,,Besucher,3.136,660.8428703999998,660.8436180999997,660.8437910999983,660.8578966999994,664.0076805999997,663.9918795999984,663.9958361999998,664.0076805999997,664.0076805999997,664.0076805999997,664.0076805999997,666.0075953999985,666.0075953999985,666.0075953999985,666.0075953999985,665.9921010999988,2,0.6598792999993748,0.16553080000085174,None,,,,,,,,,,,,,,,,,,,,,,1311,1,2025-10-10_14h41.06.143,sm,2024.2.4,60.0047043690617,2025-10-10 14h41.15.423138 +0200,
10,0,10,,,,,,space,1.7289340000006632,None,None,2,1.0510343000005378,0.14769870000054652,None,0,0,0,0,,,,,1,0,1,0,,,,,10,0,10,0,666.0075953999985,,,,,,,,,,,,,,,,,,,,,,,,,,,,,,,,,,,,,,,,,,,,,,,,,,,,,,,,,Zapfen,2.1473,665.9926125999991,665.9931328999992,665.9932413999995,666.0075953999985,668.1573749999989,668.1419331999987,668.1460750999995,668.1573749999989,668.1573749999989,668.1573749999989,668.1573749999989,670.1574152999983,670.1574152999983,670.1574152999983,670.1574152999983,670.1418965999983,2,1.0510343000005378,0.14769870000054652,None,,,,,,,,,,,,,,,,,,,,,,1311,1,2025-10-10_14h41.06.143,sm,2024.2.4,60.0047043690617,2025-10-10 14h41.15.423138 +0200,
11,0,11,,,,,,space,1.7289340000006632,None,None,3,0.6699760999999853,0.20487250000041968,None,0,0,0,0,,,,,1,0,1,0,,,,,11,0,11,0,670.1574152999983,,,,,,,,,,,,,,,,,,,,,,,,,,,,,,,,,,,,,,,,,,,,,,,,,,,,,,,,,Keller,2.0127,670.1424051999984,670.1429237999982,670.1430315999987,670.1574152999983,672.1737410999995,672.1581708999984,672.1620587999987,672.1737410999995,672.1737410999995,672.1737410999995,672.1737410999995,674.1739693,674.1739693,674.1739693,674.1739693,674.1582560999996,3,0.6699760999999853,0.20487250000041968,None,,,,,,,,,,,,,,,,,,,,,,1311,1,2025-10-10_14h41.06.143,sm,2024.2.4,60.0047043690617,2025-10-10 14h41.15.423138 +0200,
12,0,12,,,,,,space,1.7289340000006632,None,None,3,0.7837481999995362,0.20953820000067935,None,0,0,0,0,,,,,1,0,1,0,,,,,12,0,12,0,674.1739693,,,,,,,,,,,,,,,,,,,,,,,,,,,,,,,,,,,,,,,,,,,,,,,,,,,,,,,,,Ferien,2.0226,674.1587703999994,674.1592806999997,674.159379499999,674.1739693,676.2068382999987,676.1910935999986,676.195425599999,676.2068382999987,676.2068382999987,676.2068382999987,676.2068382999987,678.2068480999988,678.2068480999988,678.2068480999988,678.2068480999988,678.1911694999999,3,0.7837481999995362,0.20953820000067935,None,,,,,,,,,,,,,,,,,,,,,,1311,1,2025-10-10_14h41.06.143,sm,2024.2.4,60.0047043690617,2025-10-10 14h41.15.423138 +0200,
13,0,13,,,,,,space,1.7289340000006632,None,None,2,1.1717762000007497,0.19308900000032736,None,0,0,0,0,,,,,1,0,1,0,,,,,13,0,13,0,678.2068480999988,,,,,,,,,,,,,,,,,,,,,,,,,,,,,,,,,,,,,,,,,,,,,,,,,,,,,,,,,Familie,2.9235,678.1916538999994,678.1921444999989,678.1922419999992,678.2068480999988,681.1403919999993,681.1243287999987,681.1289806999994,681.1403919999993,681.1403919999993,681.1403919999993,681.1403919999993,683.1399924999987,683.1399924999987,683.1399924999987,683.1399924999987,683.1243435999986,2,1.1717762000007497,0.19308900000032736,None,,,,,,,,,,,,,,,,,,,,,,1311,1,2025-10-10_14h41.06.143,sm,2024.2.4,60.0047043690617,2025-10-10 14h41.15.423138 +0200,
14,0,14,,,,,,space,1.7289340000006632,None,None,3,0.765515700000833,0.2006560999998328,None,0,0,0,0,,,,,1,0,1,0,,,,,14,0,14,0,683.1399924999987,,,,,,,,,,,,,,,,,,,,,,,,,,,,,,,,,,,,,,,,,,,,,,,,,,,,,,,,,Ordner,2.2248,683.1248591999993,683.1253588,683.1254622999986,683.1399924999987,685.3732575999984,685.3573128999997,685.3608634999982,685.3732575999984,685.3732575999984,685.3732575999984,685.3732575999984,687.3729308999991,687.3729308999991,687.3729308999991,687.3729308999991,687.3574381999988,3,0.765515700000833,0.2006560999998328,None,,,,,,,,,,,,,,,,,,,,,,1311,1,2025-10-10_14h41.06.143,sm,2024.2.4,60.0047043690617,2025-10-10 14h41.15.423138 +0200,
15,0,15,,,,,,space,1.7289340000006632,None,None,2,1.2645688000011432,0.2862604999991163,None,0,0,0,0,,,,,1,0,1,0,,,,,15,0,15,0,687.3729308999991,,,,,,,,,,,,,,,,,,,,,,,,,,,,,,,,,,,,,,,,,,,,,,,,,,,,,,,,,Party,2.9053,687.3579471999983,687.358465199999,687.3585688999992,687.3729308999991,690.2894546999996,690.2739335999995,690.2776009999998,690.2894546999996,690.2894546999996,690.2894546999996,690.2894546999996,692.2894085999997,692.2894085999997,692.2894085999997,692.2894085999997,692.2737416999989,2,1.2645688000011432,0.2862604999991163,None,,,,,,,,,,,,,,,,,,,,,,1311,1,2025-10-10_14h41.06.143,sm,2024.2.4,60.0047043690617,2025-10-10 14h41.15.423138 +0200,
16,0,16,,,,,,space,1.7289340000006632,None,None,2,0.6430256999992707,0.15294920000087586,None,0,0,0,0,,,,,1,0,1,0,,,,,16,0,16,0,692.2894085999997,,,,,,,,,,,,,,,,,,,,,,,,,,,,,,,,,,,,,,,,,,,,,,,,,,,,,,,,,Vampir,5.7005,692.2742527999999,692.2749903999993,692.2750932999988,692.2894085999997,697.9889826999988,697.9733326999994,697.9766938999983,697.9889826999988,697.9889826999988,697.9889826999988,697.9889826999988,699.9890576999987,699.9890576999987,699.9890576999987,699.9890576999987,699.9735067999991,2,0.6430256999992707,0.15294920000087586,None,,,,,,,,,,,,,,,,,,,,,,1311,1,2025-10-10_14h41.06.143,sm,2024.2.4,60.0047043690617,2025-10-10 14h41.15.423138 +0200,
17,0,17,,,,,,space,1.7289340000006632,None,None,3,0.9001586000013049,0.22242000000005646,None,0,0,0,0,,,,,1,0,1,0,,,,,17,0,17,0,699.9890576999987,,,,,,,,,,,,,,,,,,,,,,,,,,,,,,,,,,,,,,,,,,,,,,,,,,,,,,,,,Bluse,2.1426,699.9740355999984,699.974618799999,699.9747241999994,699.9890576999987,702.1387739999991,702.1233090999995,702.1273925999994,702.1387739999991,702.1387739999991,702.1387739999991,702.1387739999991,704.1387373999987,704.1387373999987,704.1387373999987,704.1387373999987,704.1230854999994,3,0.9001586000013049,0.22242000000005646,None,,,,,,,,,,,,,,,,,,,,,,1311,1,2025-10-10_14h41.06.143,sm,2024.2.4,60.0047043690617,2025-10-10 14h41.15.423138 +0200,
18,0,18,,,,,,space,1.7289340000006632,None,None,3,0.9794115999993664,0.2018597000005684,None,0,0,0,0,,,,,1,0,1,0,,,,,18,0,18,0,704.1387373999987,,,,,,,,,,,,,,,,,,,,,,,,,,,,,,,,,,,,,,,,,,,,,,,,,,,,,,,,,Brief,2.1345,704.1236079999999,704.1241038999997,704.1242125999997,704.1387373999987,706.2885328999982,706.2728006999987,706.2777973999982,706.2885328999982,706.2885328999982,706.2885328999982,706.2885328999982,708.2884476999989,708.2884476999989,708.2884476999989,708.2884476999989,708.2729234999988,3,0.9794115999993664,0.2018597000005684,None,,,,,,,,,,,,,,,,,,,,,,1311,1,2025-10-10_14h41.06.143,sm,2024.2.4,60.0047043690617,2025-10-10 14h41.15.423138 +0200,
19,0,19,,,,,,space,1.7289340000006632,None,None,3,1.4077844999992521,0.18754430000080902,None,0,0,0,0,,,,,1,0,1,0,,,,,19,0,19,0,708.2884476999989,,,,,,,,,,,,,,,,,,,,,,,,,,,,,,,,,,,,,,,,,,,,,,,,,,,,,,,,,Fliegen,2.2315,708.2734244999992,708.274064199999,708.2741662999997,708.2884476999989,710.5216692999984,710.5058999999983,710.5097159999987,710.5216692999984,710.5216692999984,710.5216692999984,710.5216692999984,712.5215563999991,712.5215563999991,712.5215563999991,712.5215563999991,712.5062039999993,3,1.4077844999992521,0.18754430000080902,None,,,,,,,,,,,,,,,,,,,,,,1311,1,2025-10-10_14h41.06.143,sm,2024.2.4,60.0047043690617,2025-10-10 14h41.15.423138 +0200,
20,0,20,,,,,,space,1.7289340000006632,None,None,2,0.946301099998891,0.1659749999998894,None,0,0,0,0,,,,,1,0,1,0,,,,,20,0,20,0,712.5215563999991,,,,,,,,,,,,,,,,,,,,,,,,,,,,,,,,,,,,,,,,,,,,,,,,,,,,,,,,,Kunde,3.4265,712.5067385999992,712.5072652999988,712.5073714999999,712.5215563999991,715.9548877999987,715.9388396999984,715.9426721,715.9548877999987,715.9548877999987,715.9548877999987,715.9548877999987,717.9545703999993,717.9545703999993,717.9545703999993,717.9545703999993,717.9390737999984,2,0.946301099998891,0.1659749999998894,None,,,,,,,,,,,,,,,,,,,,,,1311,1,2025-10-10_14h41.06.143,sm,2024.2.4,60.0047043690617,2025-10-10 14h41.15.423138 +0200,
21,0,21,,,,,,space,1.7289340000006632,None,None,3,1.1351894999988872,0.28053990000080375,None,0,0,0,0,,,,,1,0,1,0,,,,,21,0,21,0,717.9545703999993,,,,,,,,,,,,,,,,,,,,,,,,,,,,,,,,,,,,,,,,,,,,,,,,,,,,,,,,,Sand,2.8857,717.9395835999985,717.9402309999987,717.9403318999994,717.9545703999993,720.8542548999994,720.8386349999982,720.8420594999989,720.8542548999994,720.8542548999994,720.8542548999994,720.8542548999994,722.8545031999984,722.8545031999984,722.8545031999984,722.8545031999984,722.8386561999996,3,1.1351894999988872,0.28053990000080375,None,,,,,,,,,,,,,,,,,,,,,,1311,1,2025-10-10_14h41.06.143,sm,2024.2.4,60.0047043690617,2025-10-10 14h41.15.423138 +0200,
22,0,22,,,,,,space,1.7289340000006632,None,None,None,,,None,0,0,0,0,,,,,1,0,1,0,,,,,22,0,22,0,722.8545031999984,,,,,,,,,,,,,,,,,,,,,,,,,,,,,,,,,,,,,,,,,,,,,,,,,,,,,,,,,Spaß,2.3913,722.8391846999984,722.8398292999991,722.8399329999993,722.8545031999984,725.2537177999984,725.238208499999,725.2411837,725.2537177999984,725.2537177999984,725.2537177999984,725.2537177999984,727.2540013999987,727.2540013999987,727.2540013999987,727.2540013999987,727.2386589999987,None,,,None,,,,,,,,,,,,,,,,,,,,,,1311,1,2025-10-10_14h41.06.143,sm,2024.2.4,60.0047043690617,2025-10-10 14h41.15.423138 +0200,
23,0,23,,,,,,space,1.7289340000006632,None,None,3,0.8897120999990875,0.17173260000163282,None,0,0,0,0,,,,,1,0,1,0,,,,,23,0,23,0,727.2540013999987,,,,,,,,,,,,,,,,,,,,,,,,,,,,,,,,,,,,,,,,,,,,,,,,,,,,,,,,,Vergangenheit,4.0765,727.2391389999993,727.2397204999997,727.2398249999987,727.2540013999987,731.3368440999984,731.3215590999989,731.3255941999996,731.3368440999984,731.3368440999984,731.3368440999984,731.3368440999984,733.3369247999999,733.3369247999999,733.3369247999999,733.3369247999999,733.3214922999996,3,0.8897120999990875,0.17173260000163282,None,,,,,,,,,,,,,,,,,,,,,,1311,1,2025-10-10_14h41.06.143,sm,2024.2.4,60.0047043690617,2025-10-10 14h41.15.423138 +0200,
24,0,24,,,,,,space,1.7289340000006632,None,None,3,1.598673399999825,0.15754780000133906,None,0,0,0,0,,,,,1,0,1,0,,,,,24,0,24,0,733.3369247999999,,,,,,,,,,,,,,,,,,,,,,,,,,,,,,,,,,,,,,,,,,,,,,,,,,,,,,,,,Zähne,2.0883,733.3219857999993,733.3224717999983,733.3225864999986,733.3369247999999,735.4368959999993,735.4213568999985,735.4254374999982,735.4368959999993,735.4368959999993,735.4368959999993,735.4368959999993,737.4367525999987,737.4367525999987,737.4367525999987,737.4367525999987,737.4211014999983,3,1.598673399999825,0.15754780000133906,None,,,,,,,,,,,,,,,,,,,,,,1311,1,2025-10-10_14h41.06.143,sm,2024.2.4,60.0047043690617,2025-10-10 14h41.15.423138 +0200,
25,0,25,,,,,,space,1.7289340000006632,None,None,3,0.8245488000011392,0.20241239999995742,None,0,0,0,0,,,,,1,0,1,0,,,,,25,0,25,0,737.4367525999987,,,,,,,,,,,,,,,,,,,,,,,,,,,,,,,,,,,,,,,,,,,,,,,,,,,,,,,,,Weiß,2.6884,737.4215803999996,737.4222052999994,737.4223061999983,737.4367525999987,740.1362943999993,740.1209288999999,740.1247824999991,740.1362943999993,740.1362943999993,740.1362943999993,740.1362943999993,742.1364237999987,742.1364237999987,742.1364237999987,742.1364237999987,742.1209799999997,3,0.8245488000011392,0.20241239999995742,None,,,,,,,,,,,,,,,,,,,,,,1311,1,2025-10-10_14h41.06.143,sm,2024.2.4,60.0047043690617,2025-10-10 14h41.15.423138 +0200,
26,0,26,,,,,,space,1.7289340000006632,None,None,3,0.921998199999507,0.18406770000001416,None,0,0,0,0,,,,,1,0,1,0,,,,,26,0,26,0,742.1364237999987,,,,,,,,,,,,,,,,,,,,,,,,,,,,,,,,,,,,,,,,,,,,,,,,,,,,,,,,,Maske,3.5259,742.121503299999,742.1220135999993,742.1221161999983,742.1364237999987,745.6701182999986,745.653775499999,745.6576824999993,745.6701182999986,745.6701182999986,745.6701182999986,745.6701182999986,747.6693674999988,747.6693674999988,747.6693674999988,747.6693674999988,747.6539008999989,3,0.921998199999507,0.18406770000001416,None,,,,,,,,,,,,,,,,,,,,,,1311,1,2025-10-10_14h41.06.143,sm,2024.2.4,60.0047043690617,2025-10-10 14h41.15.423138 +0200,
27,0,27,,,,,,space,1.7289340000006632,None,None,2,1.8652043000001868,None,None,0,0,0,0,,,,,1,0,1,0,,,,,27,0,27,0,747.6693674999988,,,,,,,,,,,,,,,,,,,,,,,,,,,,,,,,,,,,,,,,,,,,,,,,,,,,,,,,,Knöchel,2.7623,747.6544264999993,747.6549356999985,747.655037999999,747.6693674999988,750.4358386999993,750.4201977999983,750.4241434999985,750.4358386999993,750.4358386999993,750.4358386999993,750.4358386999993,752.4361414999985,752.4361414999985,752.4361414999985,752.4361414999985,752.4203098999988,2,1.8652043000001868,None,None,,,,,,,,,,,,,,,,,,,,,,1311,1,2025-10-10_14h41.06.143,sm,2024.2.4,60.0047043690617,2025-10-10 14h41.15.423138 +0200,
28,0,28,,,,,,space,1.7289340000006632,None,None,3,1.5788174999997864,0.20041820000005828,None,0,0,0,0,,,,,1,0,1,0,,,,,28,0,28,0,752.4361414999985,,,,,,,,,,,,,,,,,,,,,,,,,,,,,,,,,,,,,,,,,,,,,,,,,,,,,,,,,Schule,3.3639,752.4208185999996,752.4213500999995,752.4214520999994,752.4361414999985,755.8022037999999,755.7869941999998,755.7911820999998,755.8022037999999,755.8022037999999,755.8022037999999,755.8022037999999,757.8026831999996,757.8026831999996,757.8026831999996,757.8026831999996,757.786634099999,3,1.5788174999997864,0.20041820000005828,None,,,,,,,,,,,,,,,,,,,,,,1311,1,2025-10-10_14h41.06.143,sm,2024.2.4,60.0047043690617,2025-10-10 14h41.15.423138 +0200,
29,0,29,,,,,,space,1.7289340000006632,None,None,3,0.7060426999996707,0.19951949999995122,None,0,0,0,0,,,,,1,0,1,0,,,,,29,0,29,0,757.8026831999996,,,,,,,,,,,,,,,,,,,,,,,,,,,,,,,,,,,,,,,,,,,,,,,,,,,,,,,,,Geschirr,3.0671,757.7871454999986,757.7878884999991,757.7879907999995,757.8026831999996,760.8689873999992,760.8532139999988,760.8573024999987,760.8689873999992,760.8689873999992,760.8689873999992,760.8689873999992,762.8686257999998,762.8686257999998,762.8686257999998,762.8686257999998,762.8531394999991,3,0.7060426999996707,0.19951949999995122,None,,,,,,,,,,,,,,,,,,,,,,1311,1,2025-10-10_14h41.06.143,sm,2024.2.4,60.0047043690617,2025-10-10 14h41.15.423138 +0200,
30,0,30,,,,,,space,1.7289340000006632,None,None,2,1.2168925999994826,0.17861050000101386,None,0,0,0,0,,,,,1,0,1,0,,,,,30,0,30,0,762.8686257999998,,,,,,,,,,,,,,,,,,,,,,,,,,,,,,,,,,,,,,,,,,,,,,,,,,,,,,,,,Gesicht,2.487,762.8536538999997,762.8541607999996,762.8542639999996,762.8686257999998,765.3683275999992,765.3528616999993,765.3569051999984,765.3683275999992,765.3683275999992,765.3683275999992,765.3683275999992,767.3684236999998,767.3684236999998,767.3684236999998,767.3684236999998,767.3529561999985,2,1.2168925999994826,0.17861050000101386,None,,,,,,,,,,,,,,,,,,,,,,1311,1,2025-10-10_14h41.06.143,sm,2024.2.4,60.0047043690617,2025-10-10 14h41.15.423138 +0200,
31,0,31,,,,,,space,1.7289340000006632,None,None,2,1.0677691999990202,0.14496470000085537,None,0,0,0,0,,,,,1,0,1,0,,,,,31,0,31,0,767.3684236999998,,,,,,,,,,,,,,,,,,,,,,,,,,,,,,,,,,,,,,,,,,,,,,,,,,,,,,,,,Gespräch,3.8778,767.3534653999995,767.3542034999991,767.3543049,767.3684236999998,771.2511847999995,771.2355988999989,771.2395463999983,771.2511847999995,771.2511847999995,771.2511847999995,771.2511847999995,773.2513497,773.2513497,773.2513497,773.2513497,773.2359835999996,2,1.0677691999990202,0.14496470000085537,None,,,,,,,,,,,,,,,,,,,,,,1311,1,2025-10-10_14h41.06.143,sm,2024.2.4,60.0047043690617,2025-10-10 14h41.15.423138 +0200,
32,0,32,,,,,,space,1.7289340000006632,None,None,2,0.8765263000004779,0.3201396999993449,None,0,0,0,0,,,,,1,0,1,0,,,,,32,0,32,0,773.2513497,,,,,,,,,,,,,,,,,,,,,,,,,,,,,,,,,,,,,,,,,,,,,,,,,,,,,,,,,Bruder,3.2446,773.2364756999996,773.2371439999988,773.2372582999997,773.2513497,776.5012346999993,776.4854968999989,776.4911183999993,776.5012346999993,776.5012346999993,776.5012346999993,776.5012346999993,778.5009799,778.5009799,778.5009799,778.5009799,778.4855661999991,2,0.8765263000004779,0.3201396999993449,None,,,,,,,,,,,,,,,,,,,,,,1311,1,2025-10-10_14h41.06.143,sm,2024.2.4,60.0047043690617,2025-10-10 14h41.15.423138 +0200,
33,0,33,,,,,,space,1.7289340000006632,None,None,3,1.1402770999993663,0.1666146999996272,None,0,0,0,0,,,,,1,0,1,0,,,,,33,0,33,0,778.5009799,,,,,,,,,,,,,,,,,,,,,,,,,,,,,,,,,,,,,,,,,,,,,,,,,,,,,,,,,Geheimnis,2.152,778.4860835999989,778.4865967999995,778.4867018999994,778.5009799,780.6671069999993,780.6517147999984,780.6548976999984,780.6671069999993,780.6671069999993,780.6671069999993,780.6671069999993,782.6676241999994,782.6676241999994,782.6676241999994,782.6676241999994,782.6515373999991,3,1.1402770999993663,0.1666146999996272,None,,,,,,,,,,,,,,,,,,,,,,1311,1,2025-10-10_14h41.06.143,sm,2024.2.4,60.0047043690617,2025-10-10 14h41.15.423138 +0200,
34,0,34,,,,,,space,1.7289340000006632,None,None,3,0.9990949999992154,0.17451419999997597,None,0,0,0,0,,,,,1,0,1,0,,,,,34,0,34,0,782.6676241999994,,,,,,,,,,,,,,,,,,,,,,,,,,,,,,,,,,,,,,,,,,,,,,,,,,,,,,,,,Fiktion,3.3693,782.652034499999,782.6526382999982,782.6528159999998,782.6676241999994,786.0503831999995,786.0347484999984,786.0394220999988,786.0503831999995,786.0503831999995,786.0503831999995,786.0503831999995,788.0505826999997,788.0505826999997,788.0505826999997,788.0505826999997,788.0349606,3,0.9990949999992154,0.17451419999997597,None,,,,,,,,,,,,,,,,,,,,,,1311,1,2025-10-10_14h41.06.143,sm,2024.2.4,60.0047043690617,2025-10-10 14h41.15.423138 +0200,
35,0,35,,,,,,space,1.7289340000006632,None,None,None,,,None,0,0,0,0,,,,,1,0,1,0,,,,,35,0,35,0,788.0505826999997,,,,,,,,,,,,,,,,,,,,,,,,,,,,,,,,,,,,,,,,,,,,,,,,,,,,,,,,,Sport,3.1208,788.0354734999983,788.035985999999,788.0360909999999,788.0505826999997,791.1834878999998,791.1678263999984,791.1715246999993,791.1834878999998,791.1834878999998,791.1834878999998,791.1834878999998,793.1836562999997,793.1836562999997,793.1836562999997,793.1836562999997,793.1679815999996,None,,,None,,,,,,,,,,,,,,,,,,,,,,1311,1,2025-10-10_14h41.06.143,sm,2024.2.4,60.0047043690617,2025-10-10 14h41.15.423138 +0200,
36,0,36,,,,,,space,1.7289340000006632,None,None,3,0.6898483999993914,0.18855200000143668,None,0,0,0,0,,,,,1,0,1,0,,,,,36,0,36,0,793.1836562999997,,,,,,,,,,,,,,,,,,,,,,,,,,,,,,,,,,,,,,,,,,,,,,,,,,,,,,,,,Küche,2.7931,793.1684708999983,793.1689823999986,793.1690855999987,793.1836562999997,795.9834228999989,795.9676218999994,795.9710621999984,795.9834228999989,795.9834228999989,795.9834228999989,795.9834228999989,797.9836174999982,797.9836174999982,797.9836174999982,797.9836174999982,797.9677592999997,3,0.6898483999993914,0.18855200000143668,None,,,,,,,,,,,,,,,,,,,,,,1311,1,2025-10-10_14h41.06.143,sm,2024.2.4,60.0047043690617,2025-10-10 14h41.15.423138 +0200,
37,0,37,,,,,,space,1.7289340000006632,None,None,2,1.5413922000007005,0.18248830000084126,None,0,0,0,0,,,,,1,0,1,0,,,,,37,0,37,0,797.9836174999982,,,,,,,,,,,,,,,,,,,,,,,,,,,,,,,,,,,,,,,,,,,,,,,,,,,,,,,,,Geschmack,4.456,797.9682688999983,797.968857599999,797.9689598999994,797.9836174999982,802.449276899999,802.4338265999995,802.4375842999998,802.449276899999,802.449276899999,802.449276899999,802.449276899999,804.4494517999992,804.4494517999992,804.4494517999992,804.4494517999992,804.4338154999987,2,1.5413922000007005,0.18248830000084126,None,,,,,,,,,,,,,,,,,,,,,,1311,1,2025-10-10_14h41.06.143,sm,2024.2.4,60.0047043690617,2025-10-10 14h41.15.423138 +0200,
38,0,38,,,,,,space,1.7289340000006632,None,None,3,0.8194555999998556,0.203726399999141,None,0,0,0,0,,,,,1,0,1,0,,,,,38,0,38,0,804.4494517999992,,,,,,,,,,,,,,,,,,,,,,,,,,,,,,,,,,,,,,,,,,,,,,,,,,,,,,,,,Skizze,2.8186,804.4343281999991,804.4348391999993,804.4349415999986,804.4494517999992,807.2825299999986,807.2670443999996,807.2719564999989,807.2825299999986,807.2825299999986,807.2825299999986,807.2825299999986,809.2826875999999,809.2826875999999,809.2826875999999,809.2826875999999,809.2669678999991,3,0.8194555999998556,0.203726399999141,None,,,,,,,,,,,,,,,,,,,,,,1311,1,2025-10-10_14h41.06.143,sm,2024.2.4,60.0047043690617,2025-10-10 14h41.15.423138 +0200,
39,0,39,,,,,,space,1.7289340000006632,None,None,3,1.0405962000004365,0.23925819999931264,None,0,0,0,0,,,,,1,0,1,0,,,,,39,0,39,0,809.2826875999999,,,,,,,,,,,,,,,,,,,,,,,,,,,,,,,,,,,,,,,,,,,,,,,,,,,,,,,,,Zeitung,2.9372,809.2674810999997,809.2679946999997,809.2680993999984,809.2826875999999,812.2322315999991,812.2165848999994,812.2203284999996,812.2322315999991,812.2322315999991,812.2322315999991,812.2322315999991,814.2322974999988,814.2322974999988,814.2322974999988,814.2322974999988,814.2165748999996,3,1.0405962000004365,0.23925819999931264,None,,,,,,,,,,,,,,,,,,,,,,1311,1,2025-10-10_14h41.06.143,sm,2024.2.4,60.0047043690617,2025-10-10 14h41.15.423138 +0200,
40,0,40,,,,,,space,1.7289340000006632,None,None,3,0.7824474999997619,0.2126963999999134,None,0,0,0,0,,,,,1,0,1,0,,,,,40,0,40,0,814.2322974999988,,,,,,,,,,,,,,,,,,,,,,,,,,,,,,,,,,,,,,,,,,,,,,,,,,,,,,,,,Ecke,3.7593,814.2170884999996,814.2175914,814.2177028999995,814.2322974999988,817.9985221999996,817.9831964999994,817.9867329999997,817.9985221999996,817.9985221999996,817.9985221999996,817.9985221999996,819.998797799999,819.998797799999,819.998797799999,819.998797799999,819.9829123,3,0.7824474999997619,0.2126963999999134,None,,,,,,,,,,,,,,,,,,,,,,1311,1,2025-10-10_14h41.06.143,sm,2024.2.4,60.0047043690617,2025-10-10 14h41.15.423138 +0200,
41,0,41,,,,,,space,1.7289340000006632,None,None,3,0.8091715999998996,0.16276590000052238,None,0,0,0,0,,,,,1,0,1,0,,,,,41,0,41,0,819.998797799999,,,,,,,,,,,,,,,,,,,,,,,,,,,,,,,,,,,,,,,,,,,,,,,,,,,,,,,,,Kapitel,4.5273,819.9834271,819.9839224999996,819.9840243999988,819.998797799999,824.5316364999999,824.5158245999992,824.5200658999984,824.5316364999999,824.5316364999999,824.5316364999999,824.5316364999999,826.5316697999988,826.5316697999988,826.5316697999988,826.5316697999988,826.5159476999997,3,0.8091715999998996,0.16276590000052238,None,,,,,,,,,,,,,,,,,,,,,,1311,1,2025-10-10_14h41.06.143,sm,2024.2.4,60.0047043690617,2025-10-10 14h41.15.423138 +0200,
42,0,42,,,,,,space,1.7289340000006632,None,None,2,0.7958939999989525,0.13629349999973783,None,0,0,0,0,,,,,1,0,1,0,,,,,42,0,42,0,826.5316697999988,,,,,,,,,,,,,,,,,,,,,,,,,,,,,,,,,,,,,,,,,,,,,,,,,,,,,,,,,Spinne,2.9519,826.5164579999982,826.5169583999996,826.5170684999994,826.5316697999988,829.4979562999997,829.4822944999996,829.4865371999986,829.4979562999997,829.4979562999997,829.4979562999997,829.4979562999997,831.4979798999993,831.4979798999993,831.4979798999993,831.4979798999993,831.4823125999992,2,0.7958939999989525,0.13629349999973783,None,,,,,,,,,,,,,,,,,,,,,,1311,1,2025-10-10_14h41.06.143,sm,2024.2.4,60.0047043690617,2025-10-10 14h41.15.423138 +0200,
43,0,43,,,,,,space,1.7289340000006632,None,None,3,0.8645520999998553,0.19079989999954705,None,0,0,0,0,,,,,1,0,1,0,,,,,43,0,43,0,831.4979798999993,,,,,,,,,,,,,,,,,,,,,,,,,,,,,,,,,,,,,,,,,,,,,,,,,,,,,,,,,Fahrrad,2.4581,831.4828260999984,831.4834739999988,831.4835785999985,831.4979798999993,833.9640164999983,833.9485255,833.9523142999988,833.9640164999983,833.9640164999983,833.9640164999983,833.9640164999983,835.9642185999983,835.9642185999983,835.9642185999983,835.9642185999983,835.9485961999999,3,0.8645520999998553,0.19079989999954705,None,,,,,,,,,,,,,,,,,,,,,,1311,1,2025-10-10_14h41.06.143,sm,2024.2.4,60.0047043690617,2025-10-10 14h41.15.423138 +0200,
44,0,44,,,,,,space,1.7289340000006632,None,None,2,0.93642809999983,0.1499600000006467,None,0,0,0,0,,,,,1,0,1,0,,,,,44,0,44,0,835.9642185999983,,,,,,,,,,,,,,,,,,,,,,,,,,,,,,,,,,,,,,,,,,,,,,,,,,,,,,,,,Moor,2.625,835.9491196999988,835.9496266999995,835.9497304999986,835.9642185999983,838.5973374999994,838.5816566999983,838.5850581999985,838.5973374999994,838.5973374999994,838.5973374999994,838.5973374999994,840.5973583999985,840.5973583999985,840.5973583999985,840.5973583999985,840.5818431999996,2,0.93642809999983,0.1499600000006467,None,,,,,,,,,,,,,,,,,,,,,,1311,1,2025-10-10_14h41.06.143,sm,2024.2.4,60.0047043690617,2025-10-10 14h41.15.423138 +0200,
45,0,45,,,,,,space,1.7289340000006632,None,None,3,0.9201585999999224,0.18650830000115093,None,0,0,0,0,,,,,1,0,1,0,,,,,45,0,45,0,840.5973583999985,,,,,,,,,,,,,,,,,,,,,,,,,,,,,,,,,,,,,,,,,,,,,,,,,,,,,,,,,Album,4.8152,840.5823583999991,840.5828716999986,840.5829742999995,840.5973583999985,845.4137057999997,845.3979428999992,845.4024210999996,845.4137057999997,845.4137057999997,845.4137057999997,845.4137057999997,847.4136530999986,847.4136530999986,847.4136530999986,847.4136530999986,847.3979211999995,3,0.9201585999999224,0.18650830000115093,None,,,,,,,,,,,,,,,,,,,,,,1311,1,2025-10-10_14h41.06.143,sm,2024.2.4,60.0047043690617,2025-10-10 14h41.15.423138 +0200,
46,0,46,,,,,,space,1.7289340000006632,None,None,2,1.0592575999999099,0.13602820000050997,None,0,0,0,0,,,,,1,0,1,0,,,,,46,0,46,0,847.4136530999986,,,,,,,,,,,,,,,,,,,,,,,,,,,,,,,,,,,,,,,,,,,,,,,,,,,,,,,,,Musik,2.2706,847.3984238999983,847.3989290999998,847.3990332999983,847.4136530999986,849.6967732999983,849.6812975999983,849.6854443999982,849.6967732999983,849.6967732999983,849.6967732999983,849.6967732999983,851.6967617999999,851.6967617999999,851.6967617999999,851.6967617999999,851.6811968999991,2,1.0592575999999099,0.13602820000050997,None,,,,,,,,,,,,,,,,,,,,,,1311,1,2025-10-10_14h41.06.143,sm,2024.2.4,60.0047043690617,2025-10-10 14h41.15.423138 +0200,
47,0,47,,,,,,space,1.7289340000006632,None,None,3,1.1691464000014093,0.21029859999907785,None,0,0,0,0,,,,,1,0,1,0,,,,,47,0,47,0,851.6967617999999,,,,,,,,,,,,,,,,,,,,,,,,,,,,,,,,,,,,,,,,,,,,,,,,,,,,,,,,,Tal,2.1269,851.6817128999992,851.6824837999993,851.6826609,851.6967617999999,853.8297703999997,853.8143923999996,853.8180753999986,853.8297703999997,853.8297703999997,853.8297703999997,853.8297703999997,855.8300024,855.8300024,855.8300024,855.8300024,855.8143383999995,3,1.1691464000014093,0.21029859999907785,None,,,,,,,,,,,,,,,,,,,,,,1311,1,2025-10-10_14h41.06.143,sm,2024.2.4,60.0047043690617,2025-10-10 14h41.15.423138 +0200,
48,0,48,,,,,,space,1.7289340000006632,None,None,3,0.942019000000073,0.19154130000060832,None,0,0,0,0,,,,,1,0,1,0,,,,,48,0,48,0,855.8300024,,,,,,,,,,,,,,,,,,,,,,,,,,,,,,,,,,,,,,,,,,,,,,,,,,,,,,,,,Sicherheit,4.1553,855.8148491999982,855.8154888999998,855.8155909999987,855.8300024,859.9959771999984,859.9803385999985,859.9843812999989,859.9959771999984,859.9959771999984,859.9959771999984,859.9959771999984,861.9961028999987,861.9961028999987,861.9961028999987,861.9961028999987,861.9804331999985,3,0.942019000000073,0.19154130000060832,None,,,,,,,,,,,,,,,,,,,,,,1311,1,2025-10-10_14h41.06.143,sm,2024.2.4,60.0047043690617,2025-10-10 14h41.15.423138 +0200,
49,0,49,,,,,,space,1.7289340000006632,None,None,3,0.7517473999996582,0.2078521000003093,None,0,0,0,0,,,,,1,0,1,0,,,,,49,0,49,0,861.9961028999987,,,,,,,,,,,,,,,,,,,,,,,,,,,,,,,,,,,,,,,,,,,,,,,,,,,,,,,,,Ring,2.0934,861.9809539999987,861.9814599999991,861.9815632999998,861.9961028999987,864.0958211999987,864.0803577999995,864.0838041999996,864.0958211999987,864.0958211999987,864.0958211999987,864.0958211999987,866.0958417999991,866.0958417999991,866.0958417999991,866.0958417999991,866.0803339999984,3,0.7517473999996582,0.2078521000003093,None,,,,,,,,,,,,,,,,,,,,,,1311,1,2025-10-10_14h41.06.143,sm,2024.2.4,60.0047043690617,2025-10-10 14h41.15.423138 +0200,
50,0,50,,,,,,space,1.7289340000006632,None,None,3,0.996832999999242,0.19683620000068913,None,0,0,0,0,,,,,1,0,1,0,,,,,50,0,50,0,866.0958417999991,,,,,,,,,,,,,,,,,,,,,,,,,,,,,,,,,,,,,,,,,,,,,,,,,,,,,,,,,Soße,5.3152,866.0808475999984,866.0813568999984,866.0814593999985,866.0958417999991,871.4119499999997,871.3962948999997,871.3995520999997,871.4119499999997,871.4119499999997,871.4119499999997,871.4119499999997,873.4121911999991,873.4121911999991,873.4121911999991,873.4121911999991,873.3965137999985,3,0.996832999999242,0.19683620000068913,None,,,,,,,,,,,,,,,,,,,,,,1311,1,2025-10-10_14h41.06.143,sm,2024.2.4,60.0047043690617,2025-10-10 14h41.15.423138 +0200,
51,0,51,,,,,,space,1.7289340000006632,None,None,3,0.8361285000009957,0.23485499999878812,None,0,0,0,0,,,,,1,0,1,0,,,,,51,0,51,0,873.4121911999991,,,,,,,,,,,,,,,,,,,,,,,,,,,,,,,,,,,,,,,,,,,,,,,,,,,,,,,,,Schnürsenkel,2.0946,873.3970330999982,873.3975341999994,873.3976364999999,873.4121911999991,875.5118647999989,875.4961254999998,875.5001324999994,875.5118647999989,875.5118647999989,875.5118647999989,875.5118647999989,877.5118774999992,877.5118774999992,877.5118774999992,877.5118774999992,877.4963290999985,3,0.8361285000009957,0.23485499999878812,None,,,,,,,,,,,,,,,,,,,,,,1311,1,2025-10-10_14h41.06.143,sm,2024.2.4,60.0047043690617,2025-10-10 14h41.15.423138 +0200,
52,0,52,,,,,,space,1.7289340000006632,None,None,3,1.133438999999271,0.2064765000013722,None,0,0,0,0,,,,,1,0,1,0,,,,,52,0,52,0,877.5118774999992,,,,,,,,,,,,,,,,,,,,,,,,,,,,,,,,,,,,,,,,,,,,,,,,,,,,,,,,,Glück,3.344,877.496838699999,877.4973579999987,877.4974619999994,877.5118774999992,880.8617520999996,880.8458292999985,880.8499134999984,880.8617520999996,880.8617520999996,880.8617520999996,880.8617520999996,882.8616072999994,882.8616072999994,882.8616072999994,882.8616072999994,882.8462617999994,3,1.133438999999271,0.2064765000013722,None,,,,,,,,,,,,,,,,,,,,,,1311,1,2025-10-10_14h41.06.143,sm,2024.2.4,60.0047043690617,2025-10-10 14h41.15.423138 +0200,
53,0,53,,,,,,space,1.7289340000006632,None,None,3,0.8880483000011736,0.1988599999986036,None,0,0,0,0,,,,,1,0,1,0,,,,,53,0,53,0,882.8616072999994,,,,,,,,,,,,,,,,,,,,,,,,,,,,,,,,,,,,,,,,,,,,,,,,,,,,,,,,,Juwel,2.6407,882.8468095999997,882.8473769999982,882.8474901999998,882.8616072999994,885.5108375999989,885.4954498999996,885.5012858999999,885.5108375999989,885.5108375999989,885.5108375999989,885.5108375999989,887.5112618999992,887.5112618999992,887.5112618999992,887.5112618999992,887.4962186999983,3,0.8880483000011736,0.1988599999986036,None,,,,,,,,,,,,,,,,,,,,,,1311,1,2025-10-10_14h41.06.143,sm,2024.2.4,60.0047043690617,2025-10-10 14h41.15.423138 +0200,
54,0,54,,,,,,space,1.7289340000006632,None,None,3,0.7688965999986976,0.3101709000002302,None,0,0,0,0,,,,,1,0,1,0,,,,,54,0,54,0,887.5112618999992,,,,,,,,,,,,,,,,,,,,,,,,,,,,,,,,,,,,,,,,,,,,,,,,,,,,,,,,,Teleskop,3.4856,887.4967505999994,887.4972961999993,887.4974039999997,887.5112618999992,891.0118476999996,890.9951569999994,890.9989908999996,891.0118476999996,891.0118476999996,891.0118476999996,891.0118476999996,,,,,892.9968385999982,3,0.7688965999986976,0.3101709000002302,None,,,,,,,,,,,,,,,,,,,,,,1311,1,2025-10-10_14h41.06.143,sm,2024.2.4,60.0047043690617,2025-10-10 14h41.15.423138 +0200,
55,0,55,,,,,,space,1.7289340000006632,None,None,3,1.0177475999989838,0.19349719999991066,None,0,0,0,0,,,,,1,0,1,0,,,,,55,0,55,0,893.0108652999988,,,,,,,,,,,,,,,,,,,,,,,,,,,,,,,,,,,,,,,,,,,,,,,,,,,,,,,,,Anhänger,3.1265,892.9973483999984,892.9979936,892.9981086999996,893.0108652999988,896.1440205999988,896.1283443999982,896.1325687999997,896.1440205999988,896.1440205999988,896.1440205999988,896.1440205999988,898.1441300999995,898.1441300999995,898.1441300999995,898.1441300999995,898.1285773999989,3,1.0177475999989838,0.19349719999991066,None,,,,,,,,,,,,,,,,,,,,,,1311,1,2025-10-10_14h41.06.143,sm,2024.2.4,60.0047043690617,2025-10-10 14h41.15.423138 +0200,
56,0,56,,,,,,space,1.7289340000006632,None,None,2,0.7808808000008867,0.16056309999839868,None,0,0,0,0,,,,,1,0,1,0,,,,,56,0,56,0,898.1441300999995,,,,,,,,,,,,,,,,,,,,,,,,,,,,,,,,,,,,,,,,,,,,,,,,,,,,,,,,,Finger,3.2052,898.1290912999993,898.1296481999998,898.1297503999995,898.1441300999995,901.3602068,901.3450288999993,901.3485722999994,901.3602068,901.3602068,901.3602068,901.3602068,903.3606704999984,903.3606704999984,903.3606704999984,903.3606704999984,903.3449059999984,2,0.7808808000008867,0.16056309999839868,None,,,,,,,,,,,,,,,,,,,,,,1311,1,2025-10-10_14h41.06.143,sm,2024.2.4,60.0047043690617,2025-10-10 14h41.15.423138 +0200,
57,0,57,,,,,,space,1.7289340000006632,None,None,2,1.7547144999989541,0.13764120000087132,None,0,0,0,0,,,,,1,0,1,0,,,,,57,0,57,0,903.3606704999984,,,,,,,,,,,,,,,,,,,,,,,,,,,,,,,,,,,,,,,,,,,,,,,,,,,,,,,,,Ehe,3.379,903.3454642999986,903.3459876999987,903.3460977999985,903.3606704999984,906.7433355999983,906.7277149999991,906.7309796999998,906.7433355999983,906.7433355999983,906.7433355999983,906.7433355999983,908.7433947999998,908.7433947999998,908.7433947999998,908.7433947999998,908.7277649999996,2,1.7547144999989541,0.13764120000087132,None,,,,,,,,,,,,,,,,,,,,,,1311,1,2025-10-10_14h41.06.143,sm,2024.2.4,60.0047043690617,2025-10-10 14h41.15.423138 +0200,
58,0,58,,,,,,space,1.7289340000006632,None,None,2,1.397017399998731,0.2848967999998422,None,0,0,0,0,,,,,1,0,1,0,,,,,58,0,58,0,908.7433947999998,,,,,,,,,,,,,,,,,,,,,,,,,,,,,,,,,,,,,,,,,,,,,,,,,,,,,,,,,Rauch,4.1857,908.7282765999989,908.7289334999987,908.7290355999994,908.7433947999998,912.9431477999988,912.9276260999995,912.9325724999999,912.9431477999988,912.9431477999988,912.9431477999988,912.9431477999988,914.9430645999983,914.9430645999983,914.9430645999983,914.9430645999983,914.9273671999999,2,1.397017399998731,0.2848967999998422,None,,,,,,,,,,,,,,,,,,,,,,1311,1,2025-10-10_14h41.06.143,sm,2024.2.4,60.0047043690617,2025-10-10 14h41.15.423138 +0200,
59,0,59,,,,,,space,1.7289340000006632,None,None,3,1.4682281999994302,0.24055779999980587,None,0,0,0,0,,,,,1,0,1,0,,,,,59,0,59,0,914.9430645999983,,,,,,,,,,,,,,,,,,,,,,,,,,,,,,,,,,,,,,,,,,,,,,,,,,,,,,,,,Lokomotive,2.8684,914.9278825999991,914.9283822999987,914.928484099999,914.9430645999983,917.8260175999985,917.8105783999999,917.8145030999985,917.8260175999985,917.8260175999985,917.8260175999985,917.8260175999985,919.8264708999995,919.8264708999995,919.8264708999995,919.8264708999995,919.810523099999,3,1.4682281999994302,0.24055779999980587,None,,,,,,,,,,,,,,,,,,,,,,1311,1,2025-10-10_14h41.06.143,sm,2024.2.4,60.0047043690617,2025-10-10 14h41.15.423138 +0200,
60,0,60,,,,,,space,1.7289340000006632,None,None,3,1.3087255999998888,0.1811544000011054,None,0,0,0,0,,,,,1,0,1,0,,,,,60,0,60,0,919.8264708999995,,,,,,,,,,,,,,,,,,,,,,,,,,,,,,,,,,,,,,,,,,,,,,,,,,,,,,,,,Ausbruch,2.4324,919.8110351999985,919.8115550999992,919.8116581999984,919.8264708999995,922.2591231999995,922.2436892999995,922.2478480999998,922.2591231999995,922.2591231999995,922.2591231999995,922.2591231999995,924.2591398999994,924.2591398999994,924.2591398999994,924.2591398999994,924.2435705999997,3,1.3087255999998888,0.1811544000011054,None,,,,,,,,,,,,,,,,,,,,,,1311,1,2025-10-10_14h41.06.143,sm,2024.2.4,60.0047043690617,2025-10-10 14h41.15.423138 +0200,
61,0,61,,,,,,space,1.7289340000006632,None,None,2,1.4871985000008863,0.17369270000017423,None,0,0,0,0,,,,,1,0,1,0,,,,,61,0,61,0,924.2591398999994,,,,,,,,,,,,,,,,,,,,,,,,,,,,,,,,,,,,,,,,,,,,,,,,,,,,,,,,,Weinen,3.0599,924.2440821,924.2446068999998,924.2447110999983,924.2591398999994,927.3255523999997,927.3098824999997,927.3138341999984,927.3255523999997,927.3255523999997,927.3255523999997,927.3255523999997,929.3260060999983,929.3260060999983,929.3260060999983,929.3260060999983,929.3098309999987,2,1.4871985000008863,0.17369270000017423,None,,,,,,,,,,,,,,,,,,,,,,1311,1,2025-10-10_14h41.06.143,sm,2024.2.4,60.0047043690617,2025-10-10 14h41.15.423138 +0200,
62,0,62,,,,,,space,1.7289340000006632,None,None,2,0.9473585999985517,0.16648580000037327,None,0,0,0,0,,,,,1,0,1,0,,,,,62,0,62,0,929.3260060999983,,,,,,,,,,,,,,,,,,,,,,,,,,,,,,,,,,,,,,,,,,,,,,,,,,,,,,,,,Klempner,3.0984,929.3103101999986,929.3108771999996,929.3109746999999,929.3260060999983,932.4250568999996,932.4098785999995,932.4140590999996,932.4250568999996,932.4250568999996,932.4250568999996,932.4250568999996,934.4256928999985,934.4256928999985,934.4256928999985,934.4256928999985,934.4096839999984,2,0.9473585999985517,0.16648580000037327,None,,,,,,,,,,,,,,,,,,,,,,1311,1,2025-10-10_14h41.06.143,sm,2024.2.4,60.0047043690617,2025-10-10 14h41.15.423138 +0200,
