thisN,thisTrialN,thisRepN,Cue,Target,Mediator1,Mediator2,iti,scanner_ready_press.keys,scanner_ready_press.rt,scanner_ready_press.duration,skip_trigger.keys,living_nonliving.keys,end_mapping.keys,living_nonliving.rt,living_nonliving.duration,blocks.thisRepN,blocks.thisTrialN,blocks.thisN,blocks.thisIndex,load_and_shuffle.thisRepN,load_and_shuffle.thisTrialN,load_and_shuffle.thisN,load_and_shuffle.thisIndex,runs.thisRepN,runs.thisTrialN,runs.thisN,runs.thisIndex,iti_loading_loop.thisRepN,iti_loading_loop.thisTrialN,iti_loading_loop.thisN,iti_loading_loop.thisIndex,semantic_mapping_run.thisRepN,semantic_mapping_run.thisTrialN,semantic_mapping_run.thisN,semantic_mapping_run.thisIndex,fm_key.keys,thisRow.t,notes,welcome.started,welcome_text.started,welcome.stopped,scout.started,scout_text.started,key_resp.started,scout.stopped,key_resp.keys,key_resp.rt,key_resp.duration,instructions_semantic_mapping1.started,sm_instructions1_text.started,sm_instructions1_key.started,instructions_semantic_mapping1.stopped,sm_instructions1_key.keys,sm_instructions1_key.rt,sm_instructions1_key.duration,instructions_semantic_mapping2.started,sm_instructions2_text.started,sm_instructions2_key.started,instructions_semantic_mapping2.stopped,sm_instructions2_key.keys,sm_instructions2_key.rt,sm_instructions2_key.duration,reset_run.started,reset_run.stopped,shuffle_items.started,shuffle_items.stopped,set_up_runs.started,set_up_runs.stopped,load_iti.started,load_iti.stopped,prep_scanner.started,scanner_ready_press.started,ready_set_text.started,prep_scanner.stopped,runs.scanner_ready_press.keys,runs.scanner_ready_press.rt,runs.scanner_ready_press.duration,wait_for_trigger.started,starting_soon.started,skip_trigger.started,wait_for_trigger.stopped,runs.skip_trigger.keys,blank.started,begin_end_run_cross.started,sound_1.started,sound_1.stopped,sound_2.started,sound_2.stopped,blank.stopped,CurrentItem,CurrentITI,set_up_trial.started,set_up_trial.stopped,sm_iti.started,iti_cross.started,iti_cross.stopped,sm_iti.stopped,item.started,living_nonliving.started,end_mapping.started,living_nonliving_text.started,semantic_map_item.started,living_nonliving.stopped,end_mapping.stopped,living_nonliving_text.stopped,semantic_map_item.stopped,item.stopped,semantic_mapping_run.living_nonliving.keys,semantic_mapping_run.end_mapping.keys,semantic_mapping_run.living_nonliving.rt,semantic_mapping_run.living_nonliving.duration,fieldmap.started,fieldmap.stopped,runs.fm_key.keys,task_break.started,task_break_text.started,task_break_resp.started,task_break.stopped,runs.task_break_resp.keys,runs.task_break_resp.rt,runs.task_break_resp.duration,begin_end_run_cross.stopped,fm_text.started,fm_key.started,runs.fm_key.rt,runs.fm_key.duration,PID,MRI,date,expName,psychopyVersion,frameRate,expStart,
,,,,,,,,,,,,,,,,,,,,,,,,,,,,,,,,,,,,,,,0.0037728000006609363,0.009210500000335742,3.0047324000006483,,,,,,,,,,,,,,,,,,,,,,,,,,,,,,,,,,,,,,,,,,,,,,,,,,,,,,,,,,,,,,,,,,,,,,,,,,,,,,,,,,,,,,3084,1,2025-05-30_14h00.35.729,sm,2024.2.4,59.93252796016145,2025-05-30 14h00.59.324602 +0200,
,,,,,,,,,,,,,,,,,,,,,,,,,,,,,,,,,,,,,,,,,,3.004822900000363,3.0211894000003667,3.0211894000003667,97.95736960000067,space,94.91345149999961,None,,,,,,,,,,,,,,,,,,,,,,,,,,,,,,,,,,,,,,,,,,,,,,,,,,,,,,,,,,,,,,,,,,,,,,,,,,,,,,,3084,1,2025-05-30_14h00.35.729,sm,2024.2.4,59.93252796016145,2025-05-30 14h00.59.324602 +0200,
,,,,,,,,,,,,,,,,,,,,,,,,,,,,,,,,,,,,,,,,,,,,,,,,,97.95749710000018,97.96738120000009,97.96738120000009,104.60077100000035,2,6.630821200000355,None,,,,,,,,,,,,,,,,,,,,,,,,,,,,,,,,,,,,,,,,,,,,,,,,,,,,,,,,,,,,,,,,,,,,,,,,3084,1,2025-05-30_14h00.35.729,sm,2024.2.4,59.93252796016145,2025-05-30 14h00.59.324602 +0200,
,,,,,,,,,,,,,,,,,,,,,,,,,,,,,,,,,,,,,,,,,,,,,,,,,,,,,,,,104.60088570000062,104.61539960000027,104.61539960000027,112.76647300000059,2,8.133563600000343,None,,,,,,,,,,,,,,,,,,,,,,,,,,,,,,,,,,,,,,,,,,,,,,,,,,,,,,,,,,,,,,,,,3084,1,2025-05-30_14h00.35.729,sm,2024.2.4,59.93252796016145,2025-05-30 14h00.59.324602 +0200,
0,0,0,Klee,Glück,Blatt,Feld,2.3229,space,2.646128200000021,None,None,None,None,,,0,0,0,0,0,79,79,75,0,0,0,0,0,79,79,9,0,0,0,0,,173.4442809000002,,,,,,,,,,,,,,,,,,,,,,,,,,112.7673018000005,112.76799420000043,112.82671930000015,112.82696680000026,112.8315493,112.83182810000017,112.86181920000035,112.86199990000023,112.86851269999988,112.87310470000011,112.87310470000011,115.53119790000073,space,2.646128200000021,None,115.53134870000031,115.54815430000053,115.54815430000053,161.41334520000055,None,161.42172310000024,161.42993350000052,161.42880616666687,162.63691710000057,171.4280843666668,172.43627809999998,173.4282576000005,Moor,2.3229,173.4295572000001,173.43021279999994,173.43338570000014,173.4442809000002,175.77773100000013,175.76228770000034,175.7662403000004,175.77773100000013,175.77773100000013,175.77773100000013,175.77773100000013,177.7783098,177.7783098,177.7783098,177.7783098,177.7623676000003,None,None,,,,,,,,,,,,,,,,,,3084,1,2025-05-30_14h00.35.729,sm,2024.2.4,59.93252796016145,2025-05-30 14h00.59.324602 +0200,
1,0,1,,,,,,space,2.646128200000021,None,None,3,None,0.9437355000000025,0.22829399999955058,0,0,0,0,,,,,0,0,0,0,,,,,1,0,1,0,,177.7783098,,,,,,,,,,,,,,,,,,,,,,,,,,,,,,,,,,,,,,,,,,,,,,,,,,,,,Spaghetti,2.3916,177.7628408999999,177.76345780000065,177.76356970000052,177.7783098,180.17773620000025,180.1618253000006,180.1654408000004,180.17773620000025,180.17773620000025,180.17773620000025,180.17773620000025,182.17741600000045,182.17741600000045,182.17741600000045,182.17741600000045,182.16216840000016,3,None,0.9437355000000025,0.22829399999955058,,,,,,,,,,,,,,,,3084,1,2025-05-30_14h00.35.729,sm,2024.2.4,59.93252796016145,2025-05-30 14h00.59.324602 +0200,
2,0,2,,,,,,space,2.646128200000021,None,None,2,None,0.6695909999998548,0.21638989999974,0,0,0,0,,,,,0,0,0,0,,,,,2,0,2,0,,182.17741600000045,,,,,,,,,,,,,,,,,,,,,,,,,,,,,,,,,,,,,,,,,,,,,,,,,,,,,Hai,2.4167,182.1626834000008,182.16323940000075,182.16334860000006,182.17741600000045,184.593656,184.57842789999995,184.58457010000075,184.593656,184.593656,184.593656,184.593656,186.59411700000055,186.59411700000055,186.59411700000055,186.59411700000055,186.5786152999999,2,None,0.6695909999998548,0.21638989999974,,,,,,,,,,,,,,,,3084,1,2025-05-30_14h00.35.729,sm,2024.2.4,59.93252796016145,2025-05-30 14h00.59.324602 +0200,
3,0,3,,,,,,space,2.646128200000021,None,None,2,None,1.628350999999384,0.2124773000005007,0,0,0,0,,,,,0,0,0,0,,,,,3,0,3,0,,186.59411700000055,,,,,,,,,,,,,,,,,,,,,,,,,,,,,,,,,,,,,,,,,,,,,,,,,,,,,Feuer,4.3942,186.5791293000002,186.57966699999997,186.57977460000075,186.59411700000055,190.99356030000035,190.97801000000072,190.98405900000034,190.99356030000035,190.99356030000035,190.99356030000035,190.99356030000035,192.99372889999995,192.99372889999995,192.99372889999995,192.99372889999995,192.9783907000001,2,None,1.628350999999384,0.2124773000005007,,,,,,,,,,,,,,,,3084,1,2025-05-30_14h00.35.729,sm,2024.2.4,59.93252796016145,2025-05-30 14h00.59.324602 +0200,
4,0,4,,,,,,space,2.646128200000021,None,None,2,None,0.8791472000002614,0.21880810000038764,0,0,0,0,,,,,0,0,0,0,,,,,4,0,4,0,,192.99372889999995,,,,,,,,,,,,,,,,,,,,,,,,,,,,,,,,,,,,,,,,,,,,,,,,,,,,,Arm,3.6297,192.97890840000036,192.9794455000001,192.97955510000065,192.99372889999995,196.6266384999999,196.61087960000077,196.6139772000006,196.6266384999999,196.6266384999999,196.6266384999999,196.6266384999999,198.62746080000034,198.62746080000034,198.62746080000034,198.62746080000034,198.6110091999999,2,None,0.8791472000002614,0.21880810000038764,,,,,,,,,,,,,,,,3084,1,2025-05-30_14h00.35.729,sm,2024.2.4,59.93252796016145,2025-05-30 14h00.59.324602 +0200,
5,0,5,,,,,,space,2.646128200000021,None,None,3,None,0.9440673999997671,0.2951530999998795,0,0,0,0,,,,,0,0,0,0,,,,,5,0,5,0,,198.62746080000034,,,,,,,,,,,,,,,,,,,,,,,,,,,,,,,,,,,,,,,,,,,,,,,,,,,,,Harmonie,2.2639,198.61151969999992,198.61202690000027,198.61213300000054,198.62746080000034,200.89306490000035,200.8773498999999,200.88121620000038,200.89306490000035,200.89306490000035,200.89306490000035,200.89306490000035,202.89312040000004,202.89312040000004,202.89312040000004,202.89312040000004,202.87799520000044,3,None,0.9440673999997671,0.2951530999998795,,,,,,,,,,,,,,,,3084,1,2025-05-30_14h00.35.729,sm,2024.2.4,59.93252796016145,2025-05-30 14h00.59.324602 +0200,
6,0,6,,,,,,space,2.646128200000021,None,None,3,None,0.9994237999999314,0.2955885000001217,0,0,0,0,,,,,0,0,0,0,,,,,6,0,6,0,,202.89312040000004,,,,,,,,,,,,,,,,,,,,,,,,,,,,,,,,,,,,,,,,,,,,,,,,,,,,,Trennung,2.6446,202.87850760000038,202.8790796000003,202.8791916,202.89312040000004,205.5429376000002,205.5273001000005,205.53162760000032,205.5429376000002,205.5429376000002,205.5429376000002,205.5429376000002,207.54327310000008,207.54327310000008,207.54327310000008,207.54327310000008,207.52705620000052,3,None,0.9994237999999314,0.2955885000001217,,,,,,,,,,,,,,,,3084,1,2025-05-30_14h00.35.729,sm,2024.2.4,59.93252796016145,2025-05-30 14h00.59.324602 +0200,
7,0,7,,,,,,space,2.646128200000021,None,None,2,None,1.0529460999996445,0.23331619999953546,0,0,0,0,,,,,0,0,0,0,,,,,7,0,7,0,,207.54327310000008,,,,,,,,,,,,,,,,,,,,,,,,,,,,,,,,,,,,,,,,,,,,,,,,,,,,,Kunst,2.8863,207.5274798999999,207.52794450000056,207.52803490000042,207.54327310000008,210.44254929999988,210.42702850000023,210.43298529999993,210.44254929999988,210.44254929999988,210.44254929999988,210.44254929999988,212.44257040000048,212.44257040000048,212.44257040000048,212.44257040000048,212.42701949999991,2,None,1.0529460999996445,0.23331619999953546,,,,,,,,,,,,,,,,3084,1,2025-05-30_14h00.35.729,sm,2024.2.4,59.93252796016145,2025-05-30 14h00.59.324602 +0200,
8,0,8,,,,,,space,2.646128200000021,None,None,3,None,1.2166477000000668,0.26428219999979774,0,0,0,0,,,,,0,0,0,0,,,,,8,0,8,0,,212.44257040000048,,,,,,,,,,,,,,,,,,,,,,,,,,,,,,,,,,,,,,,,,,,,,,,,,,,,,Dip,2.2074,212.4275348000001,212.4280505000006,212.42815960000007,212.44257040000048,214.65891190000002,214.64347940000061,214.6477792000005,214.65891190000002,214.65891190000002,214.65891190000002,214.65891190000002,216.65903479999997,216.65903479999997,216.65903479999997,216.65903479999997,216.6433530000004,3,None,1.2166477000000668,0.26428219999979774,,,,,,,,,,,,,,,,3084,1,2025-05-30_14h00.35.729,sm,2024.2.4,59.93252796016145,2025-05-30 14h00.59.324602 +0200,
9,0,9,,,,,,space,2.646128200000021,None,None,3,None,1.3668268000001262,0.26926580000053946,0,0,0,0,,,,,0,0,0,0,,,,,9,0,9,0,,216.65903479999997,,,,,,,,,,,,,,,,,,,,,,,,,,,,,,,,,,,,,,,,,,,,,,,,,,,,,Auto,3.6564,216.64388980000058,216.64475350000066,216.6448844000006,216.65903479999997,220.3249246000005,220.31149000000005,220.31474310000067,220.3249246000005,220.3249246000005,220.3249246000005,220.3249246000005,222.32556320000003,222.32556320000003,222.32556320000003,222.32556320000003,222.30987200000072,3,None,1.3668268000001262,0.26926580000053946,,,,,,,,,,,,,,,,3084,1,2025-05-30_14h00.35.729,sm,2024.2.4,59.93252796016145,2025-05-30 14h00.59.324602 +0200,
10,0,10,,,,,,space,2.646128200000021,None,None,2,None,1.3140887999998085,0.23290689999976166,0,0,0,0,,,,,0,0,0,0,,,,,10,0,10,0,,222.32556320000003,,,,,,,,,,,,,,,,,,,,,,,,,,,,,,,,,,,,,,,,,,,,,,,,,,,,,Vampir,2.0589,222.3103759000005,222.31098199999997,222.3110929000004,222.32556320000003,224.3918334,224.3761151000008,224.38031390000015,224.3918334,224.3918334,224.3918334,224.3918334,226.39161349999995,226.39161349999995,226.39161349999995,226.39161349999995,226.3763187000004,2,None,1.3140887999998085,0.23290689999976166,,,,,,,,,,,,,,,,3084,1,2025-05-30_14h00.35.729,sm,2024.2.4,59.93252796016145,2025-05-30 14h00.59.324602 +0200,
11,0,11,,,,,,space,2.646128200000021,None,None,3,None,0.8142286000002059,0.26645189999999275,0,0,0,0,,,,,0,0,0,0,,,,,11,0,11,0,,226.39161349999995,,,,,,,,,,,,,,,,,,,,,,,,,,,,,,,,,,,,,,,,,,,,,,,,,,,,,Bluse,2.3599,226.37683199999992,226.37736060000043,226.3774656000005,226.39161349999995,228.75910680000015,228.7425387000003,228.74651470000026,228.75910680000015,228.75910680000015,228.75910680000015,228.75910680000015,230.7580785,230.7580785,230.7580785,230.7580785,230.74257020000005,3,None,0.8142286000002059,0.26645189999999275,,,,,,,,,,,,,,,,3084,1,2025-05-30_14h00.35.729,sm,2024.2.4,59.93252796016145,2025-05-30 14h00.59.324602 +0200,
12,0,12,,,,,,space,2.646128200000021,None,None,3,None,1.1148775999999998,0.3153937000006408,0,0,0,0,,,,,0,0,0,0,,,,,12,0,12,0,,230.7580785,,,,,,,,,,,,,,,,,,,,,,,,,,,,,,,,,,,,,,,,,,,,,,,,,,,,,Wanne,2.6312,230.74307040000076,230.74371650000012,230.74383130000024,230.7580785,233.39123240000026,233.37544460000026,233.3787538000006,233.39123240000026,233.39123240000026,233.39123240000026,233.39123240000026,235.39119430000028,235.39119430000028,235.39119430000028,235.39119430000028,235.37559050000073,3,None,1.1148775999999998,0.3153937000006408,,,,,,,,,,,,,,,,3084,1,2025-05-30_14h00.35.729,sm,2024.2.4,59.93252796016145,2025-05-30 14h00.59.324602 +0200,
13,0,13,,,,,,space,2.646128200000021,None,None,3,None,0.979107500000282,0.26466509999954724,0,0,0,0,,,,,0,0,0,0,,,,,13,0,13,0,,235.39119430000028,,,,,,,,,,,,,,,,,,,,,,,,,,,,,,,,,,,,,,,,,,,,,,,,,,,,,Fernseher,2.5377,235.3761065000008,235.37663340000017,235.37674270000025,235.39119430000028,237.94104169999991,237.92563370000062,237.92983380000078,237.94104169999991,237.94104169999991,237.94104169999991,237.94104169999991,239.94085020000057,239.94085020000057,239.94085020000057,239.94085020000057,239.92552909999995,3,None,0.979107500000282,0.26466509999954724,,,,,,,,,,,,,,,,3084,1,2025-05-30_14h00.35.729,sm,2024.2.4,59.93252796016145,2025-05-30 14h00.59.324602 +0200,
14,0,14,,,,,,space,2.646128200000021,None,None,2,None,0.9221613999998226,0.2244884000001548,0,0,0,0,,,,,0,0,0,0,,,,,14,0,14,0,,239.94085020000057,,,,,,,,,,,,,,,,,,,,,,,,,,,,,,,,,,,,,,,,,,,,,,,,,,,,,Agent,2.3006,239.92603340000005,239.92672690000018,239.92683390000002,239.94085020000057,242.2413847000007,242.22511759999998,242.22875079999994,242.2413847000007,242.2413847000007,242.2413847000007,242.2413847000007,244.2405413000006,244.2405413000006,244.2405413000006,244.2405413000006,244.2250683000002,2,None,0.9221613999998226,0.2244884000001548,,,,,,,,,,,,,,,,3084,1,2025-05-30_14h00.35.729,sm,2024.2.4,59.93252796016145,2025-05-30 14h00.59.324602 +0200,
15,0,15,,,,,,space,2.646128200000021,None,None,None,None,,,0,0,0,0,,,,,0,0,0,0,,,,,15,0,15,0,,244.2405413000006,,,,,,,,,,,,,,,,,,,,,,,,,,,,,,,,,,,,,,,,,,,,,,,,,,,,,Riechen,2.8516,244.22556690000056,244.22608870000022,244.22619680000025,244.2405413000006,247.1070749999999,247.0915672000001,247.09637120000025,247.1070749999999,247.1070749999999,247.1070749999999,247.1070749999999,249.10728110000036,249.10728110000036,249.10728110000036,249.10728110000036,249.09186380000028,None,None,,,,,,,,,,,,,,,,,,3084,1,2025-05-30_14h00.35.729,sm,2024.2.4,59.93252796016145,2025-05-30 14h00.59.324602 +0200,
16,0,16,,,,,,space,2.646128200000021,None,None,2,None,1.1993514999994659,0.2153955000003407,0,0,0,0,,,,,0,0,0,0,,,,,16,0,16,0,,249.10728110000036,,,,,,,,,,,,,,,,,,,,,,,,,,,,,,,,,,,,,,,,,,,,,,,,,,,,,Luft,5.3655,249.09233720000066,249.09300340000027,249.09311510000043,249.10728110000036,254.4733937000001,254.45779560000028,254.46145380000053,254.4733937000001,254.4733937000001,254.4733937000001,254.4733937000001,256.4733461000005,256.4733461000005,256.4733461000005,256.4733461000005,256.45770960000027,2,None,1.1993514999994659,0.2153955000003407,,,,,,,,,,,,,,,,3084,1,2025-05-30_14h00.35.729,sm,2024.2.4,59.93252796016145,2025-05-30 14h00.59.324602 +0200,
17,0,17,,,,,,space,2.646128200000021,None,None,3,None,0.9383741999999984,0.27427170000009937,0,0,0,0,,,,,0,0,0,0,,,,,17,0,17,0,,256.4733461000005,,,,,,,,,,,,,,,,,,,,,,,,,,,,,,,,,,,,,,,,,,,,,,,,,,,,,Puppe,2.3419,256.4582192000007,256.4588239000004,256.4589335999999,256.4733461000005,258.8231495,258.80790140000045,258.8119501000001,258.8231495,258.8231495,258.8231495,258.8231495,260.8230867000002,260.8230867000002,260.8230867000002,260.8230867000002,260.8077041000006,3,None,0.9383741999999984,0.27427170000009937,,,,,,,,,,,,,,,,3084,1,2025-05-30_14h00.35.729,sm,2024.2.4,59.93252796016145,2025-05-30 14h00.59.324602 +0200,
18,0,18,,,,,,space,2.646128200000021,None,None,2,None,0.8046953000002759,0.2522668999999951,0,0,0,0,,,,,0,0,0,0,,,,,18,0,18,0,,260.8230867000002,,,,,,,,,,,,,,,,,,,,,,,,,,,,,,,,,,,,,,,,,,,,,,,,,,,,,Löwe,2.4521,260.80821280000055,260.8088710000002,260.8089819000006,260.8230867000002,263.2896356000001,263.27388640000026,263.2774758000005,263.2896356000001,263.2896356000001,263.2896356000001,263.2896356000001,265.2896391000004,265.2896391000004,265.2896391000004,265.2896391000004,265.27403420000064,2,None,0.8046953000002759,0.2522668999999951,,,,,,,,,,,,,,,,3084,1,2025-05-30_14h00.35.729,sm,2024.2.4,59.93252796016145,2025-05-30 14h00.59.324602 +0200,
19,0,19,,,,,,space,2.646128200000021,None,None,3,None,1.0182105000003503,0.2892327999998088,0,0,0,0,,,,,0,0,0,0,,,,,19,0,19,0,,265.2896391000004,,,,,,,,,,,,,,,,,,,,,,,,,,,,,,,,,,,,,,,,,,,,,,,,,,,,,Hütte,3.2059,265.2745373000007,265.2750673999999,265.2751762000007,265.2896391000004,268.50549300000057,268.4899737000005,268.49344680000013,268.50549300000057,268.50549300000057,268.50549300000057,268.50549300000057,270.5058532000003,270.5058532000003,270.5058532000003,270.5058532000003,270.4902953999999,3,None,1.0182105000003503,0.2892327999998088,,,,,,,,,,,,,,,,3084,1,2025-05-30_14h00.35.729,sm,2024.2.4,59.93252796016145,2025-05-30 14h00.59.324602 +0200,
20,0,20,,,,,,space,2.646128200000021,None,None,3,None,1.0588830000006055,0.2692250000000058,0,0,0,0,,,,,0,0,0,0,,,,,20,0,20,0,,270.5058532000003,,,,,,,,,,,,,,,,,,,,,,,,,,,,,,,,,,,,,,,,,,,,,,,,,,,,,Kuchen ,4.5959,270.4908041000008,270.4913213,270.4914277000007,270.5058532000003,275.1062445000007,275.08999530000074,275.09413660000064,275.1062445000007,275.1062445000007,275.1062445000007,275.1062445000007,277.10545679999996,277.10545679999996,277.10545679999996,277.10545679999996,277.09004559999994,3,None,1.0588830000006055,0.2692250000000058,,,,,,,,,,,,,,,,3084,1,2025-05-30_14h00.35.729,sm,2024.2.4,59.93252796016145,2025-05-30 14h00.59.324602 +0200,
21,0,21,,,,,,space,2.646128200000021,None,None,2,None,0.8339074000004985,0.22223919999942154,0,0,0,0,,,,,0,0,0,0,,,,,21,0,21,0,,277.10545679999996,,,,,,,,,,,,,,,,,,,,,,,,,,,,,,,,,,,,,,,,,,,,,,,,,,,,,Kunde,3.6438,277.0905470000007,277.09111200000007,277.09121870000035,277.10545679999996,280.75541240000075,280.7396383000005,280.7436389000004,280.75541240000075,280.75541240000075,280.75541240000075,280.75541240000075,282.75507050000033,282.75507050000033,282.75507050000033,282.75507050000033,282.7398922000002,2,None,0.8339074000004985,0.22223919999942154,,,,,,,,,,,,,,,,3084,1,2025-05-30_14h00.35.729,sm,2024.2.4,59.93252796016145,2025-05-30 14h00.59.324602 +0200,
22,0,22,,,,,,space,2.646128200000021,None,None,3,None,0.930551600000399,0.3055177999995067,0,0,0,0,,,,,0,0,0,0,,,,,22,0,22,0,,282.75507050000033,,,,,,,,,,,,,,,,,,,,,,,,,,,,,,,,,,,,,,,,,,,,,,,,,,,,,Gleis,3.9589,282.7404034000001,282.7410580000005,282.7411669000003,282.75507050000033,286.72136320000027,286.7057666999999,286.7097553000003,286.72136320000027,286.72136320000027,286.72136320000027,286.72136320000027,288.72159120000015,288.72159120000015,288.72159120000015,288.72159120000015,288.7057981000007,3,None,0.930551600000399,0.3055177999995067,,,,,,,,,,,,,,,,3084,1,2025-05-30_14h00.35.729,sm,2024.2.4,59.93252796016145,2025-05-30 14h00.59.324602 +0200,
23,0,23,,,,,,space,2.646128200000021,None,None,3,None,1.7723880000003192,None,0,0,0,0,,,,,0,0,0,0,,,,,23,0,23,0,,288.72159120000015,,,,,,,,,,,,,,,,,,,,,,,,,,,,,,,,,,,,,,,,,,,,,,,,,,,,,Sprache,2.1413,288.70630580000034,288.7069816000003,288.7070925000007,288.72159120000015,290.8714276999999,290.85589120000077,290.86007100000006,290.8714276999999,290.8714276999999,290.8714276999999,290.8714276999999,292.8712623000001,292.8712623000001,292.8712623000001,292.8712623000001,292.8556929000006,3,None,1.7723880000003192,None,,,,,,,,,,,,,,,,3084,1,2025-05-30_14h00.35.729,sm,2024.2.4,59.93252796016145,2025-05-30 14h00.59.324602 +0200,
24,0,24,,,,,,space,2.646128200000021,None,None,3,None,0.9791359000000739,0.3020926999997755,0,0,0,0,,,,,0,0,0,0,,,,,24,0,24,0,,292.8712623000001,,,,,,,,,,,,,,,,,,,,,,,,,,,,,,,,,,,,,,,,,,,,,,,,,,,,,Klinge,2.9109,292.8562007999999,292.8568079000006,292.85691530000076,292.8712623000001,295.7874126000006,295.7722045999999,295.7761283,295.7874126000006,295.7874126000006,295.7874126000006,295.7874126000006,297.7878057000007,297.7878057000007,297.7878057000007,297.7878057000007,297.7726182000006,3,None,0.9791359000000739,0.3020926999997755,,,,,,,,,,,,,,,,3084,1,2025-05-30_14h00.35.729,sm,2024.2.4,59.93252796016145,2025-05-30 14h00.59.324602 +0200,
25,0,25,,,,,,space,2.646128200000021,None,None,2,None,1.0949929000007614,0.21547609999925044,0,0,0,0,,,,,0,0,0,0,,,,,25,0,25,0,,297.7878057000007,,,,,,,,,,,,,,,,,,,,,,,,,,,,,,,,,,,,,,,,,,,,,,,,,,,,,Käse,2.5169,297.77312130000064,297.7736407000002,297.7737463000003,297.7878057000007,300.3040077000005,300.2884042000005,300.29169230000025,300.3040077000005,300.3040077000005,300.3040077000005,300.3040077000005,302.3039613000001,302.3039613000001,302.3039613000001,302.3039613000001,302.2885503000007,2,None,1.0949929000007614,0.21547609999925044,,,,,,,,,,,,,,,,3084,1,2025-05-30_14h00.35.729,sm,2024.2.4,59.93252796016145,2025-05-30 14h00.59.324602 +0200,
26,0,26,,,,,,space,2.646128200000021,None,None,2,None,1.6160602999998446,0.20941800000036892,0,0,0,0,,,,,0,0,0,0,,,,,26,0,26,0,,302.3039613000001,,,,,,,,,,,,,,,,,,,,,,,,,,,,,,,,,,,,,,,,,,,,,,,,,,,,,Rebe,2.5519,302.28903510000055,302.28955230000065,302.2896629000006,302.3039613000001,304.87035190000006,304.85486650000075,304.85830650000025,304.87035190000006,304.87035190000006,304.87035190000006,304.87035190000006,306.87037820000023,306.87037820000023,306.87037820000023,306.87037820000023,306.85476130000006,2,None,1.6160602999998446,0.20941800000036892,,,,,,,,,,,,,,,,3084,1,2025-05-30_14h00.35.729,sm,2024.2.4,59.93252796016145,2025-05-30 14h00.59.324602 +0200,
27,0,27,,,,,,space,2.646128200000021,None,None,2,None,1.8891276999993352,None,0,0,0,0,,,,,0,0,0,0,,,,,27,0,27,0,,306.87037820000023,,,,,,,,,,,,,,,,,,,,,,,,,,,,,,,,,,,,,,,,,,,,,,,,,,,,,Team,2.5982,306.8552752000005,306.8557907000004,306.85594240000046,306.87037820000023,309.4703145000003,309.4545429,309.45816230000037,309.4703145000003,309.4703145000003,309.4703145000003,309.4703145000003,311.4701453000007,311.4701453000007,311.4701453000007,311.4701453000007,311.45460660000026,2,None,1.8891276999993352,None,,,,,,,,,,,,,,,,3084,1,2025-05-30_14h00.35.729,sm,2024.2.4,59.93252796016145,2025-05-30 14h00.59.324602 +0200,
28,0,28,,,,,,space,2.646128200000021,None,None,2,None,0.779307400000107,0.20261589999972784,0,0,0,0,,,,,0,0,0,0,,,,,28,0,28,0,,311.4701453000007,,,,,,,,,,,,,,,,,,,,,,,,,,,,,,,,,,,,,,,,,,,,,,,,,,,,,Himmel,3.8592,311.45510530000047,311.4557899000001,311.4558990000005,311.4701453000007,315.3364449999999,315.3207405000003,315.3246211000005,315.3364449999999,315.3364449999999,315.3364449999999,315.3364449999999,317.3366777000001,317.3366777000001,317.3366777000001,317.3366777000001,317.3209990000005,2,None,0.779307400000107,0.20261589999972784,,,,,,,,,,,,,,,,3084,1,2025-05-30_14h00.35.729,sm,2024.2.4,59.93252796016145,2025-05-30 14h00.59.324602 +0200,
29,0,29,,,,,,space,2.646128200000021,None,None,3,None,1.2722467000003235,0.27357190000020637,0,0,0,0,,,,,0,0,0,0,,,,,29,0,29,0,,317.3366777000001,,,,,,,,,,,,,,,,,,,,,,,,,,,,,,,,,,,,,,,,,,,,,,,,,,,,,Nacht,5.3463,317.3215132000005,317.32222320000074,317.3223370000005,317.3366777000001,322.68620700000065,322.67039300000033,322.67516550000073,322.68620700000065,322.68620700000065,322.68620700000065,322.68620700000065,324.68619040000067,324.68619040000067,324.68619040000067,324.68619040000067,324.67060690000017,3,None,1.2722467000003235,0.27357190000020637,,,,,,,,,,,,,,,,3084,1,2025-05-30_14h00.35.729,sm,2024.2.4,59.93252796016145,2025-05-30 14h00.59.324602 +0200,
30,0,30,,,,,,space,2.646128200000021,None,None,3,None,0.9182718000001842,0.3211363000000347,0,0,0,0,,,,,0,0,0,0,,,,,30,0,30,0,,324.68619040000067,,,,,,,,,,,,,,,,,,,,,,,,,,,,,,,,,,,,,,,,,,,,,,,,,,,,,Schwarz,2.2129,324.6711143000002,324.67162670000016,324.6717331,324.68619040000067,326.9025747000005,326.88685330000044,326.8909902000005,326.9025747000005,326.9025747000005,326.9025747000005,326.9025747000005,328.9025928000001,328.9025928000001,328.9025928000001,328.9025928000001,328.88710880000053,3,None,0.9182718000001842,0.3211363000000347,,,,,,,,,,,,,,,,3084,1,2025-05-30_14h00.35.729,sm,2024.2.4,59.93252796016145,2025-05-30 14h00.59.324602 +0200,
31,0,31,,,,,,space,2.646128200000021,None,None,2,None,0.965502899999592,0.2542923000000883,0,0,0,0,,,,,0,0,0,0,,,,,31,0,31,0,,328.9025928000001,,,,,,,,,,,,,,,,,,,,,,,,,,,,,,,,,,,,,,,,,,,,,,,,,,,,,Journalistin,2.1831,328.8876216000008,328.8881471000004,328.88825110000016,328.9025928000001,331.08528770000066,331.0697097000002,331.0752753000006,331.08528770000066,331.08528770000066,331.08528770000066,331.08528770000066,333.0857678000002,333.0857678000002,333.0857678000002,333.0857678000002,333.0699871000006,2,None,0.965502899999592,0.2542923000000883,,,,,,,,,,,,,,,,3084,1,2025-05-30_14h00.35.729,sm,2024.2.4,59.93252796016145,2025-05-30 14h00.59.324602 +0200,
32,0,32,,,,,,space,2.646128200000021,None,None,2,None,1.2717109999994136,0.25026990000060323,0,0,0,0,,,,,0,0,0,0,,,,,32,0,32,0,,333.0857678000002,,,,,,,,,,,,,,,,,,,,,,,,,,,,,,,,,,,,,,,,,,,,,,,,,,,,,Kopf,2.9645,333.0704962,333.07100400000036,333.0711119000007,333.0857678000002,336.05177040000035,336.03641960000004,336.0397945000004,336.05177040000035,336.05177040000035,336.05177040000035,336.05177040000035,338.0518879000001,338.0518879000001,338.0518879000001,338.0518879000001,338.0365437999999,2,None,1.2717109999994136,0.25026990000060323,,,,,,,,,,,,,,,,3084,1,2025-05-30_14h00.35.729,sm,2024.2.4,59.93252796016145,2025-05-30 14h00.59.324602 +0200,
33,0,33,,,,,,space,2.646128200000021,None,None,2,None,1.8609677999993437,None,0,0,0,0,,,,,0,0,0,0,,,,,33,0,33,0,,338.0518879000001,,,,,,,,,,,,,,,,,,,,,,,,,,,,,,,,,,,,,,,,,,,,,,,,,,,,,Sport,2.1697,338.0370474000001,338.0375657000004,338.03766970000015,338.0518879000001,340.23495320000075,340.2194343000001,340.22281939999993,340.23495320000075,340.23495320000075,340.23495320000075,340.23495320000075,342.2351563000002,342.2351563000002,342.2351563000002,342.2351563000002,342.21951270000045,2,None,1.8609677999993437,None,,,,,,,,,,,,,,,,3084,1,2025-05-30_14h00.35.729,sm,2024.2.4,59.93252796016145,2025-05-30 14h00.59.324602 +0200,
34,0,34,,,,,,space,2.646128200000021,None,None,3,None,0.9499800000003233,0.3011652999994112,0,0,0,0,,,,,0,0,0,0,,,,,34,0,34,0,,342.2351563000002,,,,,,,,,,,,,,,,,,,,,,,,,,,,,,,,,,,,,,,,,,,,,,,,,,,,,Erbe,4.0852,342.2200141000003,342.22086840000065,342.2209876000006,342.2351563000002,346.3348136000004,346.3191144000002,346.3226172000004,346.3348136000004,346.3348136000004,346.3348136000004,346.3348136000004,348.3348080000005,348.3348080000005,348.3348080000005,348.3348080000005,348.3190504000004,3,None,0.9499800000003233,0.3011652999994112,,,,,,,,,,,,,,,,3084,1,2025-05-30_14h00.35.729,sm,2024.2.4,59.93252796016145,2025-05-30 14h00.59.324602 +0200,
35,0,35,,,,,,space,2.646128200000021,None,None,2,None,0.8115253000005396,0.22685079999973823,0,0,0,0,,,,,0,0,0,0,,,,,35,0,35,0,,348.3348080000005,,,,,,,,,,,,,,,,,,,,,,,,,,,,,,,,,,,,,,,,,,,,,,,,,,,,,Känguru,4.4429,348.31955520000065,348.32006420000016,348.3201716000003,348.3348080000005,352.7843072000005,352.76894600000014,352.77384690000054,352.7843072000005,352.7843072000005,352.7843072000005,352.7843072000005,354.78475310000067,354.78475310000067,354.78475310000067,354.78475310000067,354.7689422000003,2,None,0.8115253000005396,0.22685079999973823,,,,,,,,,,,,,,,,3084,1,2025-05-30_14h00.35.729,sm,2024.2.4,59.93252796016145,2025-05-30 14h00.59.324602 +0200,
36,0,36,,,,,,space,2.646128200000021,None,None,3,None,1.1381163999994897,0.26724410000042553,0,0,0,0,,,,,0,0,0,0,,,,,36,0,36,0,,354.78475310000067,,,,,,,,,,,,,,,,,,,,,,,,,,,,,,,,,,,,,,,,,,,,,,,,,,,,,Zahnpasta,2.9036,354.7694676000001,354.7700678000001,354.7701936000003,354.78475310000067,357.70051220000005,357.68479560000014,357.69026380000014,357.70051220000005,357.70051220000005,357.70051220000005,357.70051220000005,359.70066270000007,359.70066270000007,359.70066270000007,359.70066270000007,359.6855046999999,3,None,1.1381163999994897,0.26724410000042553,,,,,,,,,,,,,,,,3084,1,2025-05-30_14h00.35.729,sm,2024.2.4,59.93252796016145,2025-05-30 14h00.59.324602 +0200,
37,0,37,,,,,,space,2.646128200000021,None,None,3,None,0.9431402000000162,0.28277909999997064,0,0,0,0,,,,,0,0,0,0,,,,,37,0,37,0,,359.70066270000007,,,,,,,,,,,,,,,,,,,,,,,,,,,,,,,,,,,,,,,,,,,,,,,,,,,,,Geschäft,2.021,359.68604660000074,359.686565,359.68667110000024,359.70066270000007,361.73362650000036,361.71810110000024,361.7215941000004,361.73362650000036,361.73362650000036,361.73362650000036,361.73362650000036,363.73405660000026,363.73405660000026,363.73405660000026,363.73405660000026,363.71837099999993,3,None,0.9431402000000162,0.28277909999997064,,,,,,,,,,,,,,,,3084,1,2025-05-30_14h00.35.729,sm,2024.2.4,59.93252796016145,2025-05-30 14h00.59.324602 +0200,
38,0,38,,,,,,space,2.646128200000021,None,None,3,None,0.7379213000003801,0.27781320000030973,0,0,0,0,,,,,0,0,0,0,,,,,38,0,38,0,,363.73405660000026,,,,,,,,,,,,,,,,,,,,,,,,,,,,,,,,,,,,,,,,,,,,,,,,,,,,,Wohnung,4.3424,363.71888260000014,363.7195133000005,363.7196221000004,363.73405660000026,368.08362600000055,368.0680048000004,368.0718829000007,368.08362600000055,368.08362600000055,368.08362600000055,368.08362600000055,370.08349440000075,370.08349440000075,370.08349440000075,370.08349440000075,370.0679383000006,3,None,0.7379213000003801,0.27781320000030973,,,,,,,,,,,,,,,,3084,1,2025-05-30_14h00.35.729,sm,2024.2.4,59.93252796016145,2025-05-30 14h00.59.324602 +0200,
39,0,39,,,,,,space,2.646128200000021,None,None,3,None,1.45278320000034,0.25958149999951274,0,0,0,0,,,,,0,0,0,0,,,,,39,0,39,0,,370.08349440000075,,,,,,,,,,,,,,,,,,,,,,,,,,,,,,,,,,,,,,,,,,,,,,,,,,,,,Dunkelheit,2.0052,370.06845410000005,370.06898980000005,370.0691003000002,370.08349440000075,372.09983009999996,372.08428020000065,372.0878766000005,372.09983009999996,372.09983009999996,372.09983009999996,372.09983009999996,374.1000756000003,374.1000756000003,374.1000756000003,374.1000756000003,374.0841596,3,None,1.45278320000034,0.25958149999951274,,,,,,,,,,,,,,,,3084,1,2025-05-30_14h00.35.729,sm,2024.2.4,59.93252796016145,2025-05-30 14h00.59.324602 +0200,
40,0,40,,,,,,space,2.646128200000021,None,None,2,None,1.244787599999654,0.1952997000007599,0,0,0,0,,,,,0,0,0,0,,,,,40,0,40,0,,374.1000756000003,,,,,,,,,,,,,,,,,,,,,,,,,,,,,,,,,,,,,,,,,,,,,,,,,,,,,Hügel,2.9832,374.08467830000063,374.08518750000076,374.08529460000045,374.1000756000003,377.0837325000002,377.0674364000006,377.0715869000005,377.0837325000002,377.0837325000002,377.0837325000002,377.0837325000002,379.0830194,379.0830194,379.0830194,379.0830194,379.06749000000036,2,None,1.244787599999654,0.1952997000007599,,,,,,,,,,,,,,,,3084,1,2025-05-30_14h00.35.729,sm,2024.2.4,59.93252796016145,2025-05-30 14h00.59.324602 +0200,
41,0,41,,,,,,space,2.646128200000021,None,None,2,None,0.748236000000361,0.21808210000017425,0,0,0,0,,,,,0,0,0,0,,,,,41,0,41,0,,379.0830194,,,,,,,,,,,,,,,,,,,,,,,,,,,,,,,,,,,,,,,,,,,,,,,,,,,,,Asche,2.2385,379.06800660000044,379.06852530000015,379.06863130000056,379.0830194,381.33335200000056,381.31705710000006,381.3210011000001,381.33335200000056,381.33335200000056,381.33335200000056,381.33335200000056,383.3327442,383.3327442,383.3327442,383.3327442,383.3171897000002,2,None,0.748236000000361,0.21808210000017425,,,,,,,,,,,,,,,,3084,1,2025-05-30_14h00.35.729,sm,2024.2.4,59.93252796016145,2025-05-30 14h00.59.324602 +0200,
42,0,42,,,,,,space,2.646128200000021,None,None,3,None,0.8456379999997807,0.2782674000000043,0,0,0,0,,,,,0,0,0,0,,,,,42,0,42,0,,383.3327442,,,,,,,,,,,,,,,,,,,,,,,,,,,,,,,,,,,,,,,,,,,,,,,,,,,,,Urlaub,3.2825,383.3177046999999,383.3182233000007,383.31832570000006,383.3327442,386.61632400000053,386.6004042000004,386.6078717999999,386.61632400000053,386.61632400000053,386.61632400000053,386.61632400000053,388.6156668000003,388.6156668000003,388.6156668000003,388.6156668000003,388.60035659999994,3,None,0.8456379999997807,0.2782674000000043,,,,,,,,,,,,,,,,3084,1,2025-05-30_14h00.35.729,sm,2024.2.4,59.93252796016145,2025-05-30 14h00.59.324602 +0200,
43,0,43,,,,,,space,2.646128200000021,None,None,3,None,1.3399464000003718,0.31620459999976447,0,0,0,0,,,,,0,0,0,0,,,,,43,0,43,0,,388.6156668000003,,,,,,,,,,,,,,,,,,,,,,,,,,,,,,,,,,,,,,,,,,,,,,,,,,,,,Küche,2.3362,388.6008609999999,388.60145570000077,388.6015608000007,388.6156668000003,390.9655263000004,390.95003160000033,390.95374080000056,390.9655263000004,390.9655263000004,390.9655263000004,390.9655263000004,392.9655526000006,392.9655526000006,392.9655526000006,392.9655526000006,392.9496884,3,None,1.3399464000003718,0.31620459999976447,,,,,,,,,,,,,,,,3084,1,2025-05-30_14h00.35.729,sm,2024.2.4,59.93252796016145,2025-05-30 14h00.59.324602 +0200,
44,0,44,,,,,,space,2.646128200000021,None,None,3,None,1.1037931999999273,0.28531220000058966,0,0,0,0,,,,,0,0,0,0,,,,,44,0,44,0,,392.9655526000006,,,,,,,,,,,,,,,,,,,,,,,,,,,,,,,,,,,,,,,,,,,,,,,,,,,,,Spülung,4.3756,392.9501112000007,392.9506506000007,392.9507409000007,392.9655526000006,397.34886069999993,397.33289140000034,397.337211,397.34886069999993,397.34886069999993,397.34886069999993,397.34886069999993,399.34841400000005,399.34841400000005,399.34841400000005,399.34841400000005,399.3327317000003,3,None,1.1037931999999273,0.28531220000058966,,,,,,,,,,,,,,,,3084,1,2025-05-30_14h00.35.729,sm,2024.2.4,59.93252796016145,2025-05-30 14h00.59.324602 +0200,
45,0,45,,,,,,space,2.646128200000021,None,None,3,None,0.7904857000003176,0.2832601000000068,0,0,0,0,,,,,0,0,0,0,,,,,45,0,45,0,,399.34841400000005,,,,,,,,,,,,,,,,,,,,,,,,,,,,,,,,,,,,,,,,,,,,,,,,,,,,,Karton,2.0031,399.3332463000006,399.3339037000005,399.3340102000002,399.34841400000005,401.3652297000008,401.34925079999994,401.3531436000003,401.3652297000008,401.3652297000008,401.3652297000008,401.3652297000008,403.36505149999994,403.36505149999994,403.36505149999994,403.36505149999994,403.3495789000008,3,None,0.7904857000003176,0.2832601000000068,,,,,,,,,,,,,,,,3084,1,2025-05-30_14h00.35.729,sm,2024.2.4,59.93252796016145,2025-05-30 14h00.59.324602 +0200,
46,0,46,,,,,,space,2.646128200000021,None,None,3,None,0.801332299999558,0.27350750000005064,0,0,0,0,,,,,0,0,0,0,,,,,46,0,46,0,,403.36505149999994,,,,,,,,,,,,,,,,,,,,,,,,,,,,,,,,,,,,,,,,,,,,,,,,,,,,,Ring,2.7992,403.3501098000006,403.35066840000036,403.35077850000016,403.36505149999994,406.16464410000026,406.1492880000005,406.15252260000034,406.16464410000026,406.16464410000026,406.16464410000026,406.16464410000026,408.16470879999997,408.16470879999997,408.16470879999997,408.16470879999997,408.14928970000074,3,None,0.801332299999558,0.27350750000005064,,,,,,,,,,,,,,,,3084,1,2025-05-30_14h00.35.729,sm,2024.2.4,59.93252796016145,2025-05-30 14h00.59.324602 +0200,
47,0,47,,,,,,space,2.646128200000021,None,None,3,None,0.9160077999995337,0.27007810000031895,0,0,0,0,,,,,0,0,0,0,,,,,47,0,47,0,,408.16470879999997,,,,,,,,,,,,,,,,,,,,,,,,,,,,,,,,,,,,,,,,,,,,,,,,,,,,,Nummer,2.83,408.1497999000003,408.1504528000005,408.15056129999994,408.16470879999997,410.99763520000033,410.9821404000004,410.9869447000001,410.99763520000033,410.99763520000033,410.99763520000033,410.99763520000033,412.9979682000003,412.9979682000003,412.9979682000003,412.9979682000003,412.9824625000001,3,None,0.9160077999995337,0.27007810000031895,,,,,,,,,,,,,,,,3084,1,2025-05-30_14h00.35.729,sm,2024.2.4,59.93252796016145,2025-05-30 14h00.59.324602 +0200,
48,0,48,,,,,,space,2.646128200000021,None,None,2,None,1.0076273999993646,0.19947970000066562,0,0,0,0,,,,,0,0,0,0,,,,,48,0,48,0,,412.9979682000003,,,,,,,,,,,,,,,,,,,,,,,,,,,,,,,,,,,,,,,,,,,,,,,,,,,,,Geschwister,2.0842,412.98300629999994,412.98378970000067,412.98390070000005,412.9979682000003,415.09744880000017,415.0817233000007,415.0856033,415.09744880000017,415.09744880000017,415.09744880000017,415.09744880000017,417.09742410000035,417.09742410000035,417.09742410000035,417.09742410000035,417.0819341000006,2,None,1.0076273999993646,0.19947970000066562,,,,,,,,,,,,,,,,3084,1,2025-05-30_14h00.35.729,sm,2024.2.4,59.93252796016145,2025-05-30 14h00.59.324602 +0200,
49,0,49,,,,,,space,2.646128200000021,None,None,3,None,1.2634252999996534,0.2774990000007165,0,0,0,0,,,,,0,0,0,0,,,,,49,0,49,0,,417.09742410000035,,,,,,,,,,,,,,,,,,,,,,,,,,,,,,,,,,,,,,,,,,,,,,,,,,,,,Popcorn,2.9443,417.08243720000064,417.0830169999999,417.08312620000015,417.09742410000035,420.0474774000004,420.03149940000003,420.03542240000024,420.0474774000004,420.0474774000004,420.0474774000004,420.0474774000004,422.04753660000006,422.04753660000006,422.04753660000006,422.04753660000006,422.0315857000005,3,None,1.2634252999996534,0.2774990000007165,,,,,,,,,,,,,,,,3084,1,2025-05-30_14h00.35.729,sm,2024.2.4,59.93252796016145,2025-05-30 14h00.59.324602 +0200,
50,0,50,,,,,,space,2.646128200000021,None,None,2,None,1.1898251000002347,0.23336899999958405,0,0,0,0,,,,,0,0,0,0,,,,,50,0,50,0,,422.04753660000006,,,,,,,,,,,,,,,,,,,,,,,,,,,,,,,,,,,,,,,,,,,,,,,,,,,,,Dorn,2.9061,422.03210000000036,422.03262150000046,422.0327262999999,422.04753660000006,424.9635321000005,424.94791650000025,424.9509203000007,424.9635321000005,424.9635321000005,424.9635321000005,424.9635321000005,426.9636657000001,426.9636657000001,426.9636657000001,426.9636657000001,426.94812850000017,2,None,1.1898251000002347,0.23336899999958405,,,,,,,,,,,,,,,,3084,1,2025-05-30_14h00.35.729,sm,2024.2.4,59.93252796016145,2025-05-30 14h00.59.324602 +0200,
51,0,51,,,,,,space,2.646128200000021,None,None,3,None,0.990398400000231,0.24334280000039143,0,0,0,0,,,,,0,0,0,0,,,,,51,0,51,0,,426.9636657000001,,,,,,,,,,,,,,,,,,,,,,,,,,,,,,,,,,,,,,,,,,,,,,,,,,,,,Statue,3.4445,426.9486401000004,426.94917480000004,426.94928490000075,426.9636657000001,430.4133242000007,430.3974437000006,430.4011322000006,430.4133242000007,430.4133242000007,430.4133242000007,430.4133242000007,432.41310390000035,432.41310390000035,432.41310390000035,432.41310390000035,432.39776900000015,3,None,0.990398400000231,0.24334280000039143,,,,,,,,,,,,,,,,3084,1,2025-05-30_14h00.35.729,sm,2024.2.4,59.93252796016145,2025-05-30 14h00.59.324602 +0200,
52,0,52,,,,,,space,2.646128200000021,None,None,3,None,0.8897444000003816,0.3274731999999858,0,0,0,0,,,,,0,0,0,0,,,,,52,0,52,0,,432.41310390000035,,,,,,,,,,,,,,,,,,,,,,,,,,,,,,,,,,,,,,,,,,,,,,,,,,,,,Weiß,2.3861,432.3982759999999,432.3989095000006,432.3990153000004,432.41310390000035,434.8130596000001,434.79761680000047,434.80403280000064,434.8130596000001,434.8130596000001,434.8130596000001,434.8130596000001,436.81308979999994,436.81308979999994,436.81308979999994,436.81308979999994,436.79736330000014,3,None,0.8897444000003816,0.3274731999999858,,,,,,,,,,,,,,,,3084,1,2025-05-30_14h00.35.729,sm,2024.2.4,59.93252796016145,2025-05-30 14h00.59.324602 +0200,
53,0,53,,,,,,space,2.646128200000021,None,None,2,None,0.9157211000001553,0.1994870999997147,0,0,0,0,,,,,0,0,0,0,,,,,53,0,53,0,,436.81308979999994,,,,,,,,,,,,,,,,,,,,,,,,,,,,,,,,,,,,,,,,,,,,,,,,,,,,,Lehrer,4.7208,436.79788110000027,436.79839470000024,436.7984989000006,436.81308979999994,441.5459955000006,441.53050900000017,441.5356801000007,441.5459955000006,441.5459955000006,441.5459955000006,441.5459955000006,443.54591830000027,443.54591830000027,443.54591830000027,443.54591830000027,443.5302846000004,2,None,0.9157211000001553,0.1994870999997147,,,,,,,,,,,,,,,,3084,1,2025-05-30_14h00.35.729,sm,2024.2.4,59.93252796016145,2025-05-30 14h00.59.324602 +0200,
54,0,54,,,,,,space,2.646128200000021,None,None,3,None,0.8333270999992237,0.2972456000006787,0,0,0,0,,,,,0,0,0,0,,,,,54,0,54,0,,443.54591830000027,,,,,,,,,,,,,,,,,,,,,,,,,,,,,,,,,,,,,,,,,,,,,,,,,,,,,Schwung,2.7378,443.5307915000003,443.5314597000006,443.5315664,443.54591830000027,446.29559490000065,446.28042490000007,446.2841644,446.29559490000065,446.29559490000065,446.29559490000065,446.29559490000065,448.29583490000005,448.29583490000005,448.29583490000005,448.29583490000005,448.2801106000006,3,None,0.8333270999992237,0.2972456000006787,,,,,,,,,,,,,,,,3084,1,2025-05-30_14h00.35.729,sm,2024.2.4,59.93252796016145,2025-05-30 14h00.59.324602 +0200,
55,0,55,,,,,,space,2.646128200000021,None,None,3,None,0.7131634999996095,0.2598195000000487,0,0,0,0,,,,,0,0,0,0,,,,,55,0,55,0,,448.29583490000005,,,,,,,,,,,,,,,,,,,,,,,,,,,,,,,,,,,,,,,,,,,,,,,,,,,,,Trocken,2.0946,448.2806000999999,448.2811074000001,448.28121830000055,448.29583490000005,450.3955498000005,450.3803201999999,450.38433669999995,450.3955498000005,450.3955498000005,450.3955498000005,450.3955498000005,452.3954661000007,452.3954661000007,452.3954661000007,452.3954661000007,452.37977580000006,3,None,0.7131634999996095,0.2598195000000487,,,,,,,,,,,,,,,,3084,1,2025-05-30_14h00.35.729,sm,2024.2.4,59.93252796016145,2025-05-30 14h00.59.324602 +0200,
56,0,56,,,,,,space,2.646128200000021,None,None,2,None,0.8302654999997685,0.20316400000046997,0,0,0,0,,,,,0,0,0,0,,,,,56,0,56,0,,452.3954661000007,,,,,,,,,,,,,,,,,,,,,,,,,,,,,,,,,,,,,,,,,,,,,,,,,,,,,Gelenk,2.8901,452.38028550000035,452.38080940000054,452.3809189000003,452.3954661000007,455.2952307000005,455.27963480000017,455.28375940000024,455.2952307000005,455.2952307000005,455.2952307000005,455.2952307000005,457.2952232000007,457.2952232000007,457.2952232000007,457.2952232000007,457.2795431000004,2,None,0.8302654999997685,0.20316400000046997,,,,,,,,,,,,,,,,3084,1,2025-05-30_14h00.35.729,sm,2024.2.4,59.93252796016145,2025-05-30 14h00.59.324602 +0200,
57,0,57,,,,,,space,2.646128200000021,None,None,2,None,0.8025377000003573,0.21134299999994255,0,0,0,0,,,,,0,0,0,0,,,,,57,0,57,0,,457.2952232000007,,,,,,,,,,,,,,,,,,,,,,,,,,,,,,,,,,,,,,,,,,,,,,,,,,,,,Leute,2.7584,457.2800592000003,457.28059980000035,457.2807083000007,457.2952232000007,460.0618918,460.04606690000037,460.0501291999999,460.0618918,460.0618918,460.0618918,460.0618918,462.06174140000076,462.06174140000076,462.06174140000076,462.06174140000076,462.0462266000004,2,None,0.8025377000003573,0.21134299999994255,,,,,,,,,,,,,,,,3084,1,2025-05-30_14h00.35.729,sm,2024.2.4,59.93252796016145,2025-05-30 14h00.59.324602 +0200,
58,0,58,,,,,,space,2.646128200000021,None,None,3,None,1.0989958000000115,0.4555875999994896,0,0,0,0,,,,,0,0,0,0,,,,,58,0,58,0,,462.06174140000076,,,,,,,,,,,,,,,,,,,,,,,,,,,,,,,,,,,,,,,,,,,,,,,,,,,,,Rolle,2.1743,462.04674049999994,462.0472718000001,462.04737770000065,462.06174140000076,464.2447056000001,464.22887290000017,464.2322870000007,464.2447056000001,464.2447056000001,464.2447056000001,464.2447056000001,466.24464870000065,466.24464870000065,466.24464870000065,466.24464870000065,466.2292505000005,3,None,1.0989958000000115,0.4555875999994896,,,,,,,,,,,,,,,,3084,1,2025-05-30_14h00.35.729,sm,2024.2.4,59.93252796016145,2025-05-30 14h00.59.324602 +0200,
59,0,59,,,,,,space,2.646128200000021,None,None,3,None,1.5737747000002855,0.30103049999979703,0,0,0,0,,,,,0,0,0,0,,,,,59,0,59,0,,466.24464870000065,,,,,,,,,,,,,,,,,,,,,,,,,,,,,,,,,,,,,,,,,,,,,,,,,,,,,Geschichte,2.0934,466.22976650000055,466.2302853000001,466.23038840000027,466.24464870000065,468.34465460000047,468.32888450000064,468.33317570000054,468.34465460000047,468.34465460000047,468.34465460000047,468.34465460000047,470.3444044000007,470.3444044000007,470.3444044000007,470.3444044000007,470.3288027000008,3,None,1.5737747000002855,0.30103049999979703,,,,,,,,,,,,,,,,3084,1,2025-05-30_14h00.35.729,sm,2024.2.4,59.93252796016145,2025-05-30 14h00.59.324602 +0200,
60,0,60,,,,,,space,2.646128200000021,None,None,3,None,1.3284246000002895,0.3048455999996804,0,0,0,0,,,,,0,0,0,0,,,,,60,0,60,0,,470.3444044000007,,,,,,,,,,,,,,,,,,,,,,,,,,,,,,,,,,,,,,,,,,,,,,,,,,,,,Glück,3.6005,470.3292934000001,470.3299433000002,470.33005140000023,470.3444044000007,473.94389279999996,473.9285135,473.9327194000007,473.94389279999996,473.94389279999996,473.94389279999996,473.94389279999996,475.94440940000004,475.94440940000004,475.94440940000004,475.94440940000004,475.9290619000003,3,None,1.3284246000002895,0.3048455999996804,,,,,,,,,,,,,,,,3084,1,2025-05-30_14h00.35.729,sm,2024.2.4,59.93252796016145,2025-05-30 14h00.59.324602 +0200,
61,0,61,,,,,,space,2.646128200000021,None,None,2,None,1.6028622999992876,0.21735290000015084,0,0,0,0,,,,,0,0,0,0,,,,,61,0,61,0,,475.94440940000004,,,,,,,,,,,,,,,,,,,,,,,,,,,,,,,,,,,,,,,,,,,,,,,,,,,,,Schleim,5.1698,475.92957130000013,475.9301978000003,475.9303060000002,475.94440940000004,481.12675710000076,481.11125560000073,481.11486779999996,481.12675710000076,481.12675710000076,481.12675710000076,481.12675710000076,483.12711020000006,483.12711020000006,483.12711020000006,483.12711020000006,483.11162289999993,2,None,1.6028622999992876,0.21735290000015084,,,,,,,,,,,,,,,,3084,1,2025-05-30_14h00.35.729,sm,2024.2.4,59.93252796016145,2025-05-30 14h00.59.324602 +0200,
62,0,62,,,,,,space,2.646128200000021,None,None,3,None,0.8318304999993416,0.30119569999988016,0,0,0,0,,,,,0,0,0,0,,,,,62,0,62,0,,483.12711020000006,,,,,,,,,,,,,,,,,,,,,,,,,,,,,,,,,,,,,,,,,,,,,,,,,,,,,Bücher,2.3843,483.11214290000044,483.1126619000006,483.11276650000036,483.12711020000006,485.51006250000046,485.4945942000004,485.4980478000007,485.51006250000046,485.51006250000046,485.51006250000046,485.51006250000046,487.5101749000005,487.5101749000005,487.5101749000005,487.5101749000005,487.49433820000013,3,None,0.8318304999993416,0.30119569999988016,,,,,,,,,,,,,,,,3084,1,2025-05-30_14h00.35.729,sm,2024.2.4,59.93252796016145,2025-05-30 14h00.59.324602 +0200,
63,0,63,,,,,,space,2.646128200000021,None,None,3,None,0.9041795000002821,0.3218999000000622,0,0,0,0,,,,,0,0,0,0,,,,,63,0,63,0,,487.5101749000005,,,,,,,,,,,,,,,,,,,,,,,,,,,,,,,,,,,,,,,,,,,,,,,,,,,,,Kapitel,3.0547,487.4948430000004,487.49542740000015,487.4955336000003,487.5101749000005,490.57680040000014,490.5619870999999,490.5656961000004,490.57680040000014,490.57680040000014,490.57680040000014,490.57680040000014,492.5766346999999,492.5766346999999,492.5766346999999,492.5766346999999,492.56096810000054,3,None,0.9041795000002821,0.3218999000000622,,,,,,,,,,,,,,,,3084,1,2025-05-30_14h00.35.729,sm,2024.2.4,59.93252796016145,2025-05-30 14h00.59.324602 +0200,
64,0,64,,,,,,space,2.646128200000021,None,None,3,None,1.08237680000002,0.2830212999997457,0,0,0,0,,,,,0,0,0,0,,,,,64,0,64,0,,492.5766346999999,,,,,,,,,,,,,,,,,,,,,,,,,,,,,,,,,,,,,,,,,,,,,,,,,,,,,Kaffee,4.4767,492.5614746000001,492.5619929000004,492.56209949999993,492.5766346999999,497.05953970000064,497.0443535000004,497.04845060000025,497.05953970000064,497.05953970000064,497.05953970000064,497.05953970000064,499.0596787000004,499.0596787000004,499.0596787000004,499.0596787000004,499.0442370999999,3,None,1.08237680000002,0.2830212999997457,,,,,,,,,,,,,,,,3084,1,2025-05-30_14h00.35.729,sm,2024.2.4,59.93252796016145,2025-05-30 14h00.59.324602 +0200,
65,0,65,,,,,,space,2.646128200000021,None,None,3,None,1.4996935999997731,0.2544396000002962,0,0,0,0,,,,,0,0,0,0,,,,,65,0,65,0,,499.0596787000004,,,,,,,,,,,,,,,,,,,,,,,,,,,,,,,,,,,,,,,,,,,,,,,,,,,,,Fliegen,3.1264,499.0447479000004,499.0452643000008,499.04536929999995,499.0596787000004,502.1929168000006,502.1770481000003,502.18086089999997,502.1929168000006,502.1929168000006,502.1929168000006,502.1929168000006,504.19240190000073,504.19240190000073,504.19240190000073,504.19240190000073,504.1772719999999,3,None,1.4996935999997731,0.2544396000002962,,,,,,,,,,,,,,,,3084,1,2025-05-30_14h00.35.729,sm,2024.2.4,59.93252796016145,2025-05-30 14h00.59.324602 +0200,
66,0,66,,,,,,space,2.646128200000021,None,None,3,None,0.7931208999998489,0.32627870000033,0,0,0,0,,,,,0,0,0,0,,,,,66,0,66,0,,504.19240190000073,,,,,,,,,,,,,,,,,,,,,,,,,,,,,,,,,,,,,,,,,,,,,,,,,,,,,Bild,2.7357,504.1777824999999,504.17831360000037,504.17842199999996,504.19240190000073,506.94304940000075,506.92727710000054,506.93101340000067,506.94304940000075,506.94304940000075,506.94304940000075,506.94304940000075,508.94233650000024,508.94233650000024,508.94233650000024,508.94233650000024,508.92684850000023,3,None,0.7931208999998489,0.32627870000033,,,,,,,,,,,,,,,,3084,1,2025-05-30_14h00.35.729,sm,2024.2.4,59.93252796016145,2025-05-30 14h00.59.324602 +0200,
67,0,67,,,,,,space,2.646128200000021,None,None,3,None,0.9104784000001018,0.3214821999999913,0,0,0,0,,,,,0,0,0,0,,,,,67,0,67,0,,508.94233650000024,,,,,,,,,,,,,,,,,,,,,,,,,,,,,,,,,,,,,,,,,,,,,,,,,,,,,Komödie,3.6615,508.9273587000007,508.92788240000027,508.9279890000007,508.94233650000024,512.6083930000004,512.5932412000002,512.5997381000006,512.6083930000004,512.6083930000004,512.6083930000004,512.6083930000004,514.6085338000003,514.6085338000003,514.6085338000003,514.6085338000003,514.5931674000003,3,None,0.9104784000001018,0.3214821999999913,,,,,,,,,,,,,,,,3084,1,2025-05-30_14h00.35.729,sm,2024.2.4,59.93252796016145,2025-05-30 14h00.59.324602 +0200,
68,0,68,,,,,,space,2.646128200000021,None,None,3,None,1.0637476000001698,0.34705380000013974,0,0,0,0,,,,,0,0,0,0,,,,,68,0,68,0,,514.6085338000003,,,,,,,,,,,,,,,,,,,,,,,,,,,,,,,,,,,,,,,,,,,,,,,,,,,,,Wissen,3.0127,514.5936988000003,514.5942300000006,514.5943391000001,514.6085338000003,517.6249457000004,517.6094379000006,517.6136667999999,517.6249457000004,517.6249457000004,517.6249457000004,517.6249457000004,519.6250411000001,519.6250411000001,519.6250411000001,519.6250411000001,519.6095036000006,3,None,1.0637476000001698,0.34705380000013974,,,,,,,,,,,,,,,,3084,1,2025-05-30_14h00.35.729,sm,2024.2.4,59.93252796016145,2025-05-30 14h00.59.324602 +0200,
69,0,69,,,,,,space,2.646128200000021,None,None,2,None,1.9537719999998444,None,0,0,0,0,,,,,0,0,0,0,,,,,69,0,69,0,,519.6250411000001,,,,,,,,,,,,,,,,,,,,,,,,,,,,,,,,,,,,,,,,,,,,,,,,,,,,,Papier,3.039,519.6100052000002,519.6106659000006,519.6107722000006,519.6250411000001,522.6745997000007,522.6591477000002,522.6632651,522.6745997000007,522.6745997000007,522.6745997000007,522.6745997000007,524.6747900999999,524.6747900999999,524.6747900999999,524.6747900999999,524.6590822000007,2,None,1.9537719999998444,None,,,,,,,,,,,,,,,,3084,1,2025-05-30_14h00.35.729,sm,2024.2.4,59.93252796016145,2025-05-30 14h00.59.324602 +0200,
70,0,70,,,,,,space,2.646128200000021,None,None,2,None,0.5738639999999577,0.22973280000041996,0,0,0,0,,,,,0,0,0,0,,,,,70,0,70,0,,524.6747900999999,,,,,,,,,,,,,,,,,,,,,,,,,,,,,,,,,,,,,,,,,,,,,,,,,,,,,Blumen,2.0168,524.6595517000005,524.6601559999999,524.6602704000006,524.6747900999999,526.6911511000008,526.6755400000002,526.6792062000004,526.6911511000008,526.6911511000008,526.6911511000008,526.6911511000008,528.6912423000003,528.6912423000003,528.6912423000003,528.6912423000003,528.6757167000005,2,None,0.5738639999999577,0.22973280000041996,,,,,,,,,,,,,,,,3084,1,2025-05-30_14h00.35.729,sm,2024.2.4,59.93252796016145,2025-05-30 14h00.59.324602 +0200,
71,0,71,,,,,,space,2.646128200000021,None,None,2,None,0.6305825999997978,0.2427322000003187,0,0,0,0,,,,,0,0,0,0,,,,,71,0,71,0,,528.6912423000003,,,,,,,,,,,,,,,,,,,,,,,,,,,,,,,,,,,,,,,,,,,,,,,,,,,,,Fuß,3.6723,528.6762735000002,528.6768058000007,528.6769164000007,528.6912423000003,532.3740257,532.3583502000001,532.3618411000007,532.3740257,532.3740257,532.3740257,532.3740257,534.3749038000005,534.3749038000005,534.3749038000005,534.3749038000005,534.3586768000005,2,None,0.6305825999997978,0.2427322000003187,,,,,,,,,,,,,,,,3084,1,2025-05-30_14h00.35.729,sm,2024.2.4,59.93252796016145,2025-05-30 14h00.59.324602 +0200,
72,0,72,,,,,,space,2.646128200000021,None,None,3,None,0.8851630999997724,0.30613030000040453,0,0,0,0,,,,,0,0,0,0,,,,,72,0,72,0,,534.3749038000005,,,,,,,,,,,,,,,,,,,,,,,,,,,,,,,,,,,,,,,,,,,,,,,,,,,,,Pflege,2.1961,534.3591818000004,534.3597147,534.3598199000007,534.3749038000005,536.5742399000001,536.5584209000008,536.5624732000006,536.5742399000001,536.5742399000001,536.5742399000001,536.5742399000001,538.5739732000002,538.5739732000002,538.5739732000002,538.5739732000002,538.5584947000007,3,None,0.8851630999997724,0.30613030000040453,,,,,,,,,,,,,,,,3084,1,2025-05-30_14h00.35.729,sm,2024.2.4,59.93252796016145,2025-05-30 14h00.59.324602 +0200,
73,0,73,,,,,,space,2.646128200000021,None,None,3,None,1.6323008000008485,0.24472049999985757,0,0,0,0,,,,,0,0,0,0,,,,,73,0,73,0,,538.5739732000002,,,,,,,,,,,,,,,,,,,,,,,,,,,,,,,,,,,,,,,,,,,,,,,,,,,,,Tanz,2.1186,538.5590076000008,538.5595301000003,538.5596368000006,538.5739732000002,540.7068994000001,540.6919538000002,540.6952177000003,540.7068994000001,540.7068994000001,540.7068994000001,540.7068994000001,542.7070367000006,542.7070367000006,542.7070367000006,542.7070367000006,542.6919578000006,3,None,1.6323008000008485,0.24472049999985757,,,,,,,,,,,,,,,,3084,1,2025-05-30_14h00.35.729,sm,2024.2.4,59.93252796016145,2025-05-30 14h00.59.324602 +0200,
74,0,74,,,,,,space,2.646128200000021,None,None,2,None,0.7599682999998549,0.23297090000050957,0,0,0,0,,,,,0,0,0,0,,,,,74,0,74,0,,542.7070367000006,,,,,,,,,,,,,,,,,,,,,,,,,,,,,,,,,,,,,,,,,,,,,,,,,,,,,Gast,2.6097,542.6924727000005,542.6930148000001,542.6931197000004,542.7070367000006,545.3234184000003,545.3078924000001,545.3116749999999,545.3234184000003,545.3234184000003,545.3234184000003,545.3234184000003,547.3238137000008,547.3238137000008,547.3238137000008,547.3238137000008,547.3079489000002,2,None,0.7599682999998549,0.23297090000050957,,,,,,,,,,,,,,,,3084,1,2025-05-30_14h00.35.729,sm,2024.2.4,59.93252796016145,2025-05-30 14h00.59.324602 +0200,
75,0,75,,,,,,space,2.646128200000021,None,None,3,None,1.2207815000001574,0.29437030000008235,0,0,0,0,,,,,0,0,0,0,,,,,75,0,75,0,,547.3238137000008,,,,,,,,,,,,,,,,,,,,,,,,,,,,,,,,,,,,,,,,,,,,,,,,,,,,,Ostern,2.4916,547.3084628000006,547.3090759000006,547.3092486000005,547.3238137000008,549.8230056000002,549.8074552000007,549.8137506000003,549.8230056000002,549.8230056000002,549.8230056000002,549.8230056000002,551.8230982000005,551.8230982000005,551.8230982000005,551.8230982000005,551.8077616,3,None,1.2207815000001574,0.29437030000008235,,,,,,,,,,,,,,,,3084,1,2025-05-30_14h00.35.729,sm,2024.2.4,59.93252796016145,2025-05-30 14h00.59.324602 +0200,
76,0,76,,,,,,space,2.646128200000021,None,None,2,None,0.8216566999999486,0.22925579999991896,0,0,0,0,,,,,0,0,0,0,,,,,76,0,76,0,,551.8230982000005,,,,,,,,,,,,,,,,,,,,,,,,,,,,,,,,,,,,,,,,,,,,,,,,,,,,,Fisch,2.1949,551.8082180000001,551.8087009000001,551.8087947000004,551.8230982000005,554.0230526000005,554.0070653000002,554.0104181000006,554.0230526000005,554.0230526000005,554.0230526000005,554.0230526000005,556.0228423000008,556.0228423000008,556.0228423000008,556.0228423000008,556.0072617000005,2,None,0.8216566999999486,0.22925579999991896,,,,,,,,,,,,,,,,3084,1,2025-05-30_14h00.35.729,sm,2024.2.4,59.93252796016145,2025-05-30 14h00.59.324602 +0200,
77,0,77,,,,,,space,2.646128200000021,None,None,2,None,0.8659167999994679,0.21601939999982278,0,0,0,0,,,,,0,0,0,0,,,,,77,0,77,0,,556.0228423000008,,,,,,,,,,,,,,,,,,,,,,,,,,,,,,,,,,,,,,,,,,,,,,,,,,,,,Handwerker,4.5524,556.0077719999999,556.0083863,556.0084987,556.0228423000008,560.5889202000008,560.5733219000003,560.5770268000006,560.5889202000008,560.5889202000008,560.5889202000008,560.5889202000008,562.5893844000002,562.5893844000002,562.5893844000002,562.5893844000002,562.5736010999999,2,None,0.8659167999994679,0.21601939999982278,,,,,,,,,,,,,,,,3084,1,2025-05-30_14h00.35.729,sm,2024.2.4,59.93252796016145,2025-05-30 14h00.59.324602 +0200,
78,0,78,,,,,,space,2.646128200000021,None,None,3,None,0.8038283999994746,0.29494790000080684,0,0,0,0,,,,,0,0,0,0,,,,,78,0,78,0,,562.5893844000002,,,,,,,,,,,,,,,,,,,,,,,,,,,,,,,,,,,,,,,,,,,,,,,,,,,,,Krone,3.189,562.574114,562.5746367000002,562.5747430000001,562.5893844000002,565.7888337000004,565.7737185000005,565.7778517000006,565.7888337000004,565.7888337000004,565.7888337000004,565.7888337000004,567.7889885000004,567.7889885000004,567.7889885000004,567.7889885000004,567.7733464000003,3,None,0.8038283999994746,0.29494790000080684,,,,,,,,,,,,,,,,3084,1,2025-05-30_14h00.35.729,sm,2024.2.4,59.93252796016145,2025-05-30 14h00.59.324602 +0200,
79,0,79,,,,,,space,2.646128200000021,None,None,2,None,0.6216034999997646,0.18348860000060085,0,0,0,0,,,,,0,0,0,0,,,,,79,0,79,0,,567.7889885000004,,,,,,,,,,,,,,,,,,,,,,,,,,,,,,,,,,,,,,,,,,,,,,,,,,,,,Essen,2.4137,567.773862,567.7743837000007,567.7744900000007,567.7889885000004,570.2059145000003,570.1897384000004,570.1944183000005,570.2059145000003,570.2059145000003,570.2059145000003,570.2059145000003,572.2163995999999,572.2163995999999,572.2163995999999,572.2163995999999,572.1897492000007,2,None,0.6216034999997646,0.18348860000060085,,,,,,,,,,,,,,,,3084,1,2025-05-30_14h00.35.729,sm,2024.2.4,59.93252796016145,2025-05-30 14h00.59.324602 +0200,
0,0,0,,,,,2.9109,space,2.141327100000126,None,None,2,None,1.3429857999999513,0.203719899999669,0,0,0,0,,,,,1,0,1,0,0,79,79,6,0,0,0,0,,617.0197805000007,,,,,,,,,,,,,,,,,,,,,,,,,,,,,,,,589.6538368000001,589.6541001000005,589.6604900000002,589.6650749999999,589.6650749999999,591.8212358999999,space,2.141327100000126,None,591.8213874000003,591.8376990000006,591.8376990000006,604.9882101000003,None,604.9955203,605.0202078000002,605.0035602666669,606.2060045000007,615.0031210666668,616.0062063000005,617.0032019,Feld,2.9109,617.0045541,617.0052957000007,617.0054014000007,617.0197805000007,619.9355338000005,619.9201520000006,619.9233692000007,619.9355338000005,619.9355338000005,619.9355338000005,619.9355338000005,621.9357608,621.9357608,621.9357608,621.9357608,621.9201714000001,2,None,1.3429857999999513,0.203719899999669,584.2049574000002,584.2050310000004,None,584.2051838000007,584.2212372000004,584.2212372000004,589.6063281000006,2,5.368810900000426,None,,,,,,3084,1,2025-05-30_14h00.35.729,sm,2024.2.4,59.93252796016145,2025-05-30 14h00.59.324602 +0200,
1,0,1,,,,,,space,2.141327100000126,None,None,3,None,0.6646013999998104,0.26021639999999024,0,0,0,0,,,,,1,0,1,0,,,,,1,0,1,0,,621.9357608,,,,,,,,,,,,,,,,,,,,,,,,,,,,,,,,,,,,,,,,,,,,,,,,,,,,,Nachricht,2.3843,621.9206719000003,621.9213274000003,621.9214336000005,621.9357608,624.3189476000007,624.3035392000002,624.3078893000002,624.3189476000007,624.3189476000007,624.3189476000007,624.3189476000007,626.3189634999999,626.3189634999999,626.3189634999999,626.3189634999999,626.3032012000003,3,None,0.6646013999998104,0.26021639999999024,,,,,,,,,,,,,,,,3084,1,2025-05-30_14h00.35.729,sm,2024.2.4,59.93252796016145,2025-05-30 14h00.59.324602 +0200,
2,0,2,,,,,,space,2.141327100000126,None,None,2,None,1.145406799999364,0.18291500000032102,0,0,0,0,,,,,1,0,1,0,,,,,2,0,2,0,,626.3189634999999,,,,,,,,,,,,,,,,,,,,,,,,,,,,,,,,,,,,,,,,,,,,,,,,,,,,,Garten,4.0852,626.3037132,626.3043352000004,626.3044460000001,626.3189634999999,630.4183381000003,630.4028456000005,630.4071013000002,630.4183381000003,630.4183381000003,630.4183381000003,630.4183381000003,632.4187353000007,632.4187353000007,632.4187353000007,632.4187353000007,632.4028941000006,2,None,1.145406799999364,0.18291500000032102,,,,,,,,,,,,,,,,3084,1,2025-05-30_14h00.35.729,sm,2024.2.4,59.93252796016145,2025-05-30 14h00.59.324602 +0200,
3,0,3,,,,,,space,2.141327100000126,None,None,2,None,0.7842995999999403,0.24437610000040877,0,0,0,0,,,,,1,0,1,0,,,,,3,0,3,0,,632.4187353000007,,,,,,,,,,,,,,,,,,,,,,,,,,,,,,,,,,,,,,,,,,,,,,,,,,,,,Flut,2.83,632.4034033000007,632.4039239000003,632.4040281000007,632.4187353000007,635.2516003999999,635.2360044000006,635.2394892000002,635.2516003999999,635.2516003999999,635.2516003999999,635.2516003999999,637.2516159000006,637.2516159000006,637.2516159000006,637.2516159000006,637.2361970000002,2,None,0.7842995999999403,0.24437610000040877,,,,,,,,,,,,,,,,3084,1,2025-05-30_14h00.35.729,sm,2024.2.4,59.93252796016145,2025-05-30 14h00.59.324602 +0200,
4,0,4,,,,,,space,2.141327100000126,None,None,None,None,,,0,0,0,0,,,,,1,0,1,0,,,,,4,0,4,0,,637.2516159000006,,,,,,,,,,,,,,,,,,,,,,,,,,,,,,,,,,,,,,,,,,,,,,,,,,,,,Monster,5.3655,637.2366984,637.2373857000002,637.2374920000002,637.2516159000006,642.6178688,642.6020504000007,642.6054831000001,642.6178688,642.6178688,642.6178688,642.6178688,644.6178640000007,644.6178640000007,644.6178640000007,644.6178640000007,644.6027320000003,None,None,,,,,,,,,,,,,,,,,,3084,1,2025-05-30_14h00.35.729,sm,2024.2.4,59.93252796016145,2025-05-30 14h00.59.324602 +0200,
5,0,5,,,,,,space,2.141327100000126,None,None,2,None,0.737857900000563,0.2024530999997296,0,0,0,0,,,,,1,0,1,0,,,,,5,0,5,0,,644.6178640000007,,,,,,,,,,,,,,,,,,,,,,,,,,,,,,,,,,,,,,,,,,,,,,,,,,,,,Baum,3.9589,644.6032098000005,644.6037696000003,644.6038763000006,644.6178640000007,648.5842083000007,648.5687012000008,648.5718610000004,648.5842083000007,648.5842083000007,648.5842083000007,648.5842083000007,650.5845659000006,650.5845659000006,650.5845659000006,650.5845659000006,650.5689038,2,None,0.737857900000563,0.2024530999997296,,,,,,,,,,,,,,,,3084,1,2025-05-30_14h00.35.729,sm,2024.2.4,59.93252796016145,2025-05-30 14h00.59.324602 +0200,
6,0,6,,,,,,space,2.141327100000126,None,None,2,None,0.6597139000004972,0.207036099999641,0,0,0,0,,,,,1,0,1,0,,,,,6,0,6,0,,650.5845659000006,,,,,,,,,,,,,,,,,,,,,,,,,,,,,,,,,,,,,,,,,,,,,,,,,,,,,Kartoffel,3.1264,650.5694216000002,650.5699618000008,650.5700696000004,650.5845659000006,653.7171739000005,653.7020771000007,653.7056723000005,653.7171739000005,653.7171739000005,653.7171739000005,653.7171739000005,655.7172491000001,655.7172491000001,655.7172491000001,655.7172491000001,655.7017599999999,2,None,0.6597139000004972,0.207036099999641,,,,,,,,,,,,,,,,3084,1,2025-05-30_14h00.35.729,sm,2024.2.4,59.93252796016145,2025-05-30 14h00.59.324602 +0200,
7,0,7,,,,,,space,2.141327100000126,None,None,2,None,1.1149768999994194,0.24197280000043975,0,0,0,0,,,,,1,0,1,0,,,,,7,0,7,0,,655.7172491000001,,,,,,,,,,,,,,,,,,,,,,,,,,,,,,,,,,,,,,,,,,,,,,,,,,,,,Sterne,2.5169,655.7022735,655.7027858000001,655.7028937000005,655.7172491000001,658.2333745000005,658.2181226000002,658.2217454000001,658.2333745000005,658.2333745000005,658.2333745000005,658.2333745000005,660.2337461000006,660.2337461000006,660.2337461000006,660.2337461000006,660.2179836000005,2,None,1.1149768999994194,0.24197280000043975,,,,,,,,,,,,,,,,3084,1,2025-05-30_14h00.35.729,sm,2024.2.4,59.93252796016145,2025-05-30 14h00.59.324602 +0200,
8,0,8,,,,,,space,2.141327100000126,None,None,3,None,0.9222167000007175,0.3128066999997827,0,0,0,0,,,,,1,0,1,0,,,,,8,0,8,0,,660.2337461000006,,,,,,,,,,,,,,,,,,,,,,,,,,,,,,,,,,,,,,,,,,,,,,,,,,,,,Ferien,2.1186,660.2184942000004,660.2190172999999,660.2191361000005,660.2337461000006,662.3666246000003,662.3509946000004,662.3544558000003,662.3666246000003,662.3666246000003,662.3666246000003,662.3666246000003,664.3666415000007,664.3666415000007,664.3666415000007,664.3666415000007,664.3509829000004,3,None,0.9222167000007175,0.3128066999997827,,,,,,,,,,,,,,,,3084,1,2025-05-30_14h00.35.729,sm,2024.2.4,59.93252796016145,2025-05-30 14h00.59.324602 +0200,
9,0,9,,,,,,space,2.141327100000126,None,None,2,None,0.6985783000000083,0.2080320999994001,0,0,0,0,,,,,1,0,1,0,,,,,9,0,9,0,,664.3666415000007,,,,,,,,,,,,,,,,,,,,,,,,,,,,,,,,,,,,,,,,,,,,,,,,,,,,,Gras,2.2129,664.3515095000002,664.3520255000003,664.3521479000001,664.3666415000007,666.5830771999999,666.5675382,666.5713695000004,666.5830771999999,666.5830771999999,666.5830771999999,666.5830771999999,668.5836139000003,668.5836139000003,668.5836139000003,668.5836139000003,668.5677751000003,2,None,0.6985783000000083,0.2080320999994001,,,,,,,,,,,,,,,,3084,1,2025-05-30_14h00.35.729,sm,2024.2.4,59.93252796016145,2025-05-30 14h00.59.324602 +0200,
10,0,10,,,,,,space,2.141327100000126,None,None,3,None,0.8552652999997008,0.3479386999997587,0,0,0,0,,,,,1,0,1,0,,,,,10,0,10,0,,668.5836139000003,,,,,,,,,,,,,,,,,,,,,,,,,,,,,,,,,,,,,,,,,,,,,,,,,,,,,Kerzen,3.6005,668.5682856000003,668.5688091000002,668.5689140000004,668.5836139000003,672.1995782000004,672.1840342000005,672.1880433000006,672.1995782000004,672.1995782000004,672.1995782000004,672.1995782000004,674.1996141,674.1996141,674.1996141,674.1996141,674.1836374000004,3,None,0.8552652999997008,0.3479386999997587,,,,,,,,,,,,,,,,3084,1,2025-05-30_14h00.35.729,sm,2024.2.4,59.93252796016145,2025-05-30 14h00.59.324602 +0200,
11,0,11,,,,,,space,2.141327100000126,None,None,2,None,0.8563026000001628,0.2247228999995059,0,0,0,0,,,,,1,0,1,0,,,,,11,0,11,0,,674.1996141,,,,,,,,,,,,,,,,,,,,,,,,,,,,,,,,,,,,,,,,,,,,,,,,,,,,,Schulter,2.8901,674.1840919000006,674.1845748000005,674.1846704,674.1996141,677.0993508000001,677.0838700000004,677.0880754,677.0993508000001,677.0993508000001,677.0993508000001,677.0993508000001,679.0993065000002,679.0993065000002,679.0993065000002,679.0993065000002,679.0837787999999,2,None,0.8563026000001628,0.2247228999995059,,,,,,,,,,,,,,,,3084,1,2025-05-30_14h00.35.729,sm,2024.2.4,59.93252796016145,2025-05-30 14h00.59.324602 +0200,
12,0,12,,,,,,space,2.141327100000126,None,None,3,None,0.934784099999888,0.2564096999994945,0,0,0,0,,,,,1,0,1,0,,,,,12,0,12,0,,679.0993065000002,,,,,,,,,,,,,,,,,,,,,,,,,,,,,,,,,,,,,,,,,,,,,,,,,,,,,Herbst,2.1831,679.0842890000004,679.0847966000001,679.0849010000002,679.0993065000002,681.2823761,681.2672752000008,681.2713524999999,681.2823761,681.2823761,681.2823761,681.2823761,683.2824479000001,683.2824479000001,683.2824479000001,683.2824479000001,683.2667319000002,3,None,0.934784099999888,0.2564096999994945,,,,,,,,,,,,,,,,3084,1,2025-05-30_14h00.35.729,sm,2024.2.4,59.93252796016145,2025-05-30 14h00.59.324602 +0200,
13,0,13,,,,,,space,2.141327100000126,None,None,None,None,,,0,0,0,0,,,,,1,0,1,0,,,,,13,0,13,0,,683.2824479000001,,,,,,,,,,,,,,,,,,,,,,,,,,,,,,,,,,,,,,,,,,,,,,,,,,,,,Afrika,5.3463,683.2672406000002,683.2678331000006,683.2679407000005,683.2824479000001,688.6320298,688.6164526000002,688.6205480000008,688.6320298,688.6320298,688.6320298,688.6320298,690.6320752000001,690.6320752000001,690.6320752000001,690.6320752000001,690.6164578000007,None,None,,,,,,,,,,,,,,,,,,3084,1,2025-05-30_14h00.35.729,sm,2024.2.4,59.93252796016145,2025-05-30 14h00.59.324602 +0200,
14,0,14,,,,,,space,2.141327100000126,None,None,2,None,0.7157806000004712,0.2180637999999817,0,0,0,0,,,,,1,0,1,0,,,,,14,0,14,0,,690.6320752000001,,,,,,,,,,,,,,,,,,,,,,,,,,,,,,,,,,,,,,,,,,,,,,,,,,,,,Spion,3.4445,690.6169356999999,690.6175745,690.6176849000003,690.6320752000001,694.0815474000001,694.0660064000003,694.0700394000005,694.0815474000001,694.0815474000001,694.0815474000001,694.0815474000001,696.0815074000002,696.0815074000002,696.0815074000002,696.0815074000002,696.0661460000001,2,None,0.7157806000004712,0.2180637999999817,,,,,,,,,,,,,,,,3084,1,2025-05-30_14h00.35.729,sm,2024.2.4,59.93252796016145,2025-05-30 14h00.59.324602 +0200,
15,0,15,,,,,,space,2.141327100000126,None,None,3,None,0.9820630000003803,0.3010917999999947,0,0,0,0,,,,,1,0,1,0,,,,,15,0,15,0,,696.0815074000002,,,,,,,,,,,,,,,,,,,,,,,,,,,,,,,,,,,,,,,,,,,,,,,,,,,,,Lied,2.8863,696.0666848999999,696.0674407000006,696.0675761000002,696.0815074000002,698.9813429000005,698.9657001000005,698.9691312000004,698.9813429000005,698.9813429000005,698.9813429000005,698.9813429000005,700.9813807,700.9813807,700.9813807,700.9813807,700.9657345000005,3,None,0.9820630000003803,0.3010917999999947,,,,,,,,,,,,,,,,3084,1,2025-05-30_14h00.35.729,sm,2024.2.4,59.93252796016145,2025-05-30 14h00.59.324602 +0200,
16,0,16,,,,,,space,2.141327100000126,None,None,2,None,0.8402992999999697,0.22540209999988292,0,0,0,0,,,,,1,0,1,0,,,,,16,0,16,0,,700.9813807,,,,,,,,,,,,,,,,,,,,,,,,,,,,,,,,,,,,,,,,,,,,,,,,,,,,,Klempner,3.6297,700.9662649000002,700.9667777000004,700.9668849,700.9813807,704.6143827000005,704.5986510000002,704.6029400000007,704.6143827000005,704.6143827000005,704.6143827000005,704.6143827000005,706.6144276000005,706.6144276000005,706.6144276000005,706.6144276000005,706.5987308000003,2,None,0.8402992999999697,0.22540209999988292,,,,,,,,,,,,,,,,3084,1,2025-05-30_14h00.35.729,sm,2024.2.4,59.93252796016145,2025-05-30 14h00.59.324602 +0200,
17,0,17,,,,,,space,2.141327100000126,None,None,3,None,0.7542928000002576,0.2529330999996091,0,0,0,0,,,,,1,0,1,0,,,,,17,0,17,0,,706.6144276000005,,,,,,,,,,,,,,,,,,,,,,,,,,,,,,,,,,,,,,,,,,,,,,,,,,,,,Rock,3.6564,706.5992359000002,706.5997507000002,706.5998554000007,706.6144276000005,710.2807003000007,710.2652547000007,710.2688825000005,710.2807003000007,710.2807003000007,710.2807003000007,710.2807003000007,712.2808648,712.2808648,712.2808648,712.2808648,712.2651898000004,3,None,0.7542928000002576,0.2529330999996091,,,,,,,,,,,,,,,,3084,1,2025-05-30_14h00.35.729,sm,2024.2.4,59.93252796016145,2025-05-30 14h00.59.324602 +0200,
18,0,18,,,,,,space,2.141327100000126,None,None,3,None,0.8812297000004037,0.3330729999997857,0,0,0,0,,,,,1,0,1,0,,,,,18,0,18,0,,712.2808648,,,,,,,,,,,,,,,,,,,,,,,,,,,,,,,,,,,,,,,,,,,,,,,,,,,,,Gewürz,2.6446,712.2657009000004,712.2662236000006,712.2663313000003,712.2808648,714.9302806000005,714.9148603000003,714.9186823,714.9302806000005,714.9302806000005,714.9302806000005,714.9302806000005,716.9308388,716.9308388,716.9308388,716.9308388,716.9151877000004,3,None,0.8812297000004037,0.3330729999997857,,,,,,,,,,,,,,,,3084,1,2025-05-30_14h00.35.729,sm,2024.2.4,59.93252796016145,2025-05-30 14h00.59.324602 +0200,
19,0,19,,,,,,space,2.141327100000126,None,None,3,None,0.8855983000003107,0.287586100000226,0,0,0,0,,,,,1,0,1,0,,,,,19,0,19,0,,716.9308388,,,,,,,,,,,,,,,,,,,,,,,,,,,,,,,,,,,,,,,,,,,,,,,,,,,,,Sicherheit,2.4521,716.9156607000004,716.9162908000008,716.9163910000007,716.9308388,719.3969022000001,719.3811446,719.3851485000005,719.3969022000001,719.3969022000001,719.3969022000001,719.3969022000001,721.3970582000002,721.3970582000002,721.3970582000002,721.3970582000002,721.3813858000003,3,None,0.8855983000003107,0.287586100000226,,,,,,,,,,,,,,,,3084,1,2025-05-30_14h00.35.729,sm,2024.2.4,59.93252796016145,2025-05-30 14h00.59.324602 +0200,
20,0,20,,,,,,space,2.141327100000126,None,None,3,None,0.8224849999996877,0.35005160000036994,0,0,0,0,,,,,1,0,1,0,,,,,20,0,20,0,,721.3970582000002,,,,,,,,,,,,,,,,,,,,,,,,,,,,,,,,,,,,,,,,,,,,,,,,,,,,,Maske,2.0934,721.3818687000003,721.3826058000004,721.3827088000007,721.3970582000002,723.4966176000007,723.4809734999999,723.4845915000005,723.4966176000007,723.4966176000007,723.4966176000007,723.4966176000007,725.4965515000004,725.4965515000004,725.4965515000004,725.4965515000004,725.4809681000006,3,None,0.8224849999996877,0.35005160000036994,,,,,,,,,,,,,,,,3084,1,2025-05-30_14h00.35.729,sm,2024.2.4,59.93252796016145,2025-05-30 14h00.59.324602 +0200,
21,0,21,,,,,,space,2.141327100000126,None,None,2,None,0.7863743999996586,0.21420710000074905,0,0,0,0,,,,,1,0,1,0,,,,,21,0,21,0,,725.4965515000004,,,,,,,,,,,,,,,,,,,,,,,,,,,,,,,,,,,,,,,,,,,,,,,,,,,,,Gruppe,2.4916,725.4814765000001,725.4821360000005,725.4822441000006,725.4965515000004,727.9969752000006,727.9806593000003,727.9838728000004,727.9969752000006,727.9969752000006,727.9969752000006,727.9969752000006,729.9966181,729.9966181,729.9966181,729.9966181,729.981143,2,None,0.7863743999996586,0.21420710000074905,,,,,,,,,,,,,,,,3084,1,2025-05-30_14h00.35.729,sm,2024.2.4,59.93252796016145,2025-05-30 14h00.59.324602 +0200,
22,0,22,,,,,,space,2.141327100000126,None,None,3,None,0.7589059000001726,0.2922108000002481,0,0,0,0,,,,,1,0,1,0,,,,,22,0,22,0,,729.9966181,,,,,,,,,,,,,,,,,,,,,,,,,,,,,,,,,,,,,,,,,,,,,,,,,,,,,Kappe,2.021,729.9816537000006,729.9823514,729.9824591000006,729.9966181,732.0296578000007,732.0144546000001,732.0186487999999,732.0296578000007,732.0296578000007,732.0296578000007,732.0296578000007,734.0295489,734.0295489,734.0295489,734.0295489,734.0137620000005,3,None,0.7589059000001726,0.2922108000002481,,,,,,,,,,,,,,,,3084,1,2025-05-30_14h00.35.729,sm,2024.2.4,59.93252796016145,2025-05-30 14h00.59.324602 +0200,
23,0,23,,,,,,space,2.141327100000126,None,None,2,None,0.7019006000000445,0.2223639000003459,0,0,0,0,,,,,1,0,1,0,,,,,23,0,23,0,,734.0295489,,,,,,,,,,,,,,,,,,,,,,,,,,,,,,,,,,,,,,,,,,,,,,,,,,,,,Ziege,3.2825,734.0143545000001,734.0150072000006,734.0151161000003,734.0295489,737.3125213000003,737.2969984000001,737.3017735000003,737.3125213000003,737.3125213000003,737.3125213000003,737.3125213000003,739.3126393000002,739.3126393000002,739.3126393000002,739.3126393000002,739.2968256000004,2,None,0.7019006000000445,0.2223639000003459,,,,,,,,,,,,,,,,3084,1,2025-05-30_14h00.35.729,sm,2024.2.4,59.93252796016145,2025-05-30 14h00.59.324602 +0200,
24,0,24,,,,,,space,2.141327100000126,None,None,3,None,0.6394715999995242,0.2891120000003866,0,0,0,0,,,,,1,0,1,0,,,,,24,0,24,0,,739.3126393000002,,,,,,,,,,,,,,,,,,,,,,,,,,,,,,,,,,,,,,,,,,,,,,,,,,,,,Tube,3.8592,739.2973397000005,739.2979327000003,739.2980392,739.3126393000002,743.1794819000006,743.1630410000007,743.1665991,743.1794819000006,743.1794819000006,743.1794819000006,743.1794819000006,745.1787720000002,745.1787720000002,745.1787720000002,745.1787720000002,745.1632657,3,None,0.6394715999995242,0.2891120000003866,,,,,,,,,,,,,,,,3084,1,2025-05-30_14h00.35.729,sm,2024.2.4,59.93252796016145,2025-05-30 14h00.59.324602 +0200,
25,0,25,,,,,,space,2.141327100000126,None,None,3,None,0.9590509999998176,0.3347192000001087,0,0,0,0,,,,,1,0,1,0,,,,,25,0,25,0,,745.1787720000002,,,,,,,,,,,,,,,,,,,,,,,,,,,,,,,,,,,,,,,,,,,,,,,,,,,,,Schloss,4.5524,745.1637870000004,745.1644485000006,745.1645618000002,745.1787720000002,749.7461389,749.7297917000005,749.7339677,749.7461389,749.7461389,749.7461389,749.7461389,751.7451632000002,751.7451632000002,751.7451632000002,751.7451632000002,751.7298543000006,3,None,0.9590509999998176,0.3347192000001087,,,,,,,,,,,,,,,,3084,1,2025-05-30_14h00.35.729,sm,2024.2.4,59.93252796016145,2025-05-30 14h00.59.324602 +0200,
26,0,26,,,,,,space,2.141327100000126,None,None,3,None,0.7319876000001386,0.264689399999952,0,0,0,0,,,,,1,0,1,0,,,,,26,0,26,0,,751.7451632000002,,,,,,,,,,,,,,,,,,,,,,,,,,,,,,,,,,,,,,,,,,,,,,,,,,,,,Ball,3.0547,751.7303630000006,751.7308908000005,751.7309976000006,751.7451632000002,754.8114757000003,754.7957860000006,754.7986725999999,754.8114757000003,754.8114757000003,754.8114757000003,754.8114757000003,756.8113258000003,756.8113258000003,756.8113258000003,756.8113258000003,756.7958727000005,3,None,0.7319876000001386,0.264689399999952,,,,,,,,,,,,,,,,3084,1,2025-05-30_14h00.35.729,sm,2024.2.4,59.93252796016145,2025-05-30 14h00.59.324602 +0200,
27,0,27,,,,,,space,2.141327100000126,None,None,3,None,0.8632690000004004,0.28703979999954754,0,0,0,0,,,,,1,0,1,0,,,,,27,0,27,0,,756.8113258000003,,,,,,,,,,,,,,,,,,,,,,,,,,,,,,,,,,,,,,,,,,,,,,,,,,,,,Juwel,5.1698,756.7963803000002,756.7970654000001,756.7971788000004,756.8113258000003,761.9944819000002,761.9788947000006,761.9826433000007,761.9944819000002,761.9944819000002,761.9944819000002,761.9944819000002,763.9947095000007,763.9947095000007,763.9947095000007,763.9947095000007,763.9787831000003,3,None,0.8632690000004004,0.28703979999954754,,,,,,,,,,,,,,,,3084,1,2025-05-30_14h00.35.729,sm,2024.2.4,59.93252796016145,2025-05-30 14h00.59.324602 +0200,
28,0,28,,,,,,space,2.141327100000126,None,None,3,None,0.7219827000008081,0.26629479999974137,0,0,0,0,,,,,1,0,1,0,,,,,28,0,28,0,,763.9947095000007,,,,,,,,,,,,,,,,,,,,,,,,,,,,,,,,,,,,,,,,,,,,,,,,,,,,,Album,2.7584,763.9792955000003,763.9798064000006,763.9799140000005,763.9947095000007,766.7606891000005,766.7449184000006,766.7484471000007,766.7606891000005,766.7606891000005,766.7606891000005,766.7606891000005,768.7608448000001,768.7608448000001,768.7608448000001,768.7608448000001,768.7453607000007,3,None,0.7219827000008081,0.26629479999974137,,,,,,,,,,,,,,,,3084,1,2025-05-30_14h00.35.729,sm,2024.2.4,59.93252796016145,2025-05-30 14h00.59.324602 +0200,
29,0,29,,,,,,space,2.141327100000126,None,None,3,None,0.6647044999999707,0.3601760999999897,0,0,0,0,,,,,1,0,1,0,,,,,29,0,29,0,,768.7608448000001,,,,,,,,,,,,,,,,,,,,,,,,,,,,,,,,,,,,,,,,,,,,,,,,,,,,,Weihnachten,2.8516,768.7458779000008,768.7463919000002,768.7464989,768.7608448000001,771.6273738,771.6116025000001,771.6160307,771.6273738,771.6273738,771.6273738,771.6273738,773.6273650000003,773.6273650000003,773.6273650000003,773.6273650000003,773.6115825000006,3,None,0.6647044999999707,0.3601760999999897,,,,,,,,,,,,,,,,3084,1,2025-05-30_14h00.35.729,sm,2024.2.4,59.93252796016145,2025-05-30 14h00.59.324602 +0200,
30,0,30,,,,,,space,2.141327100000126,None,None,2,None,1.7223414999998568,0.20031449999987672,0,0,0,0,,,,,1,0,1,0,,,,,30,0,30,0,,773.6273650000003,,,,,,,,,,,,,,,,,,,,,,,,,,,,,,,,,,,,,,,,,,,,,,,,,,,,,Zähne,4.7208,773.6120894000005,773.6126801999999,773.6127869000002,773.6273650000003,778.3602653000007,778.3445208000003,778.3484692000002,778.3602653000007,778.3602653000007,778.3602653000007,778.3602653000007,780.3601682000008,780.3601682000008,780.3601682000008,780.3601682000008,780.3446315000001,2,None,1.7223414999998568,0.20031449999987672,,,,,,,,,,,,,,,,3084,1,2025-05-30_14h00.35.729,sm,2024.2.4,59.93252796016145,2025-05-30 14h00.59.324602 +0200,
31,0,31,,,,,,space,2.141327100000126,None,None,3,None,0.6268651000000318,0.38201500000013766,0,0,0,0,,,,,1,0,1,0,,,,,31,0,31,0,,780.3601682000008,,,,,,,,,,,,,,,,,,,,,,,,,,,,,,,,,,,,,,,,,,,,,,,,,,,,,Bus,2.2385,780.3451451000001,780.3457440000002,780.3458537000006,780.3601682000008,782.6101017000001,782.5943861000005,782.598172,782.6101017000001,782.6101017000001,782.6101017000001,782.6101017000001,784.6100215000006,784.6100215000006,784.6100215000006,784.6100215000006,784.5946803000006,3,None,0.6268651000000318,0.38201500000013766,,,,,,,,,,,,,,,,3084,1,2025-05-30_14h00.35.729,sm,2024.2.4,59.93252796016145,2025-05-30 14h00.59.324602 +0200,
32,0,32,,,,,,space,2.141327100000126,None,None,3,None,0.5728497000000061,0.33755569999993895,0,0,0,0,,,,,1,0,1,0,,,,,32,0,32,0,,784.6100215000006,,,,,,,,,,,,,,,,,,,,,,,,,,,,,,,,,,,,,,,,,,,,,,,,,,,,,Publikum,2.9443,784.5951623999999,784.5958016000004,784.5959130000001,784.6100215000006,787.5599355000004,787.5440531000004,787.5482793000001,787.5599355000004,787.5599355000004,787.5599355000004,787.5599355000004,789.5597760999999,789.5597760999999,789.5597760999999,789.5597760999999,789.5438551000007,3,None,0.5728497000000061,0.33755569999993895,,,,,,,,,,,,,,,,3084,1,2025-05-30_14h00.35.729,sm,2024.2.4,59.93252796016145,2025-05-30 14h00.59.324602 +0200,
33,0,33,,,,,,space,2.141327100000126,None,None,2,None,0.8844831000005797,0.2045231000001877,0,0,0,0,,,,,1,0,1,0,,,,,33,0,33,0,,789.5597760999999,,,,,,,,,,,,,,,,,,,,,,,,,,,,,,,,,,,,,,,,,,,,,,,,,,,,,Sumpf,2.0946,789.544331,789.5449646000006,789.5450661000004,789.5597760999999,791.6593600000006,791.6438641000004,791.6478953000005,791.6593600000006,791.6593600000006,791.6593600000006,791.6593600000006,793.6595297000003,793.6595297000003,793.6595297000003,793.6595297000003,793.6440765000007,2,None,0.8844831000005797,0.2045231000001877,,,,,,,,,,,,,,,,3084,1,2025-05-30_14h00.35.729,sm,2024.2.4,59.93252796016145,2025-05-30 14h00.59.324602 +0200,
34,0,34,,,,,,space,2.141327100000126,None,None,2,None,0.6475854999998774,0.21441979999963223,0,0,0,0,,,,,1,0,1,0,,,,,34,0,34,0,,793.6595297000003,,,,,,,,,,,,,,,,,,,,,,,,,,,,,,,,,,,,,,,,,,,,,,,,,,,,,Vogel,2.6097,793.6445929000001,793.6451063000004,793.6452146000001,793.6595297000003,796.2754535000004,796.2600193000007,796.2634119000004,796.2754535000004,796.2754535000004,796.2754535000004,796.2754535000004,798.2759075000004,798.2759075000004,798.2759075000004,798.2759075000004,798.2602113000003,2,None,0.6475854999998774,0.21441979999963223,,,,,,,,,,,,,,,,3084,1,2025-05-30_14h00.35.729,sm,2024.2.4,59.93252796016145,2025-05-30 14h00.59.324602 +0200,
35,0,35,,,,,,space,2.141327100000126,None,None,3,None,0.8046856999999363,0.32183569999961037,0,0,0,0,,,,,1,0,1,0,,,,,35,0,35,0,,798.2759075000004,,,,,,,,,,,,,,,,,,,,,,,,,,,,,,,,,,,,,,,,,,,,,,,,,,,,,Gegenwart,2.0052,798.2607201999999,798.2612449000007,798.2613495000005,798.2759075000004,800.2922828000001,800.2767763000002,800.2811279000007,800.2922828000001,800.2922828000001,800.2922828000001,800.2922828000001,802.2922330000001,802.2922330000001,802.2922330000001,802.2922330000001,802.2765303000006,3,None,0.8046856999999363,0.32183569999961037,,,,,,,,,,,,,,,,3084,1,2025-05-30_14h00.35.729,sm,2024.2.4,59.93252796016145,2025-05-30 14h00.59.324602 +0200,
36,0,36,,,,,,space,2.141327100000126,None,None,3,None,0.9988752999997814,0.2782055000006949,0,0,0,0,,,,,1,0,1,0,,,,,36,0,36,0,,802.2922330000001,,,,,,,,,,,,,,,,,,,,,,,,,,,,,,,,,,,,,,,,,,,,,,,,,,,,,Zeichnung,2.0168,802.2769845000003,802.2774654000004,802.2775605000006,802.2922330000001,804.3086722000007,804.2931965000007,804.2976451000004,804.3086722000007,804.3086722000007,804.3086722000007,804.3086722000007,806.3087038000003,806.3087038000003,806.3087038000003,806.3087038000003,806.2931139000002,3,None,0.9988752999997814,0.2782055000006949,,,,,,,,,,,,,,,,3084,1,2025-05-30_14h00.35.729,sm,2024.2.4,59.93252796016145,2025-05-30 14h00.59.324602 +0200,
37,0,37,,,,,,space,2.141327100000126,None,None,3,None,0.7662202000001344,0.333864100000028,0,0,0,0,,,,,1,0,1,0,,,,,37,0,37,0,,806.3087038000003,,,,,,,,,,,,,,,,,,,,,,,,,,,,,,,,,,,,,,,,,,,,,,,,,,,,,Kante,2.4137,806.2935912000003,806.2940882000003,806.2941890000002,806.3087038000003,808.7251428,808.7097391000007,808.7160426999999,808.7251428,808.7251428,808.7251428,808.7251428,810.7255513,810.7255513,810.7255513,810.7255513,810.7095509000001,3,None,0.7662202000001344,0.333864100000028,,,,,,,,,,,,,,,,3084,1,2025-05-30_14h00.35.729,sm,2024.2.4,59.93252796016145,2025-05-30 14h00.59.324602 +0200,
38,0,38,,,,,,space,2.141327100000126,None,None,3,None,1.2297757999995156,0.29682950000005803,0,0,0,0,,,,,1,0,1,0,,,,,38,0,38,0,,810.7255513,,,,,,,,,,,,,,,,,,,,,,,,,,,,,,,,,,,,,,,,,,,,,,,,,,,,,Nudeln,3.0127,810.7100374000001,810.7106656000005,810.7107712000006,810.7255513,813.7421267,813.7259153000005,813.7298817999999,813.7421267,813.7421267,813.7421267,813.7421267,815.7414503,815.7414503,815.7414503,815.7414503,815.7259836000003,3,None,1.2297757999995156,0.29682950000005803,,,,,,,,,,,,,,,,3084,1,2025-05-30_14h00.35.729,sm,2024.2.4,59.93252796016145,2025-05-30 14h00.59.324602 +0200,
39,0,39,,,,,,space,2.141327100000126,None,None,3,None,0.7454922000006263,0.31216759999915666,0,0,0,0,,,,,1,0,1,0,,,,,39,0,39,0,,815.7414503,,,,,,,,,,,,,,,,,,,,,,,,,,,,,,,,,,,,,,,,,,,,,,,,,,,,,Zimmer,2.7992,815.7264903000005,815.7271499000008,815.7272551000005,815.7414503,818.5412226000008,818.5253588000005,818.5289734000007,818.5412226000008,818.5412226000008,818.5412226000008,818.5412226000008,820.5412005000007,820.5412005000007,820.5412005000007,820.5412005000007,820.5255087000005,3,None,0.7454922000006263,0.31216759999915666,,,,,,,,,,,,,,,,3084,1,2025-05-30_14h00.35.729,sm,2024.2.4,59.93252796016145,2025-05-30 14h00.59.324602 +0200,
40,0,40,,,,,,space,2.141327100000126,None,None,3,None,0.941519399999379,0.31531380000069475,0,0,0,0,,,,,1,0,1,0,,,,,40,0,40,0,,820.5412005000007,,,,,,,,,,,,,,,,,,,,,,,,,,,,,,,,,,,,,,,,,,,,,,,,,,,,,Strand,4.5959,820.5260157000002,820.5266636000006,820.5267695000002,820.5412005000007,825.1405504000004,825.1250388000008,825.1285932000001,825.1405504000004,825.1405504000004,825.1405504000004,825.1405504000004,827.1416327000006,827.1416327000006,827.1416327000006,827.1416327000006,827.1253457000003,3,None,0.941519399999379,0.31531380000069475,,,,,,,,,,,,,,,,3084,1,2025-05-30_14h00.35.729,sm,2024.2.4,59.93252796016145,2025-05-30 14h00.59.324602 +0200,
41,0,41,,,,,,space,2.141327100000126,None,None,2,None,0.8281848999995418,0.24327100000027713,0,0,0,0,,,,,1,0,1,0,,,,,41,0,41,0,,827.1416327000006,,,,,,,,,,,,,,,,,,,,,,,,,,,,,,,,,,,,,,,,,,,,,,,,,,,,,Autorin,3.6615,827.1258569000001,827.1263630000003,827.1264711000003,827.1416327000006,830.8073670000003,830.7919952000002,830.7961537000001,830.8073670000003,830.8073670000003,830.8073670000003,830.8073670000003,832.8072947999999,832.8072947999999,832.8072947999999,832.8072947999999,832.7914977,2,None,0.8281848999995418,0.24327100000027713,,,,,,,,,,,,,,,,3084,1,2025-05-30_14h00.35.729,sm,2024.2.4,59.93252796016145,2025-05-30 14h00.59.324602 +0200,
42,0,42,,,,,,space,2.141327100000126,None,None,3,None,0.7271804000001794,0.34060950000002777,0,0,0,0,,,,,1,0,1,0,,,,,42,0,42,0,,832.8072947999999,,,,,,,,,,,,,,,,,,,,,,,,,,,,,,,,,,,,,,,,,,,,,,,,,,,,,Rot,2.3006,832.7919469000008,832.7924373000005,832.7925291000001,832.8072947999999,835.1069505000005,835.0912989000008,835.0942989000005,835.1069505000005,835.1069505000005,835.1069505000005,835.1069505000005,837.1070001000007,837.1070001000007,837.1070001000007,837.1070001000007,837.0912533999999,3,None,0.7271804000001794,0.34060950000002777,,,,,,,,,,,,,,,,3084,1,2025-05-30_14h00.35.729,sm,2024.2.4,59.93252796016145,2025-05-30 14h00.59.324602 +0200,
43,0,43,,,,,,space,2.141327100000126,None,None,3,None,1.8336804000000484,None,0,0,0,0,,,,,1,0,1,0,,,,,43,0,43,0,,837.1070001000007,,,,,,,,,,,,,,,,,,,,,,,,,,,,,,,,,,,,,,,,,,,,,,,,,,,,,Sturm,4.4767,837.0917733000006,837.0923700000003,837.0924737000005,837.1070001000007,841.5898130000005,841.5743680000005,841.5777934000007,841.5898130000005,841.5898130000005,841.5898130000005,841.5898130000005,843.5898249000002,843.5898249000002,843.5898249000002,843.5898249000002,843.5743187000007,3,None,1.8336804000000484,None,,,,,,,,,,,,,,,,3084,1,2025-05-30_14h00.35.729,sm,2024.2.4,59.93252796016145,2025-05-30 14h00.59.324602 +0200,
44,0,44,,,,,,space,2.141327100000126,None,None,3,None,0.785856600000443,0.34506669999973383,0,0,0,0,,,,,1,0,1,0,,,,,44,0,44,0,,843.5898249000002,,,,,,,,,,,,,,,,,,,,,,,,,,,,,,,,,,,,,,,,,,,,,,,,,,,,,Radio,2.3916,843.5748317000007,843.5753865000006,843.5754926,843.5898249000002,845.9896398000001,845.9741346000001,845.9789930000006,845.9896398000001,845.9896398000001,845.9896398000001,845.9896398000001,847.9897117999999,847.9897117999999,847.9897117999999,847.9897117999999,847.9741425000002,3,None,0.785856600000443,0.34506669999973383,,,,,,,,,,,,,,,,3084,1,2025-05-30_14h00.35.729,sm,2024.2.4,59.93252796016145,2025-05-30 14h00.59.324602 +0200,
45,0,45,,,,,,space,2.141327100000126,None,None,3,None,1.111342300000615,0.31484439999985625,0,0,0,0,,,,,1,0,1,0,,,,,45,0,45,0,,847.9897117999999,,,,,,,,,,,,,,,,,,,,,,,,,,,,,,,,,,,,,,,,,,,,,,,,,,,,,Tasse,2.5982,847.9746500000001,847.9751693000007,847.9752741000002,847.9897117999999,850.5893421999999,850.5735924,850.5773493000006,850.5893421999999,850.5893421999999,850.5893421999999,850.5893421999999,852.5893321000003,852.5893321000003,852.5893321000003,852.5893321000003,852.573797,3,None,1.111342300000615,0.31484439999985625,,,,,,,,,,,,,,,,3084,1,2025-05-30_14h00.35.729,sm,2024.2.4,59.93252796016145,2025-05-30 14h00.59.324602 +0200,
46,0,46,,,,,,space,2.141327100000126,None,None,2,None,0.8392125000000306,0.24871509999957198,0,0,0,0,,,,,1,0,1,0,,,,,46,0,46,0,,852.5893321000003,,,,,,,,,,,,,,,,,,,,,,,,,,,,,,,,,,,,,,,,,,,,,,,,,,,,,Eltern,2.0842,852.5743132000007,852.5748222000002,852.5749304999999,852.5893321000003,854.6726285000004,854.6569305000003,854.6611670000002,854.6726285000004,854.6726285000004,854.6726285000004,854.6726285000004,856.6724475000001,856.6724475000001,856.6724475000001,856.6724475000001,856.6568255000002,2,None,0.8392125000000306,0.24871509999957198,,,,,,,,,,,,,,,,3084,1,2025-05-30_14h00.35.729,sm,2024.2.4,59.93252796016145,2025-05-30 14h00.59.324602 +0200,
47,0,47,,,,,,space,2.141327100000126,None,None,2,None,1.291436800000156,0.27523589999964315,0,0,0,0,,,,,1,0,1,0,,,,,47,0,47,0,,856.6724475000001,,,,,,,,,,,,,,,,,,,,,,,,,,,,,,,,,,,,,,,,,,,,,,,,,,,,,Anführer,2.2074,856.6573429,856.657862,856.6579690000008,856.6724475000001,858.8889327000006,858.8733975000005,858.8776275,858.8889327000006,858.8889327000006,858.8889327000006,858.8889327000006,860.8891342000006,860.8891342000006,860.8891342000006,860.8891342000006,860.8731987000001,2,None,1.291436800000156,0.27523589999964315,,,,,,,,,,,,,,,,3084,1,2025-05-30_14h00.35.729,sm,2024.2.4,59.93252796016145,2025-05-30 14h00.59.324602 +0200,
48,0,48,,,,,,space,2.141327100000126,None,None,3,None,0.8161034999993717,0.3630861999999979,0,0,0,0,,,,,1,0,1,0,,,,,48,0,48,0,,860.8891342000006,,,,,,,,,,,,,,,,,,,,,,,,,,,,,,,,,,,,,,,,,,,,,,,,,,,,,Scheidung,2.3861,860.8737206000005,860.8743057000001,860.8744150000002,860.8891342000006,863.2884238000006,863.2730001,863.2768799000005,863.2884238000006,863.2884238000006,863.2884238000006,863.2884238000006,865.2885226000008,865.2885226000008,865.2885226000008,865.2885226000008,865.2728852,3,None,0.8161034999993717,0.3630861999999979,,,,,,,,,,,,,,,,3084,1,2025-05-30_14h00.35.729,sm,2024.2.4,59.93252796016145,2025-05-30 14h00.59.324602 +0200,
49,0,49,,,,,,space,2.141327100000126,None,None,3,None,1.4288921000006667,0.37266989999989164,0,0,0,0,,,,,1,0,1,0,,,,,49,0,49,0,,865.2885226000008,,,,,,,,,,,,,,,,,,,,,,,,,,,,,,,,,,,,,,,,,,,,,,,,,,,,,Geschmack,2.9036,865.2733974000002,865.2739955000006,865.2740999000007,865.2885226000008,868.2050976,868.1895813000001,868.1936288000006,868.2050976,868.2050976,868.2050976,868.2050976,870.2051093,870.2051093,870.2051093,870.2051093,870.1899199,3,None,1.4288921000006667,0.37266989999989164,,,,,,,,,,,,,,,,3084,1,2025-05-30_14h00.35.729,sm,2024.2.4,59.93252796016145,2025-05-30 14h00.59.324602 +0200,
50,0,50,,,,,,space,2.141327100000126,None,None,3,None,1.362539700000525,0.32911669999975857,0,0,0,0,,,,,1,0,1,0,,,,,50,0,50,0,,870.2051093,,,,,,,,,,,,,,,,,,,,,,,,,,,,,,,,,,,,,,,,,,,,,,,,,,,,,Sack,2.4167,870.1904250000007,870.1910376000005,870.1911461,870.2051093,872.6214044000008,872.6059147000005,872.6094123000003,872.6214044000008,872.6214044000008,872.6214044000008,872.6214044000008,874.6214188000004,874.6214188000004,874.6214188000004,874.6214188000004,874.6058749000003,3,None,1.362539700000525,0.32911669999975857,,,,,,,,,,,,,,,,3084,1,2025-05-30_14h00.35.729,sm,2024.2.4,59.93252796016145,2025-05-30 14h00.59.324602 +0200,
51,0,51,,,,,,space,2.141327100000126,None,None,3,None,1.011344000000463,0.2602945999997246,0,0,0,0,,,,,1,0,1,0,,,,,51,0,51,0,,874.6214188000004,,,,,,,,,,,,,,,,,,,,,,,,,,,,,,,,,,,,,,,,,,,,,,,,,,,,,Loch,3.6438,874.6063847000005,874.6070421000004,874.6071521000003,874.6214188000004,878.2710533,878.2554726000008,878.2598959000006,878.2710533,878.2710533,878.2710533,878.2710533,880.2713724000005,880.2713724000005,880.2713724000005,880.2713724000005,880.2558471000002,3,None,1.011344000000463,0.2602945999997246,,,,,,,,,,,,,,,,3084,1,2025-05-30_14h00.35.729,sm,2024.2.4,59.93252796016145,2025-05-30 14h00.59.324602 +0200,
52,0,52,,,,,,space,2.141327100000126,None,None,3,None,1.4242638999994597,0.30781890000071144,0,0,0,0,,,,,1,0,1,0,,,,,52,0,52,0,,880.2713724000005,,,,,,,,,,,,,,,,,,,,,,,,,,,,,,,,,,,,,,,,,,,,,,,,,,,,,Rauch,2.1743,880.2563861000008,880.2570966000003,880.2572091000002,880.2713724000005,882.4544209000005,882.4386042000006,882.4426779000005,882.4544209000005,882.4544209000005,882.4544209000005,882.4544209000005,884.4542885999999,884.4542885999999,884.4542885999999,884.4542885999999,884.4389402000006,3,None,1.4242638999994597,0.30781890000071144,,,,,,,,,,,,,,,,3084,1,2025-05-30_14h00.35.729,sm,2024.2.4,59.93252796016145,2025-05-30 14h00.59.324602 +0200,
53,0,53,,,,,,space,2.141327100000126,None,None,2,None,0.7695432000000437,0.30255940000006376,0,0,0,0,,,,,1,0,1,0,,,,,53,0,53,0,,884.4542885999999,,,,,,,,,,,,,,,,,,,,,,,,,,,,,,,,,,,,,,,,,,,,,,,,,,,,,Knöchel,2.2639,884.4394605000007,884.4399827000007,884.4400904000004,884.4542885999999,886.7208604000007,886.7049946000006,886.7093209000004,886.7208604000007,886.7208604000007,886.7208604000007,886.7208604000007,,,,,888.7055299000003,2,None,0.7695432000000437,0.30255940000006376,,,,,,,,,,,,,,,,3084,1,2025-05-30_14h00.35.729,sm,2024.2.4,59.93252796016145,2025-05-30 14h00.59.324602 +0200,
54,0,54,,,,,,space,2.141327100000126,None,None,3,None,0.766188499999771,0.29551269999956276,0,0,0,0,,,,,1,0,1,0,,,,,54,0,54,0,,888.7207349,,,,,,,,,,,,,,,,,,,,,,,,,,,,,,,,,,,,,,,,,,,,,,,,,,,,,Schuh,4.3424,888.7060969000004,888.7067965000006,888.7069104000002,888.7207349,893.0703000000003,893.0545441000004,893.0582299000007,893.0703000000003,893.0703000000003,893.0703000000003,893.0703000000003,895.0703167000001,895.0703167000001,895.0703167000001,895.0703167000001,895.0546440000007,3,None,0.766188499999771,0.29551269999956276,,,,,,,,,,,,,,,,3084,1,2025-05-30_14h00.35.729,sm,2024.2.4,59.93252796016145,2025-05-30 14h00.59.324602 +0200,
55,0,55,,,,,,space,2.141327100000126,None,None,2,None,1.2201103000006697,0.2892348999994283,0,0,0,0,,,,,1,0,1,0,,,,,55,0,55,0,,895.0703167000001,,,,,,,,,,,,,,,,,,,,,,,,,,,,,,,,,,,,,,,,,,,,,,,,,,,,,Schnee,2.5519,895.0551469000002,895.0558089000006,895.0559161000001,895.0703167000001,897.6365328000002,897.6211206000007,897.6247032000001,897.6365328000002,897.6365328000002,897.6365328000002,897.6365328000002,899.6366465000001,899.6366465000001,899.6366465000001,899.6366465000001,899.6212443000004,2,None,1.2201103000006697,0.2892348999994283,,,,,,,,,,,,,,,,3084,1,2025-05-30_14h00.35.729,sm,2024.2.4,59.93252796016145,2025-05-30 14h00.59.324602 +0200,
56,0,56,,,,,,space,2.141327100000126,None,None,3,None,0.7276800999998159,0.2941549000006489,0,0,0,0,,,,,1,0,1,0,,,,,56,0,56,0,,899.6366465000001,,,,,,,,,,,,,,,,,,,,,,,,,,,,,,,,,,,,,,,,,,,,,,,,,,,,,Raum,4.4429,899.6217511000004,899.6225099000003,899.6226208000007,899.6366465000001,904.0863750000008,904.0705231000002,904.0739995000004,904.0863750000008,904.0863750000008,904.0863750000008,904.0863750000008,906.0864809000004,906.0864809000004,906.0864809000004,906.0864809000004,906.0709158,3,None,0.7276800999998159,0.2941549000006489,,,,,,,,,,,,,,,,3084,1,2025-05-30_14h00.35.729,sm,2024.2.4,59.93252796016145,2025-05-30 14h00.59.324602 +0200,
57,0,57,,,,,,space,2.141327100000126,None,None,3,None,0.7028329000004305,0.28834480000023177,0,0,0,0,,,,,1,0,1,0,,,,,57,0,57,0,,906.0864809000004,,,,,,,,,,,,,,,,,,,,,,,,,,,,,,,,,,,,,,,,,,,,,,,,,,,,,Anruf,2.7378,906.0714232,906.0720184000002,906.0721298000008,906.0864809000004,908.8363340000005,908.8205385000001,908.8239206000007,908.8363340000005,908.8363340000005,908.8363340000005,908.8363340000005,910.8361262000008,910.8361262000008,910.8361262000008,910.8361262000008,910.8203646000002,3,None,0.7028329000004305,0.28834480000023177,,,,,,,,,,,,,,,,3084,1,2025-05-30_14h00.35.729,sm,2024.2.4,59.93252796016145,2025-05-30 14h00.59.324602 +0200,
58,0,58,,,,,,space,2.141327100000126,None,None,3,None,1.2722247000001516,0.4561399000003803,0,0,0,0,,,,,1,0,1,0,,,,,58,0,58,0,,910.8361262000008,,,,,,,,,,,,,,,,,,,,,,,,,,,,,,,,,,,,,,,,,,,,,,,,,,,,,Atem,2.0589,910.8208755000005,910.8215245000001,910.8216295000002,910.8361262000008,912.9023139999999,912.8869443000003,912.8909707000003,912.9023139999999,912.9023139999999,912.9023139999999,912.9023139999999,914.9025550000006,914.9025550000006,914.9025550000006,914.9025550000006,914.8875005,3,None,1.2722247000001516,0.4561399000003803,,,,,,,,,,,,,,,,3084,1,2025-05-30_14h00.35.729,sm,2024.2.4,59.93252796016145,2025-05-30 14h00.59.324602 +0200,
59,0,59,,,,,,space,2.141327100000126,None,None,2,None,0.8398506000003181,0.2261823999997432,0,0,0,0,,,,,1,0,1,0,,,,,59,0,59,0,,914.9025550000006,,,,,,,,,,,,,,,,,,,,,,,,,,,,,,,,,,,,,,,,,,,,,,,,,,,,,Koch,2.1697,914.8880056000007,914.8885008000007,914.8886065000006,914.9025550000006,917.0854975000002,917.0698790000006,917.0730115000006,917.0854975000002,917.0854975000002,917.0854975000002,917.0854975000002,919.0857027000002,919.0857027000002,919.0857027000002,919.0857027000002,919.0699308000003,2,None,0.8398506000003181,0.2261823999997432,,,,,,,,,,,,,,,,3084,1,2025-05-30_14h00.35.729,sm,2024.2.4,59.93252796016145,2025-05-30 14h00.59.324602 +0200,
60,0,60,,,,,,space,2.141327100000126,None,None,3,None,0.7013885999995182,0.3011716000000888,0,0,0,0,,,,,1,0,1,0,,,,,60,0,60,0,,919.0857027000002,,,,,,,,,,,,,,,,,,,,,,,,,,,,,,,,,,,,,,,,,,,,,,,,,,,,,Olympia,2.5377,919.0704399000006,919.0710257000001,919.0711307000001,919.0857027000002,921.6352176,921.6196973000006,921.6268474000008,921.6352176,921.6352176,921.6352176,921.6352176,923.6354319000002,923.6354319000002,923.6354319000002,923.6354319000002,923.6198398000006,3,None,0.7013885999995182,0.3011716000000888,,,,,,,,,,,,,,,,3084,1,2025-05-30_14h00.35.729,sm,2024.2.4,59.93252796016145,2025-05-30 14h00.59.324602 +0200,
61,0,61,,,,,,space,2.141327100000126,None,None,3,None,1.2643730999998297,0.3269502000002831,0,0,0,0,,,,,1,0,1,0,,,,,61,0,61,0,,923.6354319000002,,,,,,,,,,,,,,,,,,,,,,,,,,,,,,,,,,,,,,,,,,,,,,,,,,,,,Monument,2.3362,923.6204045000004,923.6210587000005,923.6212158000008,923.6354319000002,925.9850880000004,925.9700839000006,925.9742881000002,925.9850880000004,925.9850880000004,925.9850880000004,925.9850880000004,927.9850087000004,927.9850087000004,927.9850087000004,927.9850087000004,927.9695723000004,3,None,1.2643730999998297,0.3269502000002831,,,,,,,,,,,,,,,,3084,1,2025-05-30_14h00.35.729,sm,2024.2.4,59.93252796016145,2025-05-30 14h00.59.324602 +0200,
62,0,62,,,,,,space,2.141327100000126,None,None,3,None,0.760219099999631,0.3235813999999664,0,0,0,0,,,,,1,0,1,0,,,,,62,0,62,0,,927.9850087000004,,,,,,,,,,,,,,,,,,,,,,,,,,,,,,,,,,,,,,,,,,,,,,,,,,,,,Geschirr,3.189,927.9700816000004,927.9705928000003,927.9707003000003,927.9850087000004,931.1849265000001,931.1692133000006,931.1727960000007,931.1849265000001,931.1849265000001,931.1849265000001,931.1849265000001,933.1849597999999,933.1849597999999,933.1849597999999,933.1849597999999,933.1692802000007,3,None,0.760219099999631,0.3235813999999664,,,,,,,,,,,,,,,,3084,1,2025-05-30_14h00.35.729,sm,2024.2.4,59.93252796016145,2025-05-30 14h00.59.324602 +0200,
63,0,63,,,,,,space,2.141327100000126,None,None,2,None,1.0831630000002406,0.2965574999998353,0,0,0,0,,,,,1,0,1,0,,,,,63,0,63,0,,933.1849597999999,,,,,,,,,,,,,,,,,,,,,,,,,,,,,,,,,,,,,,,,,,,,,,,,,,,,,Lava,2.9061,933.1697983000004,933.1703242000003,933.1704292000004,933.1849597999999,936.1012041000004,936.0857979000002,936.0894398,936.1012041000004,936.1012041000004,936.1012041000004,936.1012041000004,938.1011891000007,938.1011891000007,938.1011891000007,938.1011891000007,938.0856591000002,2,None,1.0831630000002406,0.2965574999998353,,,,,,,,,,,,,,,,3084,1,2025-05-30_14h00.35.729,sm,2024.2.4,59.93252796016145,2025-05-30 14h00.59.324602 +0200,
64,0,64,,,,,,space,2.141327100000126,None,None,3,None,0.6885851000006369,0.2775008999997226,0,0,0,0,,,,,1,0,1,0,,,,,64,0,64,0,,938.1011891000007,,,,,,,,,,,,,,,,,,,,,,,,,,,,,,,,,,,,,,,,,,,,,,,,,,,,,Gipfel,4.3942,938.0861619000007,938.0868300000002,938.0869389,938.1011891000007,942.5004882000003,942.4852248000007,942.4895106000004,942.5004882000003,942.5004882000003,942.5004882000003,942.5004882000003,944.5009660000005,944.5009660000005,944.5009660000005,944.5009660000005,944.4855142000006,3,None,0.6885851000006369,0.2775008999997226,,,,,,,,,,,,,,,,3084,1,2025-05-30_14h00.35.729,sm,2024.2.4,59.93252796016145,2025-05-30 14h00.59.324602 +0200,
65,0,65,,,,,,space,2.141327100000126,None,None,3,None,0.8837775999991209,0.27851100000043516,0,0,0,0,,,,,1,0,1,0,,,,,65,0,65,0,,944.5009660000005,,,,,,,,,,,,,,,,,,,,,,,,,,,,,,,,,,,,,,,,,,,,,,,,,,,,,Film,2.1413,944.4860214,944.4867684999999,944.4868794000004,944.5009660000005,946.6506411,946.6349608999999,946.6380200000003,946.6506411,946.6506411,946.6506411,946.6506411,948.6506579000006,948.6506579000006,948.6506579000006,948.6506579000006,948.6350663000003,3,None,0.8837775999991209,0.27851100000043516,,,,,,,,,,,,,,,,3084,1,2025-05-30_14h00.35.729,sm,2024.2.4,59.93252796016145,2025-05-30 14h00.59.324602 +0200,
66,0,66,,,,,,space,2.141327100000126,None,None,2,None,1.0532302999999956,0.2543396000000939,0,0,0,0,,,,,1,0,1,0,,,,,66,0,66,0,,948.6506579000006,,,,,,,,,,,,,,,,,,,,,,,,,,,,,,,,,,,,,,,,,,,,,,,,,,,,,Hand,3.039,948.6355385000006,948.6361061000007,948.6362082000005,948.6506579000006,951.7003531999999,951.6845546000004,951.6876650000004,951.7003531999999,951.7003531999999,951.7003531999999,951.7003531999999,953.7006590999999,953.7006590999999,953.7006590999999,953.7006590999999,953.6846049000005,2,None,1.0532302999999956,0.2543396000000939,,,,,,,,,,,,,,,,3084,1,2025-05-30_14h00.35.729,sm,2024.2.4,59.93252796016145,2025-05-30 14h00.59.324602 +0200,
