thisN,thisTrialN,thisRepN,Cue,Target,Mediator1,Mediator2,iti,scanner_ready_press.keys,scanner_ready_press.rt,scanner_ready_press.duration,skip_trigger.keys,living_nonliving.keys,end_mapping.keys,living_nonliving.rt,living_nonliving.duration,blocks.thisRepN,blocks.thisTrialN,blocks.thisN,blocks.thisIndex,load_and_shuffle.thisRepN,load_and_shuffle.thisTrialN,load_and_shuffle.thisN,load_and_shuffle.thisIndex,runs.thisRepN,runs.thisTrialN,runs.thisN,runs.thisIndex,iti_loading_loop.thisRepN,iti_loading_loop.thisTrialN,iti_loading_loop.thisN,iti_loading_loop.thisIndex,semantic_mapping_run.thisRepN,semantic_mapping_run.thisTrialN,semantic_mapping_run.thisN,semantic_mapping_run.thisIndex,thisRow.t,notes,welcome.started,welcome_text.started,welcome.stopped,scout.started,scout_text.started,key_resp.started,scout.stopped,key_resp.keys,key_resp.rt,key_resp.duration,instructions_semantic_mapping1.started,sm_instructions1_text.started,sm_instructions1_key.started,instructions_semantic_mapping1.stopped,sm_instructions1_key.keys,sm_instructions1_key.rt,sm_instructions1_key.duration,instructions_semantic_mapping2.started,sm_instructions2_text.started,sm_instructions2_key.started,instructions_semantic_mapping2.stopped,sm_instructions2_key.keys,sm_instructions2_key.rt,sm_instructions2_key.duration,reset_run.started,reset_run.stopped,shuffle_items.started,shuffle_items.stopped,set_up_runs.started,set_up_runs.stopped,load_iti.started,load_iti.stopped,prep_scanner.started,scanner_ready_press.started,ready_set_text.started,prep_scanner.stopped,runs.scanner_ready_press.keys,runs.scanner_ready_press.rt,runs.scanner_ready_press.duration,wait_for_trigger.started,starting_soon.started,skip_trigger.started,wait_for_trigger.stopped,runs.skip_trigger.keys,blank.started,begin_end_run_cross.started,sound_1.started,sound_1.stopped,sound_2.started,sound_2.stopped,blank.stopped,CurrentItem,CurrentITI,set_up_trial.started,set_up_trial.stopped,sm_iti.started,iti_cross.started,iti_cross.stopped,sm_iti.stopped,item.started,living_nonliving.started,end_mapping.started,living_nonliving_text.started,semantic_map_item.started,living_nonliving.stopped,end_mapping.stopped,living_nonliving_text.stopped,semantic_map_item.stopped,item.stopped,semantic_mapping_run.living_nonliving.keys,semantic_mapping_run.end_mapping.keys,semantic_mapping_run.living_nonliving.rt,semantic_mapping_run.living_nonliving.duration,fieldmap.started,fieldmap.stopped,runs.fm_key.keys,task_break.started,feeback_text.started,task_break_text.started,task_break_resp.started,feeback_text.stopped,task_break.stopped,runs.task_break_resp.keys,runs.task_break_resp.rt,runs.task_break_resp.duration,begin_end_run_cross.stopped,fm_text.started,fm_key.started,runs.fm_key.rt,runs.fm_key.duration,thanks.started,thanks_text.started,thanks_text.stopped,thanks.stopped,PID,MRI,date,expName,psychopyVersion,frameRate,expStart,
,,,,,,,,,,,,,,,,,,,,,,,,,,,,,,,,,,,,,,0.003659299998616916,0.018546999999671243,3.00246530000004,,,,,,,,,,,,,,,,,,,,,,,,,,,,,,,,,,,,,,,,,,,,,,,,,,,,,,,,,,,,,,,,,,,,,,,,,,,,,,,,,,,,,,,,,,,,6039,1,2025-06-02_15h54.30.652,sm,2024.2.4,59.92911584207269,2025-06-02 15h54.59.469445 +0200,
,,,,,,,,,,,,,,,,,,,,,,,,,,,,,,,,,,,,,,,,,3.0025519999999233,3.018861900000047,3.018861900000047,191.86741230000007,space,188.83866379999927,None,,,,,,,,,,,,,,,,,,,,,,,,,,,,,,,,,,,,,,,,,,,,,,,,,,,,,,,,,,,,,,,,,,,,,,,,,,,,,,,,,,,,,6039,1,2025-06-02_15h54.30.652,sm,2024.2.4,59.92911584207269,2025-06-02 15h54.59.469445 +0200,
,,,,,,,,,,,,,,,,,,,,,,,,,,,,,,,,,,,,,,,,,,,,,,,,191.86753549999958,191.87653820000014,191.87653820000014,199.84067799999866,2,7.952128900000389,None,,,,,,,,,,,,,,,,,,,,,,,,,,,,,,,,,,,,,,,,,,,,,,,,,,,,,,,,,,,,,,,,,,,,,,,,,,,,,,6039,1,2025-06-02_15h54.30.652,sm,2024.2.4,59.92911584207269,2025-06-02 15h54.59.469445 +0200,
,,,,,,,,,,,,,,,,,,,,,,,,,,,,,,,,,,,,,,,,,,,,,,,,,,,,,,,199.8407969,199.85575719999906,199.85575719999906,209.2573152999994,2,9.389982700000473,None,,,,,,,,,,,,,,,,,,,,,,,,,,,,,,,,,,,,,,,,,,,,,,,,,,,,,,,,,,,,,,,,,,,,,,,6039,1,2025-06-02_15h54.30.652,sm,2024.2.4,59.92911584207269,2025-06-02 15h54.59.469445 +0200,
0,0,0,Teleskop,Himmel,Sterne,Weltraum,2.3006,space,1.9435627000002569,None,None,None,None,,,0,0,0,0,0,79,79,55,0,0,0,0,0,79,79,41,0,0,0,0,269.7864443999988,,,,,,,,,,,,,,,,,,,,,,,,,,209.25830089999909,209.25911579999956,209.32548580000002,209.3257367999995,209.33021279999957,209.3305177000002,209.3598605999996,209.36005549999936,209.3664594999991,209.37035899999864,209.37035899999864,211.32554170000003,space,1.9435627000002569,None,211.32569619999958,211.3402262999989,211.3402262999989,257.75407339999947,None,257.7633998000001,257.7715498999987,257.7691615666665,258.98154179999983,267.75394446666564,268.76152489999913,269.7703184999991,Karton,2.3006,269.77158509999936,269.77231839999877,269.77537499999926,269.7864443999988,272.0876236999993,272.0710462999996,272.0779456,272.0876236999993,272.0876236999993,272.0876236999993,272.0876236999993,274.08667779999996,274.08667779999996,274.08667779999996,274.08667779999996,274.07122399999935,None,None,,,,,,,,,,,,,,,,,,,,,,,,6039,1,2025-06-02_15h54.30.652,sm,2024.2.4,59.92911584207269,2025-06-02 15h54.59.469445 +0200,
1,0,1,,,,,,space,1.9435627000002569,None,None,2,None,1.6096221000007063,0.22453609999865876,0,0,0,0,,,,,0,0,0,0,,,,,1,0,1,0,274.08667779999996,,,,,,,,,,,,,,,,,,,,,,,,,,,,,,,,,,,,,,,,,,,,,,,,,,,,,Blumen,2.0589,274.0716322999997,274.07210750000013,274.07220029999917,274.08667779999996,276.1533120999993,276.13760419999926,276.1418758,276.1533120999993,276.1533120999993,276.1533120999993,276.1533120999993,278.1530640000001,278.1530640000001,278.1530640000001,278.1530640000001,278.1374417999996,2,None,1.6096221000007063,0.22453609999865876,,,,,,,,,,,,,,,,,,,,,,6039,1,2025-06-02_15h54.30.652,sm,2024.2.4,59.92911584207269,2025-06-02 15h54.59.469445 +0200,
2,0,2,,,,,,space,1.9435627000002569,None,None,3,None,1.0088071999998647,0.2602630000001227,0,0,0,0,,,,,0,0,0,0,,,,,2,0,2,0,278.1530640000001,,,,,,,,,,,,,,,,,,,,,,,,,,,,,,,,,,,,,,,,,,,,,,,,,,,,,Salz,3.039,278.1379457999992,278.1386896999993,278.1387959999993,278.1530640000001,281.2029838999988,281.1870519999993,281.1912906999987,281.2029838999988,281.2029838999988,281.2029838999988,281.2029838999988,283.2028120999985,283.2028120999985,283.2028120999985,283.2028120999985,283.1874649000001,3,None,1.0088071999998647,0.2602630000001227,,,,,,,,,,,,,,,,,,,,,,6039,1,2025-06-02_15h54.30.652,sm,2024.2.4,59.92911584207269,2025-06-02 15h54.59.469445 +0200,
3,0,3,,,,,,space,1.9435627000002569,None,None,3,None,1.078432199999952,0.25522629999977653,0,0,0,0,,,,,0,0,0,0,,,,,3,0,3,0,283.2028120999985,,,,,,,,,,,,,,,,,,,,,,,,,,,,,,,,,,,,,,,,,,,,,,,,,,,,,Zug,3.0547,283.18796509999993,283.18847709999864,283.1885805999991,283.2028120999985,286.26931089999925,286.25391489999856,286.2600559000002,286.26931089999925,286.26931089999925,286.26931089999925,286.26931089999925,288.2693051999995,288.2693051999995,288.2693051999995,288.2693051999995,288.25338889999875,3,None,1.078432199999952,0.25522629999977653,,,,,,,,,,,,,,,,,,,,,,6039,1,2025-06-02_15h54.30.652,sm,2024.2.4,59.92911584207269,2025-06-02 15h54.59.469445 +0200,
4,0,4,,,,,,space,1.9435627000002569,None,None,3,None,1.2495410999999876,0.29027510000014445,0,0,0,0,,,,,0,0,0,0,,,,,4,0,4,0,288.2693051999995,,,,,,,,,,,,,,,,,,,,,,,,,,,,,,,,,,,,,,,,,,,,,,,,,,,,,Sand,2.0168,288.2538561000001,288.2544651999997,288.25464119999924,288.2693051999995,290.2854762999996,290.27010209999935,290.27377739999974,290.2854762999996,290.2854762999996,290.2854762999996,290.2854762999996,292.2856168999988,292.2856168999988,292.2856168999988,292.2856168999988,292.2700905999991,3,None,1.2495410999999876,0.29027510000014445,,,,,,,,,,,,,,,,,,,,,,6039,1,2025-06-02_15h54.30.652,sm,2024.2.4,59.92911584207269,2025-06-02 15h54.59.469445 +0200,
5,0,5,,,,,,space,1.9435627000002569,None,None,3,None,0.9598883999988175,0.31252610000046843,0,0,0,0,,,,,0,0,0,0,,,,,5,0,5,0,292.2856168999988,,,,,,,,,,,,,,,,,,,,,,,,,,,,,,,,,,,,,,,,,,,,,,,,,,,,,Gabel,4.3756,292.27062639999895,292.27114900000015,292.2712733999997,292.2856168999988,296.6688474999992,296.65300299999944,296.6569882999993,296.6688474999992,296.6688474999992,296.6688474999992,296.6688474999992,298.6687044999999,298.6687044999999,298.6687044999999,298.6687044999999,298.6530934000002,3,None,0.9598883999988175,0.31252610000046843,,,,,,,,,,,,,,,,,,,,,,6039,1,2025-06-02_15h54.30.652,sm,2024.2.4,59.92911584207269,2025-06-02 15h54.59.469445 +0200,
6,0,6,,,,,,space,1.9435627000002569,None,None,3,None,0.9878588000010495,0.30182349999995495,0,0,0,0,,,,,0,0,0,0,,,,,6,0,6,0,298.6687044999999,,,,,,,,,,,,,,,,,,,,,,,,,,,,,,,,,,,,,,,,,,,,,,,,,,,,,Dachboden,2.9036,298.6535882999997,298.6541430999987,298.65424579999853,298.6687044999999,301.5851236999988,301.56946739999876,301.57386210000004,301.5851236999988,301.5851236999988,301.5851236999988,301.5851236999988,303.58502749999934,303.58502749999934,303.58502749999934,303.58502749999934,303.5689532999986,3,None,0.9878588000010495,0.30182349999995495,,,,,,,,,,,,,,,,,,,,,,6039,1,2025-06-02_15h54.30.652,sm,2024.2.4,59.92911584207269,2025-06-02 15h54.59.469445 +0200,
7,0,7,,,,,,space,1.9435627000002569,None,None,3,None,0.9685130000016215,0.3760218999996141,0,0,0,0,,,,,0,0,0,0,,,,,7,0,7,0,303.58502749999934,,,,,,,,,,,,,,,,,,,,,,,,,,,,,,,,,,,,,,,,,,,,,,,,,,,,,Zähne,3.6438,303.5693536999988,303.5698042999993,303.5698883999994,303.58502749999934,307.2356340999995,307.2190925999985,307.22333139999864,307.2356340999995,307.2356340999995,307.2356340999995,307.2356340999995,309.23487879999993,309.23487879999993,309.23487879999993,309.23487879999993,309.21892389999994,3,None,0.9685130000016215,0.3760218999996141,,,,,,,,,,,,,,,,,,,,,,6039,1,2025-06-02_15h54.30.652,sm,2024.2.4,59.92911584207269,2025-06-02 15h54.59.469445 +0200,
8,0,8,,,,,,space,1.9435627000002569,None,None,3,None,0.8737435999992158,0.3118140000005951,0,0,0,0,,,,,0,0,0,0,,,,,8,0,8,0,309.23487879999993,,,,,,,,,,,,,,,,,,,,,,,,,,,,,,,,,,,,,,,,,,,,,,,,,,,,,Bad,4.3942,309.21941799999877,309.2200939999984,309.22020129999873,309.23487879999993,313.6339389999994,313.6187100999996,313.6221442999995,313.6339389999994,313.6339389999994,313.6339389999994,313.6339389999994,315.6346638999985,315.6346638999985,315.6346638999985,315.6346638999985,315.61871019999853,3,None,0.8737435999992158,0.3118140000005951,,,,,,,,,,,,,,,,,,,,,,6039,1,2025-06-02_15h54.30.652,sm,2024.2.4,59.92911584207269,2025-06-02 15h54.59.469445 +0200,
9,0,9,,,,,,space,1.9435627000002569,None,None,3,None,0.7434355000004871,0.33861590000014985,0,0,0,0,,,,,0,0,0,0,,,,,9,0,9,0,315.6346638999985,,,,,,,,,,,,,,,,,,,,,,,,,,,,,,,,,,,,,,,,,,,,,,,,,,,,,Schnorchel,4.4767,315.61921280000024,315.61972160000005,315.6198319999985,315.6346638999985,320.11707019999994,320.1015888000002,320.1055020999993,320.11707019999994,320.11707019999994,320.11707019999994,320.11707019999994,322.1171875,322.1171875,322.1171875,322.1171875,322.10164219999933,3,None,0.7434355000004871,0.33861590000014985,,,,,,,,,,,,,,,,,,,,,,6039,1,2025-06-02_15h54.30.652,sm,2024.2.4,59.92911584207269,2025-06-02 15h54.59.469445 +0200,
10,0,10,,,,,,space,1.9435627000002569,None,None,3,None,1.2606283999994048,0.30176720000054047,0,0,0,0,,,,,0,0,0,0,,,,,10,0,10,0,322.1171875,,,,,,,,,,,,,,,,,,,,,,,,,,,,,,,,,,,,,,,,,,,,,,,,,,,,,Weihnachten,3.4445,322.10213529999965,322.10279309999896,322.1029029000001,322.1171875,325.56690459999845,325.55143529999987,325.55506869999954,325.56690459999845,325.56690459999845,325.56690459999845,325.56690459999845,327.5669600000001,327.5669600000001,327.5669600000001,327.5669600000001,327.5512441999999,3,None,1.2606283999994048,0.30176720000054047,,,,,,,,,,,,,,,,,,,,,,6039,1,2025-06-02_15h54.30.652,sm,2024.2.4,59.92911584207269,2025-06-02 15h54.59.469445 +0200,
11,0,11,,,,,,space,1.9435627000002569,None,None,None,None,,,0,0,0,0,,,,,0,0,0,0,,,,,11,0,11,0,327.5669600000001,,,,,,,,,,,,,,,,,,,,,,,,,,,,,,,,,,,,,,,,,,,,,,,,,,,,,Trauben,2.4916,327.5517412999998,327.5522571999991,327.5523607999985,327.5669600000001,330.0672405999994,330.05099469999914,330.05550719999883,330.0672405999994,330.0672405999994,330.0672405999994,330.0672405999994,332.0665586999985,332.0665586999985,332.0665586999985,332.0665586999985,332.051066,None,None,,,,,,,,,,,,,,,,,,,,,,,,6039,1,2025-06-02_15h54.30.652,sm,2024.2.4,59.92911584207269,2025-06-02 15h54.59.469445 +0200,
12,0,12,,,,,,space,1.9435627000002569,None,None,3,None,0.8073937999997725,0.27151299999968614,0,0,0,0,,,,,0,0,0,0,,,,,12,0,12,0,332.0665586999985,,,,,,,,,,,,,,,,,,,,,,,,,,,,,,,,,,,,,,,,,,,,,,,,,,,,,Teleskop,4.5959,332.0514955999988,332.05207509999855,332.0521745999995,332.0665586999985,336.6662075999993,336.65067159999853,336.6543654999987,336.6662075999993,336.6662075999993,336.6662075999993,336.6662075999993,338.66627009999866,338.66627009999866,338.66627009999866,338.66627009999866,338.65060429999903,3,None,0.8073937999997725,0.27151299999968614,,,,,,,,,,,,,,,,,,,,,,6039,1,2025-06-02_15h54.30.652,sm,2024.2.4,59.92911584207269,2025-06-02 15h54.59.469445 +0200,
13,0,13,,,,,,space,1.9435627000002569,None,None,2,None,1.177011499999935,0.21306860000004235,0,0,0,0,,,,,0,0,0,0,,,,,13,0,13,0,338.66627009999866,,,,,,,,,,,,,,,,,,,,,,,,,,,,,,,,,,,,,,,,,,,,,,,,,,,,,Wissen,2.5169,338.6510927999989,338.65160560000004,338.6517081999991,338.66627009999866,341.183014799999,341.16678630000024,341.16992690000006,341.183014799999,341.183014799999,341.183014799999,341.183014799999,343.18320929999936,343.18320929999936,343.18320929999936,343.18320929999936,343.16700929999934,2,None,1.177011499999935,0.21306860000004235,,,,,,,,,,,,,,,,,,,,,,6039,1,2025-06-02_15h54.30.652,sm,2024.2.4,59.92911584207269,2025-06-02 15h54.59.469445 +0200,
14,0,14,,,,,,space,1.9435627000002569,None,None,2,None,0.9107053000006999,0.26267919999918377,0,0,0,0,,,,,0,0,0,0,,,,,14,0,14,0,343.18320929999936,,,,,,,,,,,,,,,,,,,,,,,,,,,,,,,,,,,,,,,,,,,,,,,,,,,,,Alligator,2.2385,343.1675099999993,343.168152799999,343.1682564999992,343.18320929999936,345.4324969999998,345.4166336999988,345.42114219999894,345.4324969999998,345.4324969999998,345.4324969999998,345.4324969999998,347.4329352999994,347.4329352999994,347.4329352999994,347.4329352999994,347.416999699999,2,None,0.9107053000006999,0.26267919999918377,,,,,,,,,,,,,,,,,,,,,,6039,1,2025-06-02_15h54.30.652,sm,2024.2.4,59.92911584207269,2025-06-02 15h54.59.469445 +0200,
15,0,15,,,,,,space,1.9435627000002569,None,None,3,None,1.2055740999985574,0.28019980000135547,0,0,0,0,,,,,0,0,0,0,,,,,15,0,15,0,347.4329352999994,,,,,,,,,,,,,,,,,,,,,,,,,,,,,,,,,,,,,,,,,,,,,,,,,,,,,Bildung,3.2825,347.4175011999996,347.41800729999886,347.41811039999993,347.4329352999994,350.7154157999994,350.6996349000001,350.70296079999935,350.7154157999994,350.7154157999994,350.7154157999994,350.7154157999994,352.71562839999933,352.71562839999933,352.71562839999933,352.71562839999933,352.6998730999985,3,None,1.2055740999985574,0.28019980000135547,,,,,,,,,,,,,,,,,,,,,,6039,1,2025-06-02_15h54.30.652,sm,2024.2.4,59.92911584207269,2025-06-02 15h54.59.469445 +0200,
16,0,16,,,,,,space,1.9435627000002569,None,None,2,None,1.067639599999893,0.247964399999546,0,0,0,0,,,,,0,0,0,0,,,,,16,0,16,0,352.71562839999933,,,,,,,,,,,,,,,,,,,,,,,,,,,,,,,,,,,,,,,,,,,,,,,,,,,,,Erde,2.7378,352.70037109999976,352.7008836999994,352.700987799999,352.71562839999933,355.46536359999845,355.4495769999994,355.4530202999995,355.46536359999845,355.46536359999845,355.46536359999845,355.46536359999845,357.46536059999926,357.46536059999926,357.46536059999926,357.46536059999926,357.4498575999987,2,None,1.067639599999893,0.247964399999546,,,,,,,,,,,,,,,,,,,,,,6039,1,2025-06-02_15h54.30.652,sm,2024.2.4,59.92911584207269,2025-06-02 15h54.59.469445 +0200,
17,0,17,,,,,,space,1.9435627000002569,None,None,3,None,1.307222699999329,0.23800610000034794,0,0,0,0,,,,,0,0,0,0,,,,,17,0,17,0,357.46536059999926,,,,,,,,,,,,,,,,,,,,,,,,,,,,,,,,,,,,,,,,,,,,,,,,,,,,,Gruppe,2.2074,357.45035219999954,357.45092079999995,357.45102339999903,357.46536059999926,359.6817228,359.6661531999998,359.66980499999954,359.6817228,359.6817228,359.6817228,359.6817228,361.6821745999987,361.6821745999987,361.6821745999987,361.6821745999987,361.66597079999883,3,None,1.307222699999329,0.23800610000034794,,,,,,,,,,,,,,,,,,,,,,6039,1,2025-06-02_15h54.30.652,sm,2024.2.4,59.92911584207269,2025-06-02 15h54.59.469445 +0200,
18,0,18,,,,,,space,1.9435627000002569,None,None,3,None,0.8345286000003398,0.3001931999988301,0,0,0,0,,,,,0,0,0,0,,,,,18,0,18,0,361.6821745999987,,,,,,,,,,,,,,,,,,,,,,,,,,,,,,,,,,,,,,,,,,,,,,,,,,,,,Anhänger,4.7208,361.66645999999855,361.66696649999903,361.6670701999992,361.6821745999987,366.4148358000002,366.3989118999998,366.40294509999876,366.4148358000002,366.4148358000002,366.4148358000002,366.4148358000002,368.41452949999984,368.41452949999984,368.41452949999984,368.41452949999984,368.39890659999946,3,None,0.8345286000003398,0.3001931999988301,,,,,,,,,,,,,,,,,,,,,,6039,1,2025-06-02_15h54.30.652,sm,2024.2.4,59.92911584207269,2025-06-02 15h54.59.469445 +0200,
19,0,19,,,,,,space,1.9435627000002569,None,None,2,None,0.7758217999999033,0.28886190000048373,0,0,0,0,,,,,0,0,0,0,,,,,19,0,19,0,368.41452949999984,,,,,,,,,,,,,,,,,,,,,,,,,,,,,,,,,,,,,,,,,,,,,,,,,,,,,Student,4.5524,368.3993460999991,368.39996470000006,368.4000546999996,368.41452949999984,372.9814669999996,372.96536129999913,372.9691604999989,372.9814669999996,372.9814669999996,372.9814669999996,372.9814669999996,374.98097309999866,374.98097309999866,374.98097309999866,374.98097309999866,374.9652858999998,2,None,0.7758217999999033,0.28886190000048373,,,,,,,,,,,,,,,,,,,,,,6039,1,2025-06-02_15h54.30.652,sm,2024.2.4,59.92911584207269,2025-06-02 15h54.59.469445 +0200,
20,0,20,,,,,,space,1.9435627000002569,None,None,3,None,1.2642152999997052,None,0,0,0,0,,,,,0,0,0,0,,,,,20,0,20,0,374.98097309999866,,,,,,,,,,,,,,,,,,,,,,,,,,,,,,,,,,,,,,,,,,,,,,,,,,,,,Konzert,2.0031,374.9657817999996,374.9664213999986,374.96652619999986,374.98097309999866,376.99726389999887,376.98165079999853,376.98563139999897,376.99726389999887,376.99726389999887,376.99726389999887,376.99726389999887,378.9972127000001,378.9972127000001,378.9972127000001,378.9972127000001,378.98197249999976,3,None,1.2642152999997052,None,,,,,,,,,,,,,,,,,,,,,,6039,1,2025-06-02_15h54.30.652,sm,2024.2.4,59.92911584207269,2025-06-02 15h54.59.469445 +0200,
21,0,21,,,,,,space,1.9435627000002569,None,None,2,None,0.754089500000191,0.2780313999992359,0,0,0,0,,,,,0,0,0,0,,,,,21,0,21,0,378.9972127000001,,,,,,,,,,,,,,,,,,,,,,,,,,,,,,,,,,,,,,,,,,,,,,,,,,,,,Luft,2.5377,378.98246909999943,378.9830167,378.98312429999896,378.9972127000001,381.5469979999998,381.5319854999998,381.53636910000023,381.5469979999998,381.5469979999998,381.5469979999998,381.5469979999998,383.5470733000002,383.5470733000002,383.5470733000002,383.5470733000002,383.53168129999904,2,None,0.754089500000191,0.2780313999992359,,,,,,,,,,,,,,,,,,,,,,6039,1,2025-06-02_15h54.30.652,sm,2024.2.4,59.92911584207269,2025-06-02 15h54.59.469445 +0200,
22,0,22,,,,,,space,1.9435627000002569,None,None,None,None,,,0,0,0,0,,,,,0,0,0,0,,,,,22,0,22,0,383.5470733000002,,,,,,,,,,,,,,,,,,,,,,,,,,,,,,,,,,,,,,,,,,,,,,,,,,,,,Sack,4.0852,383.53207519999887,383.5328531999985,383.5329353999987,383.5470733000002,387.6467705999985,387.6314291999988,387.63478380000015,387.6467705999985,387.6467705999985,387.6467705999985,387.6467705999985,389.64674509999895,389.64674509999895,389.64674509999895,389.64674509999895,389.6309791999993,None,None,,,,,,,,,,,,,,,,,,,,,,,,6039,1,2025-06-02_15h54.30.652,sm,2024.2.4,59.92911584207269,2025-06-02 15h54.59.469445 +0200,
23,0,23,,,,,,space,1.9435627000002569,None,None,2,None,1.3777760000011767,0.28970959999969637,0,0,0,0,,,,,0,0,0,0,,,,,23,0,23,0,389.64674509999895,,,,,,,,,,,,,,,,,,,,,,,,,,,,,,,,,,,,,,,,,,,,,,,,,,,,,Nebel,2.3362,389.63144139999895,389.631935899999,389.6320412999994,389.64674509999895,391.9966862000001,391.98106989999906,391.9852605999986,391.9966862000001,391.9966862000001,391.9966862000001,391.9966862000001,393.99650269999984,393.99650269999984,393.99650269999984,393.99650269999984,393.9810789999992,2,None,1.3777760000011767,0.28970959999969637,,,,,,,,,,,,,,,,,,,,,,6039,1,2025-06-02_15h54.30.652,sm,2024.2.4,59.92911584207269,2025-06-02 15h54.59.469445 +0200,
24,0,24,,,,,,space,1.9435627000002569,None,None,3,None,0.7999909999998636,0.2513141999988875,0,0,0,0,,,,,0,0,0,0,,,,,24,0,24,0,393.99650269999984,,,,,,,,,,,,,,,,,,,,,,,,,,,,,,,,,,,,,,,,,,,,,,,,,,,,,Schnürsenkel,2.5519,393.9815792999998,393.9820983999998,393.9822024999994,393.99650269999984,396.56292570000005,396.5471086999987,396.5507598999993,396.56292570000005,396.56292570000005,396.56292570000005,396.56292570000005,398.56311019999885,398.56311019999885,398.56311019999885,398.56311019999885,398.5475936999992,3,None,0.7999909999998636,0.2513141999988875,,,,,,,,,,,,,,,,,,,,,,6039,1,2025-06-02_15h54.30.652,sm,2024.2.4,59.92911584207269,2025-06-02 15h54.59.469445 +0200,
25,0,25,,,,,,space,1.9435627000002569,None,None,3,None,0.8691727000004903,0.23641200000020035,0,0,0,0,,,,,0,0,0,0,,,,,25,0,25,0,398.56311019999885,,,,,,,,,,,,,,,,,,,,,,,,,,,,,,,,,,,,,,,,,,,,,,,,,,,,,Golf,2.3861,398.5481232000002,398.5487882999987,398.54893919999995,398.56311019999885,400.9626042,400.9470592999987,400.9504244,400.9626042,400.9626042,400.9626042,400.9626042,402.9626896999998,402.9626896999998,402.9626896999998,402.9626896999998,402.9465779000002,3,None,0.8691727000004903,0.23641200000020035,,,,,,,,,,,,,,,,,,,,,,6039,1,2025-06-02_15h54.30.652,sm,2024.2.4,59.92911584207269,2025-06-02 15h54.59.469445 +0200,
26,0,26,,,,,,space,1.9435627000002569,None,None,2,None,0.8086134999994101,0.2348029000004317,0,0,0,0,,,,,0,0,0,0,,,,,26,0,26,0,402.9626896999998,,,,,,,,,,,,,,,,,,,,,,,,,,,,,,,,,,,,,,,,,,,,,,,,,,,,,Gras,2.83,402.9469149999986,402.9473343999998,402.94740379999894,402.9626896999998,405.79574559999855,405.7802346999997,405.78386839999985,405.79574559999855,405.79574559999855,405.79574559999855,405.79574559999855,407.7956925999988,407.7956925999988,407.7956925999988,407.7956925999988,407.77980359999856,2,None,0.8086134999994101,0.2348029000004317,,,,,,,,,,,,,,,,,,,,,,6039,1,2025-06-02_15h54.30.652,sm,2024.2.4,59.92911584207269,2025-06-02 15h54.59.469445 +0200,
27,0,27,,,,,,space,1.9435627000002569,None,None,3,None,1.069420199999513,0.25535990000025777,0,0,0,0,,,,,0,0,0,0,,,,,27,0,27,0,407.7956925999988,,,,,,,,,,,,,,,,,,,,,,,,,,,,,,,,,,,,,,,,,,,,,,,,,,,,,Schnee,2.9443,407.7802369000001,407.78071139999884,407.78080809999847,407.7956925999988,410.7455011000002,410.72984729999916,410.73386819999905,410.7455011000002,410.7455011000002,410.7455011000002,410.7455011000002,412.7454609999986,412.7454609999986,412.7454609999986,412.7454609999986,412.7296967000002,3,None,1.069420199999513,0.25535990000025777,,,,,,,,,,,,,,,,,,,,,,6039,1,2025-06-02_15h54.30.652,sm,2024.2.4,59.92911584207269,2025-06-02 15h54.59.469445 +0200,
28,0,28,,,,,,space,1.9435627000002569,None,None,2,None,1.9184643999997206,None,0,0,0,0,,,,,0,0,0,0,,,,,28,0,28,0,412.7454609999986,,,,,,,,,,,,,,,,,,,,,,,,,,,,,,,,,,,,,,,,,,,,,,,,,,,,,Kopf,2.1961,412.7301332999996,412.7307433999995,412.7308362999993,412.7454609999986,414.9453668999995,414.9294242999986,414.9332323999988,414.9453668999995,414.9453668999995,414.9453668999995,414.9453668999995,416.9455487999985,416.9455487999985,416.9455487999985,416.9455487999985,416.92966309999974,2,None,1.9184643999997206,None,,,,,,,,,,,,,,,,,,,,,,6039,1,2025-06-02_15h54.30.652,sm,2024.2.4,59.92911584207269,2025-06-02 15h54.59.469445 +0200,
29,0,29,,,,,,space,1.9435627000002569,None,None,3,None,0.7439216000002489,0.29886809999879915,0,0,0,0,,,,,0,0,0,0,,,,,29,0,29,0,416.9455487999985,,,,,,,,,,,,,,,,,,,,,,,,,,,,,,,,,,,,,,,,,,,,,,,,,,,,,Tasse,2.9061,416.93015639999976,416.93071079999936,416.93081429999984,416.9455487999985,419.86168759999964,419.8459591999999,419.84943419999945,419.86168759999964,419.86168759999964,419.86168759999964,419.86168759999964,421.86164029999964,421.86164029999964,421.86164029999964,421.86164029999964,421.8459753999996,3,None,0.7439216000002489,0.29886809999879915,,,,,,,,,,,,,,,,,,,,,,6039,1,2025-06-02_15h54.30.652,sm,2024.2.4,59.92911584207269,2025-06-02 15h54.59.469445 +0200,
30,0,30,,,,,,space,1.9435627000002569,None,None,3,None,0.7163548000007722,0.2935053000001062,0,0,0,0,,,,,0,0,0,0,,,,,30,0,30,0,421.86164029999964,,,,,,,,,,,,,,,,,,,,,,,,,,,,,,,,,,,,,,,,,,,,,,,,,,,,,Brille,3.6005,421.84647219999897,421.8469777999999,421.84708209999917,421.86164029999964,425.46118620000016,425.4461219999994,425.44986269999936,425.46118620000016,425.46118620000016,425.46118620000016,425.46118620000016,427.4614413999989,427.4614413999989,427.4614413999989,427.4614413999989,427.4454881999991,3,None,0.7163548000007722,0.2935053000001062,,,,,,,,,,,,,,,,,,,,,,6039,1,2025-06-02_15h54.30.652,sm,2024.2.4,59.92911584207269,2025-06-02 15h54.59.469445 +0200,
31,0,31,,,,,,space,1.9435627000002569,None,None,3,None,0.546677099999215,0.2782591000013781,0,0,0,0,,,,,0,0,0,0,,,,,31,0,31,0,427.4614413999989,,,,,,,,,,,,,,,,,,,,,,,,,,,,,,,,,,,,,,,,,,,,,,,,,,,,,Bett,2.2129,427.4459637,427.4464681999998,427.4465720999997,427.4614413999989,429.6777358999989,429.66170950000014,429.66436389999944,429.6777358999989,429.6777358999989,429.6777358999989,429.6777358999989,431.6781882999985,431.6781882999985,431.6781882999985,431.6781882999985,431.66208670000015,3,None,0.546677099999215,0.2782591000013781,,,,,,,,,,,,,,,,,,,,,,6039,1,2025-06-02_15h54.30.652,sm,2024.2.4,59.92911584207269,2025-06-02 15h54.59.469445 +0200,
32,0,32,,,,,,space,1.9435627000002569,None,None,3,None,1.0955069999999978,0.29220749999876716,0,0,0,0,,,,,0,0,0,0,,,,,32,0,32,0,431.6781882999985,,,,,,,,,,,,,,,,,,,,,,,,,,,,,,,,,,,,,,,,,,,,,,,,,,,,,Käse,2.3916,431.6625826999989,431.66309739999997,431.66320259999884,431.6781882999985,434.07757129999845,434.061721099999,434.0651523999986,434.07757129999845,434.07757129999845,434.07757129999845,434.07757129999845,436.07740980000017,436.07740980000017,436.07740980000017,436.07740980000017,436.0618214999995,3,None,1.0955069999999978,0.29220749999876716,,,,,,,,,,,,,,,,,,,,,,6039,1,2025-06-02_15h54.30.652,sm,2024.2.4,59.92911584207269,2025-06-02 15h54.59.469445 +0200,
33,0,33,,,,,,space,1.9435627000002569,None,None,3,None,0.9120374999984051,0.2818475000003673,0,0,0,0,,,,,0,0,0,0,,,,,33,0,33,0,436.07740980000017,,,,,,,,,,,,,,,,,,,,,,,,,,,,,,,,,,,,,,,,,,,,,,,,,,,,,Feld,5.1698,436.0623126999999,436.0628474999994,436.06295169999976,436.07740980000017,441.2602901999999,441.2447529000001,441.2502793999993,441.2602901999999,441.2602901999999,441.2602901999999,441.2602901999999,443.26025539999864,443.26025539999864,443.26025539999864,443.26025539999864,443.2448306999995,3,None,0.9120374999984051,0.2818475000003673,,,,,,,,,,,,,,,,,,,,,,6039,1,2025-06-02_15h54.30.652,sm,2024.2.4,59.92911584207269,2025-06-02 15h54.59.469445 +0200,
34,0,34,,,,,,space,1.9435627000002569,None,None,3,None,1.3426013000007515,0.2490007999986119,0,0,0,0,,,,,0,0,0,0,,,,,34,0,34,0,443.26025539999864,,,,,,,,,,,,,,,,,,,,,,,,,,,,,,,,,,,,,,,,,,,,,,,,,,,,,Klippe,3.1264,443.2453263999996,443.2459687999999,443.24607209999886,443.26025539999864,446.39351629999874,446.3783165999994,446.3831924999995,446.39351629999874,446.39351629999874,446.39351629999874,446.39351629999874,448.3940136000001,448.3940136000001,448.3940136000001,448.3940136000001,448.3779982999986,3,None,1.3426013000007515,0.2490007999986119,,,,,,,,,,,,,,,,,,,,,,6039,1,2025-06-02_15h54.30.652,sm,2024.2.4,59.92911584207269,2025-06-02 15h54.59.469445 +0200,
35,0,35,,,,,,space,1.9435627000002569,None,None,3,None,1.1850754999995843,0.2514136000008875,0,0,0,0,,,,,0,0,0,0,,,,,35,0,35,0,448.3940136000001,,,,,,,,,,,,,,,,,,,,,,,,,,,,,,,,,,,,,,,,,,,,,,,,,,,,,Gel,4.4429,448.3785005999998,448.37901339999917,448.3791179,448.3940136000001,452.8433365000001,452.8283776999997,452.83202829999937,452.8433365000001,452.8433365000001,452.8433365000001,452.8433365000001,454.84308939999937,454.84308939999937,454.84308939999937,454.84308939999937,454.8275329999997,3,None,1.1850754999995843,0.2514136000008875,,,,,,,,,,,,,,,,,,,,,,6039,1,2025-06-02_15h54.30.652,sm,2024.2.4,59.92911584207269,2025-06-02 15h54.59.469445 +0200,
36,0,36,,,,,,space,1.9435627000002569,None,None,2,None,1.5146096999997098,0.22863870000037423,0,0,0,0,,,,,0,0,0,0,,,,,36,0,36,0,454.84308939999937,,,,,,,,,,,,,,,,,,,,,,,,,,,,,,,,,,,,,,,,,,,,,,,,,,,,,Vergangenheit,2.9645,454.8280373999987,454.82857049999984,454.8286747000002,454.84308939999937,457.80934100000013,457.7938118999991,457.79798329999903,457.80934100000013,457.80934100000013,457.80934100000013,457.80934100000013,459.80936719999954,459.80936719999954,459.80936719999954,459.80936719999954,459.7939133999989,2,None,1.5146096999997098,0.22863870000037423,,,,,,,,,,,,,,,,,,,,,,6039,1,2025-06-02_15h54.30.652,sm,2024.2.4,59.92911584207269,2025-06-02 15h54.59.469445 +0200,
37,0,37,,,,,,space,1.9435627000002569,None,None,None,None,,,0,0,0,0,,,,,0,0,0,0,,,,,37,0,37,0,459.80936719999954,,,,,,,,,,,,,,,,,,,,,,,,,,,,,,,,,,,,,,,,,,,,,,,,,,,,,Beugen,2.1743,459.7944118999985,459.794926999999,459.79503179999847,459.80936719999954,461.99266999999963,461.97709419999956,461.9810112999985,461.99266999999963,461.99266999999963,461.99266999999963,461.99266999999963,463.99253299999873,463.99253299999873,463.99253299999873,463.99253299999873,463.9768523999992,None,None,,,,,,,,,,,,,,,,,,,,,,,,6039,1,2025-06-02_15h54.30.652,sm,2024.2.4,59.92911584207269,2025-06-02 15h54.59.469445 +0200,
38,0,38,,,,,,space,1.9435627000002569,None,None,2,None,1.0748144999997749,0.22338130000025558,0,0,0,0,,,,,0,0,0,0,,,,,38,0,38,0,463.99253299999873,,,,,,,,,,,,,,,,,,,,,,,,,,,,,,,,,,,,,,,,,,,,,,,,,,,,,Eule,3.0127,463.9773166999985,463.97782349999943,463.9779287000001,463.99253299999873,467.00914889999876,466.9930896999995,466.9958740999991,467.00914889999876,467.00914889999876,467.00914889999876,467.00914889999876,469.00878829999965,469.00878829999965,469.00878829999965,469.00878829999965,468.99356909999915,2,None,1.0748144999997749,0.22338130000025558,,,,,,,,,,,,,,,,,,,,,,6039,1,2025-06-02_15h54.30.652,sm,2024.2.4,59.92911584207269,2025-06-02 15h54.59.469445 +0200,
39,0,39,,,,,,space,1.9435627000002569,None,None,2,None,1.3112013999998453,0.5200613999986672,0,0,0,0,,,,,0,0,0,0,,,,,39,0,39,0,469.00878829999965,,,,,,,,,,,,,,,,,,,,,,,,,,,,,,,,,,,,,,,,,,,,,,,,,,,,,Riechen,2.3229,468.9940740999991,468.994781899999,468.9948953999992,469.00878829999965,471.34201739999844,471.32638020000013,471.3306956999986,471.34201739999844,471.34201739999844,471.34201739999844,471.34201739999844,473.34226149999995,473.34226149999995,473.34226149999995,473.34226149999995,473.32639649999874,2,None,1.3112013999998453,0.5200613999986672,,,,,,,,,,,,,,,,,,,,,,6039,1,2025-06-02_15h54.30.652,sm,2024.2.4,59.92911584207269,2025-06-02 15h54.59.469445 +0200,
40,0,40,,,,,,space,1.9435627000002569,None,None,2,None,1.110308299999815,0.2150203999990481,0,0,0,0,,,,,0,0,0,0,,,,,40,0,40,0,473.34226149999995,,,,,,,,,,,,,,,,,,,,,,,,,,,,,,,,,,,,,,,,,,,,,,,,,,,,,Spion,2.8901,473.3268131999994,473.3273543999985,473.32744139999886,473.34226149999995,476.24194549999993,476.22608949999994,476.22981939999954,476.24194549999993,476.24194549999993,476.24194549999993,476.24194549999993,478.2418480999986,478.2418480999986,478.2418480999986,478.2418480999986,478.2261612000002,2,None,1.110308299999815,0.2150203999990481,,,,,,,,,,,,,,,,,,,,,,6039,1,2025-06-02_15h54.30.652,sm,2024.2.4,59.92911584207269,2025-06-02 15h54.59.469445 +0200,
41,0,41,,,,,,space,1.9435627000002569,None,None,3,None,1.335802199999307,0.26389780000135943,0,0,0,0,,,,,0,0,0,0,,,,,41,0,41,0,478.2418480999986,,,,,,,,,,,,,,,,,,,,,,,,,,,,,,,,,,,,,,,,,,,,,,,,,,,,,Kuchen ,4.3424,478.2266523999988,478.2273981999988,478.22750259999884,478.2418480999986,482.5914589999993,482.57589670000016,482.58074579999993,482.5914589999993,482.5914589999993,482.5914589999993,482.5914589999993,484.5914623999997,484.5914623999997,484.5914623999997,484.5914623999997,484.5758765999999,3,None,1.335802199999307,0.26389780000135943,,,,,,,,,,,,,,,,,,,,,,6039,1,2025-06-02_15h54.30.652,sm,2024.2.4,59.92911584207269,2025-06-02 15h54.59.469445 +0200,
42,0,42,,,,,,space,1.9435627000002569,None,None,None,None,,,0,0,0,0,,,,,0,0,0,0,,,,,42,0,42,0,484.5914623999997,,,,,,,,,,,,,,,,,,,,,,,,,,,,,,,,,,,,,,,,,,,,,,,,,,,,,Album,2.9832,484.5763718999988,484.576977499999,484.57708490000005,484.5914623999997,487.574561899999,487.5591826,487.5631414999989,487.574561899999,487.574561899999,487.574561899999,487.574561899999,489.57434659999853,489.57434659999853,489.57434659999853,489.57434659999853,489.55869509999866,None,None,,,,,,,,,,,,,,,,,,,,,,,,6039,1,2025-06-02_15h54.30.652,sm,2024.2.4,59.92911584207269,2025-06-02 15h54.59.469445 +0200,
43,0,43,,,,,,space,1.9435627000002569,None,None,3,None,1.534384599999612,0.3022850000015751,0,0,0,0,,,,,0,0,0,0,,,,,43,0,43,0,489.57434659999853,,,,,,,,,,,,,,,,,,,,,,,,,,,,,,,,,,,,,,,,,,,,,,,,,,,,,Geschäft,2.1413,489.5591637999987,489.55966199999966,489.5597689999995,489.57434659999853,491.7248811999998,491.70872450000024,491.71320000000014,491.7248811999998,491.7248811999998,491.7248811999998,491.7248811999998,493.72456950000014,493.72456950000014,493.72456950000014,493.72456950000014,493.70879779999996,3,None,1.534384599999612,0.3022850000015751,,,,,,,,,,,,,,,,,,,,,,6039,1,2025-06-02_15h54.30.652,sm,2024.2.4,59.92911584207269,2025-06-02 15h54.59.469445 +0200,
44,0,44,,,,,,space,1.9435627000002569,None,None,3,None,1.534619300000486,0.31438770000022487,0,0,0,0,,,,,0,0,0,0,,,,,44,0,44,0,493.72456950000014,,,,,,,,,,,,,,,,,,,,,,,,,,,,,,,,,,,,,,,,,,,,,,,,,,,,,Mund,2.4137,493.7092963999985,493.7099453999999,493.71004919999905,493.72456950000014,496.1405795999999,496.1251407,496.12883150000016,496.1405795999999,496.1405795999999,496.1405795999999,496.1405795999999,498.1407647999986,498.1407647999986,498.1407647999986,498.1407647999986,498.12512249999963,3,None,1.534619300000486,0.31438770000022487,,,,,,,,,,,,,,,,,,,,,,6039,1,2025-06-02_15h54.30.652,sm,2024.2.4,59.92911584207269,2025-06-02 15h54.59.469445 +0200,
45,0,45,,,,,,space,1.9435627000002569,None,None,3,None,0.8884697000012238,0.3276390999999421,0,0,0,0,,,,,0,0,0,0,,,,,45,0,45,0,498.1407647999986,,,,,,,,,,,,,,,,,,,,,,,,,,,,,,,,,,,,,,,,,,,,,,,,,,,,,Pizza,2.0934,498.12556289999884,498.12615969999933,498.1262560999985,498.1407647999986,500.2404740000002,500.22463739999876,500.2303135000002,500.2404740000002,500.2404740000002,500.2404740000002,500.2404740000002,502.24037419999877,502.24037419999877,502.24037419999877,502.24037419999877,502.224704799999,3,None,0.8884697000012238,0.3276390999999421,,,,,,,,,,,,,,,,,,,,,,6039,1,2025-06-02_15h54.30.652,sm,2024.2.4,59.92911584207269,2025-06-02 15h54.59.469445 +0200,
46,0,46,,,,,,space,1.9435627000002569,None,None,2,None,1.016020999999455,0.22759159999986878,0,0,0,0,,,,,0,0,0,0,,,,,46,0,46,0,502.24037419999877,,,,,,,,,,,,,,,,,,,,,,,,,,,,,,,,,,,,,,,,,,,,,,,,,,,,,Besucher,3.2059,502.22520799999984,502.2257153999999,502.225821,502.24037419999877,505.4569359999987,505.44143350000013,505.44565150000017,505.4569359999987,505.4569359999987,505.4569359999987,505.4569359999987,507.45670639999844,507.45670639999844,507.45670639999844,507.45670639999844,507.4412567999989,2,None,1.016020999999455,0.22759159999986878,,,,,,,,,,,,,,,,,,,,,,6039,1,2025-06-02_15h54.30.652,sm,2024.2.4,59.92911584207269,2025-06-02 15h54.59.469445 +0200,
47,0,47,,,,,,space,1.9435627000002569,None,None,2,None,1.5091197000001557,0.2063175000002957,0,0,0,0,,,,,0,0,0,0,,,,,47,0,47,0,507.45670639999844,,,,,,,,,,,,,,,,,,,,,,,,,,,,,,,,,,,,,,,,,,,,,,,,,,,,,Finger,2.1697,507.441753699999,507.44225599999845,507.44235800000024,507.45670639999844,509.6399253999989,509.62421919999906,509.6291893999987,509.6399253999989,509.6399253999989,509.6399253999989,509.6399253999989,511.63987540000016,511.63987540000016,511.63987540000016,511.63987540000016,511.62414309999986,2,None,1.5091197000001557,0.2063175000002957,,,,,,,,,,,,,,,,,,,,,,6039,1,2025-06-02_15h54.30.652,sm,2024.2.4,59.92911584207269,2025-06-02 15h54.59.469445 +0200,
48,0,48,,,,,,space,1.9435627000002569,None,None,3,None,1.4191057000007277,0.21848149999823363,0,0,0,0,,,,,0,0,0,0,,,,,48,0,48,0,511.63987540000016,,,,,,,,,,,,,,,,,,,,,,,,,,,,,,,,,,,,,,,,,,,,,,,,,,,,,Ei,2.9109,511.62460529999953,511.62511339999946,511.6252121999987,511.63987540000016,514.5563788999989,514.5406499000001,514.5440196,514.5563788999989,514.5563788999989,514.5563788999989,514.5563788999989,516.5563934000002,516.5563934000002,516.5563934000002,516.5563934000002,516.5411979,3,None,1.4191057000007277,0.21848149999823363,,,,,,,,,,,,,,,,,,,,,,6039,1,2025-06-02_15h54.30.652,sm,2024.2.4,59.92911584207269,2025-06-02 15h54.59.469445 +0200,
49,0,49,,,,,,space,1.9435627000002569,None,None,2,None,1.1942553999997472,0.18793970000115223,0,0,0,0,,,,,0,0,0,0,,,,,49,0,49,0,516.5563934000002,,,,,,,,,,,,,,,,,,,,,,,,,,,,,,,,,,,,,,,,,,,,,,,,,,,,,Baum,3.9589,516.5416931,516.5422053000002,516.5423104000001,516.5563934000002,520.5227641999991,520.5068520999994,520.5099202000001,520.5227641999991,520.5227641999991,520.5227641999991,520.5227641999991,522.522533899999,522.522533899999,522.522533899999,522.522533899999,522.5068439999995,2,None,1.1942553999997472,0.18793970000115223,,,,,,,,,,,,,,,,,,,,,,6039,1,2025-06-02_15h54.30.652,sm,2024.2.4,59.92911584207269,2025-06-02 15h54.59.469445 +0200,
50,0,50,,,,,,space,1.9435627000002569,None,None,2,None,0.848149999999805,0.22830890000113868,0,0,0,0,,,,,0,0,0,0,,,,,50,0,50,0,522.522533899999,,,,,,,,,,,,,,,,,,,,,,,,,,,,,,,,,,,,,,,,,,,,,,,,,,,,,Akrobatin,2.3599,522.5073361999985,522.5079805999994,522.5080836999987,522.522533899999,524.8888095999991,524.8733582999994,524.8770250999987,524.8888095999991,524.8888095999991,524.8888095999991,524.8888095999991,526.8889675999999,526.8889675999999,526.8889675999999,526.8889675999999,526.8735768999995,2,None,0.848149999999805,0.22830890000113868,,,,,,,,,,,,,,,,,,,,,,6039,1,2025-06-02_15h54.30.652,sm,2024.2.4,59.92911584207269,2025-06-02 15h54.59.469445 +0200,
51,0,51,,,,,,space,1.9435627000002569,None,None,2,None,1.7751423999998224,None,0,0,0,0,,,,,0,0,0,0,,,,,51,0,51,0,526.8889675999999,,,,,,,,,,,,,,,,,,,,,,,,,,,,,,,,,,,,,,,,,,,,,,,,,,,,,Weinen,3.6297,526.8740827999991,526.874719899999,526.8748302999993,526.8889675999999,530.5221626999992,530.5064397999995,530.5106063999992,530.5221626999992,530.5221626999992,530.5221626999992,530.5221626999992,532.5220817999998,532.5220817999998,532.5220817999998,532.5220817999998,532.5062824999986,2,None,1.7751423999998224,None,,,,,,,,,,,,,,,,,,,,,,6039,1,2025-06-02_15h54.30.652,sm,2024.2.4,59.92911584207269,2025-06-02 15h54.59.469445 +0200,
52,0,52,,,,,,space,1.9435627000002569,None,None,2,None,0.8912186000015936,0.3025949999992008,0,0,0,0,,,,,0,0,0,0,,,,,52,0,52,0,532.5220817999998,,,,,,,,,,,,,,,,,,,,,,,,,,,,,,,,,,,,,,,,,,,,,,,,,,,,,Anwalt,2.1186,532.5066969999989,532.5072745999987,532.5073636999987,532.5220817999998,534.6549452999989,534.6392402999991,534.6427576999995,534.6549452999989,534.6549452999989,534.6549452999989,534.6549452999989,536.6551385999992,536.6551385999992,536.6551385999992,536.6551385999992,536.6400672,2,None,0.8912186000015936,0.3025949999992008,,,,,,,,,,,,,,,,,,,,,,6039,1,2025-06-02_15h54.30.652,sm,2024.2.4,59.92911584207269,2025-06-02 15h54.59.469445 +0200,
53,0,53,,,,,,space,1.9435627000002569,None,None,3,None,0.8229340999987471,0.5776982000006683,0,0,0,0,,,,,0,0,0,0,,,,,53,0,53,0,536.6551385999992,,,,,,,,,,,,,,,,,,,,,,,,,,,,,,,,,,,,,,,,,,,,,,,,,,,,,Gewürz,3.8592,536.6405613999996,536.6412043,536.6413096999986,536.6551385999992,540.5216230999995,540.5060464999988,540.5102883999989,540.5216230999995,540.5216230999995,540.5216230999995,540.5216230999995,542.5215520999991,542.5215520999991,542.5215520999991,542.5215520999991,542.5059180999997,3,None,0.8229340999987471,0.5776982000006683,,,,,,,,,,,,,,,,,,,,,,6039,1,2025-06-02_15h54.30.652,sm,2024.2.4,59.92911584207269,2025-06-02 15h54.59.469445 +0200,
54,0,54,,,,,,space,1.9435627000002569,None,None,3,None,1.2714836999984982,0.26030010000067705,0,0,0,0,,,,,0,0,0,0,,,,,54,0,54,0,542.5215520999991,,,,,,,,,,,,,,,,,,,,,,,,,,,,,,,,,,,,,,,,,,,,,,,,,,,,,Urlaub,5.3463,542.5064157999986,542.5069132999997,542.5070225,542.5215520999991,547.8708404999998,547.8554628000002,547.8622594999997,547.8708404999998,547.8708404999998,547.8708404999998,547.8708404999998,549.8713537999993,549.8713537999993,549.8713537999993,549.8713537999993,549.8554134999995,3,None,1.2714836999984982,0.26030010000067705,,,,,,,,,,,,,,,,,,,,,,6039,1,2025-06-02_15h54.30.652,sm,2024.2.4,59.92911584207269,2025-06-02 15h54.59.469445 +0200,
55,0,55,,,,,,space,1.9435627000002569,None,None,3,None,0.7715960999994422,0.2160598000009486,0,0,0,0,,,,,0,0,0,0,,,,,55,0,55,0,549.8713537999993,,,,,,,,,,,,,,,,,,,,,,,,,,,,,,,,,,,,,,,,,,,,,,,,,,,,,Monument,2.4167,549.8559086999994,549.8564159999987,549.8565191999987,549.8713537999993,552.287601,552.2718233999985,552.275302099999,552.287601,552.287601,552.287601,552.287601,554.287370099999,554.287370099999,554.287370099999,554.287370099999,554.2717152999994,3,None,0.7715960999994422,0.2160598000009486,,,,,,,,,,,,,,,,,,,,,,6039,1,2025-06-02_15h54.30.652,sm,2024.2.4,59.92911584207269,2025-06-02 15h54.59.469445 +0200,
56,0,56,,,,,,space,1.9435627000002569,None,None,3,None,0.724976899999092,0.2286894000008033,0,0,0,0,,,,,0,0,0,0,,,,,56,0,56,0,554.287370099999,,,,,,,,,,,,,,,,,,,,,,,,,,,,,,,,,,,,,,,,,,,,,,,,,,,,,Tisch,2.0842,554.2722138999998,554.2727295999994,554.2728342999999,554.287370099999,556.3702873999991,556.3549806999999,556.3587908999998,556.3702873999991,556.3702873999991,556.3702873999991,556.3702873999991,558.3705258999998,558.3705258999998,558.3705258999998,558.3705258999998,558.3550608999994,3,None,0.724976899999092,0.2286894000008033,,,,,,,,,,,,,,,,,,,,,,6039,1,2025-06-02_15h54.30.652,sm,2024.2.4,59.92911584207269,2025-06-02 15h54.59.469445 +0200,
57,0,57,,,,,,space,1.9435627000002569,None,None,3,None,0.7450439000003826,0.23912129999916942,0,0,0,0,,,,,0,0,0,0,,,,,57,0,57,0,558.3705258999998,,,,,,,,,,,,,,,,,,,,,,,,,,,,,,,,,,,,,,,,,,,,,,,,,,,,,Anruf,2.4521,558.3555533999988,558.3560794999994,558.3561816999991,558.3705258999998,560.8369438999998,560.8212485999993,560.8241266999994,560.8369438999998,560.8369438999998,560.8369438999998,560.8369438999998,562.8368227999999,562.8368227999999,562.8368227999999,562.8368227999999,562.8217327000002,3,None,0.7450439000003826,0.23912129999916942,,,,,,,,,,,,,,,,,,,,,,6039,1,2025-06-02_15h54.30.652,sm,2024.2.4,59.92911584207269,2025-06-02 15h54.59.469445 +0200,
58,0,58,,,,,,space,1.9435627000002569,None,None,2,None,1.1905698999999004,0.20450959999834595,0,0,0,0,,,,,0,0,0,0,,,,,58,0,58,0,562.8368227999999,,,,,,,,,,,,,,,,,,,,,,,,,,,,,,,,,,,,,,,,,,,,,,,,,,,,,Spaß,2.3843,562.8222296999993,562.8228842999997,562.8229879999999,562.8368227999999,565.2199303999987,565.2044891999994,565.2077188999992,565.2199303999987,565.2199303999987,565.2199303999987,565.2199303999987,567.2199747999985,567.2199747999985,567.2199747999985,567.2199747999985,567.2045933999998,2,None,1.1905698999999004,0.20450959999834595,,,,,,,,,,,,,,,,,,,,,,6039,1,2025-06-02_15h54.30.652,sm,2024.2.4,59.92911584207269,2025-06-02 15h54.59.469445 +0200,
59,0,59,,,,,,space,1.9435627000002569,None,None,2,None,0.7304284000001644,0.17619179999928747,0,0,0,0,,,,,0,0,0,0,,,,,59,0,59,0,567.2199747999985,,,,,,,,,,,,,,,,,,,,,,,,,,,,,,,,,,,,,,,,,,,,,,,,,,,,,Bruder,2.1831,567.2050944000002,567.2056094999989,567.2057131000001,567.2199747999985,569.4033139999992,569.3879062999986,569.3917648999995,569.4033139999992,569.4033139999992,569.4033139999992,569.4033139999992,571.4031796999989,571.4031796999989,571.4031796999989,571.4031796999989,571.3875552999998,2,None,0.7304284000001644,0.17619179999928747,,,,,,,,,,,,,,,,,,,,,,6039,1,2025-06-02_15h54.30.652,sm,2024.2.4,59.92911584207269,2025-06-02 15h54.59.469445 +0200,
60,0,60,,,,,,space,1.9435627000002569,None,None,3,None,0.7243885999996564,0.21942719999969995,0,0,0,0,,,,,0,0,0,0,,,,,60,0,60,0,571.4031796999989,,,,,,,,,,,,,,,,,,,,,,,,,,,,,,,,,,,,,,,,,,,,,,,,,,,,,Krone,3.6615,571.3880474999987,571.388748899999,571.3888560999985,571.4031796999989,575.0694648999997,575.0537995999985,575.0576227000001,575.0694648999997,575.0694648999997,575.0694648999997,575.0694648999997,577.0692514000002,577.0692514000002,577.0692514000002,577.0692514000002,577.0536983999991,3,None,0.7243885999996564,0.21942719999969995,,,,,,,,,,,,,,,,,,,,,,6039,1,2025-06-02_15h54.30.652,sm,2024.2.4,59.92911584207269,2025-06-02 15h54.59.469445 +0200,
61,0,61,,,,,,space,1.9435627000002569,None,None,3,None,1.3240759000000253,0.28010249999897496,0,0,0,0,,,,,0,0,0,0,,,,,61,0,61,0,577.0692514000002,,,,,,,,,,,,,,,,,,,,,,,,,,,,,,,,,,,,,,,,,,,,,,,,,,,,,Hose,2.5982,577.0540911999997,577.0545489999986,577.0546386999995,577.0692514000002,579.6697700999994,579.6538999999993,579.6625967999989,579.6697700999994,579.6697700999994,579.6697700999994,579.6697700999994,581.6693421999989,581.6693421999989,581.6693421999989,581.6693421999989,581.6535463,3,None,1.3240759000000253,0.28010249999897496,,,,,,,,,,,,,,,,,,,,,,6039,1,2025-06-02_15h54.30.652,sm,2024.2.4,59.92911584207269,2025-06-02 15h54.59.469445 +0200,
62,0,62,,,,,,space,1.9435627000002569,None,None,3,None,1.6483308000006218,0.2603127999991557,0,0,0,0,,,,,0,0,0,0,,,,,62,0,62,0,581.6693421999989,,,,,,,,,,,,,,,,,,,,,,,,,,,,,,,,,,,,,,,,,,,,,,,,,,,,,Krieg,2.6446,581.6540089999999,581.6545559999995,581.6546581999992,581.6693421999989,584.3187738999986,584.3032398999985,584.3066750999988,584.3187738999986,584.3187738999986,584.3187738999986,584.3187738999986,586.3189958999992,586.3189958999992,586.3189958999992,586.3189958999992,586.3037101999998,3,None,1.6483308000006218,0.2603127999991557,,,,,,,,,,,,,,,,,,,,,,6039,1,2025-06-02_15h54.30.652,sm,2024.2.4,59.92911584207269,2025-06-02 15h54.59.469445 +0200,
63,0,63,,,,,,space,1.9435627000002569,None,None,3,None,1.2128880000000208,0.26077450000047975,0,0,0,0,,,,,0,0,0,0,,,,,63,0,63,0,586.3189958999992,,,,,,,,,,,,,,,,,,,,,,,,,,,,,,,,,,,,,,,,,,,,,,,,,,,,,Haare,2.6097,586.3042134999996,586.3048504999988,586.3049549999996,586.3189958999992,588.9353890999992,588.9196433999987,588.9233581999997,588.9353890999992,588.9353890999992,588.9353890999992,588.9353890999992,590.9355521999987,590.9355521999987,590.9355521999987,590.9355521999987,590.9196518999997,3,None,1.2128880000000208,0.26077450000047975,,,,,,,,,,,,,,,,,,,,,,6039,1,2025-06-02_15h54.30.652,sm,2024.2.4,59.92911584207269,2025-06-02 15h54.59.469445 +0200,
64,0,64,,,,,,space,1.9435627000002569,None,None,3,None,0.7930467000005592,0.2778412000006938,0,0,0,0,,,,,0,0,0,0,,,,,64,0,64,0,590.9355521999987,,,,,,,,,,,,,,,,,,,,,,,,,,,,,,,,,,,,,,,,,,,,,,,,,,,,,Ring,2.1949,590.9201460999993,590.9207361999997,590.920847899999,590.9355521999987,593.1353241999986,593.1197956999986,593.1235304999991,593.1353241999986,593.1353241999986,593.1353241999986,593.1353241999986,595.1353053999992,595.1353053999992,595.1353053999992,595.1353053999992,595.1197746999987,3,None,0.7930467000005592,0.2778412000006938,,,,,,,,,,,,,,,,,,,,,,6039,1,2025-06-02_15h54.30.652,sm,2024.2.4,59.92911584207269,2025-06-02 15h54.59.469445 +0200,
65,0,65,,,,,,space,1.9435627000002569,None,None,2,None,1.098137900000438,0.19911320000028354,0,0,0,0,,,,,0,0,0,0,,,,,65,0,65,0,595.1353053999992,,,,,,,,,,,,,,,,,,,,,,,,,,,,,,,,,,,,,,,,,,,,,,,,,,,,,Lava,2.2639,595.1202627999992,595.1208303999992,595.1209361000001,595.1353053999992,597.4017832999998,597.3859250999994,597.3894377999986,597.4017832999998,597.4017832999998,597.4017832999998,597.4017832999998,599.4014956999999,599.4014956999999,599.4014956999999,599.4014956999999,599.3857823999988,2,None,1.098137900000438,0.19911320000028354,,,,,,,,,,,,,,,,,,,,,,6039,1,2025-06-02_15h54.30.652,sm,2024.2.4,59.92911584207269,2025-06-02 15h54.59.469445 +0200,
66,0,66,,,,,,space,1.9435627000002569,None,None,3,None,0.6360764000000927,0.2457790999997087,0,0,0,0,,,,,0,0,0,0,,,,,66,0,66,0,599.4014956999999,,,,,,,,,,,,,,,,,,,,,,,,,,,,,,,,,,,,,,,,,,,,,,,,,,,,,Schutz,2.8863,599.3861818999994,599.3866484999999,599.3867427999994,599.4014956999999,602.3012241999986,602.2855724000001,602.2889416999988,602.3012241999986,602.3012241999986,602.3012241999986,602.3012241999986,604.3014575999987,604.3014575999987,604.3014575999987,604.3014575999987,604.2859047999991,3,None,0.6360764000000927,0.2457790999997087,,,,,,,,,,,,,,,,,,,,,,6039,1,2025-06-02_15h54.30.652,sm,2024.2.4,59.92911584207269,2025-06-02 15h54.59.469445 +0200,
67,0,67,,,,,,space,1.9435627000002569,None,None,3,None,0.902712099999917,0.24972650000017893,0,0,0,0,,,,,0,0,0,0,,,,,67,0,67,0,604.3014575999987,,,,,,,,,,,,,,,,,,,,,,,,,,,,,,,,,,,,,,,,,,,,,,,,,,,,,Kapitel,5.3655,604.2864042000001,604.2869145999994,604.2870187999997,604.3014575999987,609.6675586999991,609.6519707999996,609.6568368999997,609.6675586999991,609.6675586999991,609.6675586999991,609.6675586999991,611.6673966999988,611.6673966999988,611.6673966999988,611.6673966999988,611.6522618999988,3,None,0.902712099999917,0.24972650000017893,,,,,,,,,,,,,,,,,,,,,,6039,1,2025-06-02_15h54.30.652,sm,2024.2.4,59.92911584207269,2025-06-02 15h54.59.469445 +0200,
68,0,68,,,,,,space,1.9435627000002569,None,None,3,None,0.7806553999998869,0.24973339999996824,0,0,0,0,,,,,0,0,0,0,,,,,68,0,68,0,611.6673966999988,,,,,,,,,,,,,,,,,,,,,,,,,,,,,,,,,,,,,,,,,,,,,,,,,,,,,Hammer,2.7357,611.6527728000001,611.6533416000002,611.653443199999,611.6673966999988,614.4171007999994,614.4015319999999,614.405668899999,614.4171007999994,614.4171007999994,614.4171007999994,614.4171007999994,616.4170862999999,616.4170862999999,616.4170862999999,616.4170862999999,616.4017770999999,3,None,0.7806553999998869,0.24973339999996824,,,,,,,,,,,,,,,,,,,,,,6039,1,2025-06-02_15h54.30.652,sm,2024.2.4,59.92911584207269,2025-06-02 15h54.59.469445 +0200,
69,0,69,,,,,,space,1.9435627000002569,None,None,3,None,0.6049603999999817,0.23531849999926635,0,0,0,0,,,,,0,0,0,0,,,,,69,0,69,0,616.4170862999999,,,,,,,,,,,,,,,,,,,,,,,,,,,,,,,,,,,,,,,,,,,,,,,,,,,,,Radio,2.6312,616.4022722999998,616.4030100999989,616.4031139999988,616.4170862999999,619.050348499999,619.0352509999993,619.0390269,619.050348499999,619.050348499999,619.050348499999,619.050348499999,621.0503921999989,621.0503921999989,621.0503921999989,621.0503921999989,621.0347088999988,3,None,0.6049603999999817,0.23531849999926635,,,,,,,,,,,,,,,,,,,,,,6039,1,2025-06-02_15h54.30.652,sm,2024.2.4,59.92911584207269,2025-06-02 15h54.59.469445 +0200,
70,0,70,,,,,,space,1.9435627000002569,None,None,3,None,0.6694996999995055,0.23739650000061374,0,0,0,0,,,,,0,0,0,0,,,,,70,0,70,0,621.0503921999989,,,,,,,,,,,,,,,,,,,,,,,,,,,,,,,,,,,,,,,,,,,,,,,,,,,,,Ringe,2.7992,621.0352074999992,621.0357129999993,621.0358166999995,621.0503921999989,623.8500186000001,623.8347562999988,623.8382550999995,623.8500186000001,623.8500186000001,623.8500186000001,623.8500186000001,625.8501486999994,625.8501486999994,625.8501486999994,625.8501486999994,625.8348084999998,3,None,0.6694996999995055,0.23739650000061374,,,,,,,,,,,,,,,,,,,,,,6039,1,2025-06-02_15h54.30.652,sm,2024.2.4,59.92911584207269,2025-06-02 15h54.59.469445 +0200,
71,0,71,,,,,,space,1.9435627000002569,None,None,2,None,1.0036362999999255,0.15982390000135638,0,0,0,0,,,,,0,0,0,0,,,,,71,0,71,0,625.8501486999994,,,,,,,,,,,,,,,,,,,,,,,,,,,,,,,,,,,,,,,,,,,,,,,,,,,,,Duft,3.6723,625.8353044999985,625.8360912999997,625.8361924000001,625.8501486999994,629.5334856999998,629.5175270999989,629.5212878999992,629.5334856999998,629.5334856999998,629.5334856999998,629.5334856999998,631.5330548000002,631.5330548000002,631.5330548000002,631.5330548000002,631.5177309999999,2,None,1.0036362999999255,0.15982390000135638,,,,,,,,,,,,,,,,,,,,,,6039,1,2025-06-02_15h54.30.652,sm,2024.2.4,59.92911584207269,2025-06-02 15h54.59.469445 +0200,
72,0,72,,,,,,space,1.9435627000002569,None,None,3,None,1.143937000000733,0.4029608000000735,0,0,0,0,,,,,0,0,0,0,,,,,72,0,72,0,631.5330548000002,,,,,,,,,,,,,,,,,,,,,,,,,,,,,,,,,,,,,,,,,,,,,,,,,,,,,Center,2.7584,631.518226799999,631.5187306999997,631.5188350999997,631.5330548000002,634.2992045999999,634.2837487999986,634.2893737999984,634.2992045999999,634.2992045999999,634.2992045999999,634.2992045999999,636.2994390999993,636.2994390999993,636.2994390999993,636.2994390999993,636.2842716999985,3,None,1.143937000000733,0.4029608000000735,,,,,,,,,,,,,,,,,,,,,,6039,1,2025-06-02_15h54.30.652,sm,2024.2.4,59.92911584207269,2025-06-02 15h54.59.469445 +0200,
73,0,73,,,,,,space,1.9435627000002569,None,None,3,None,0.7333586999993713,0.3000154000001203,0,0,0,0,,,,,0,0,0,0,,,,,73,0,73,0,636.2994390999993,,,,,,,,,,,,,,,,,,,,,,,,,,,,,,,,,,,,,,,,,,,,,,,,,,,,,Tal,2.8516,636.2847710999995,636.2852789999997,636.2853851,636.2994390999993,639.1660205999997,639.1502641999996,639.1543747999985,639.1660205999997,639.1660205999997,639.1660205999997,639.1660205999997,641.1658618999991,641.1658618999991,641.1658618999991,641.1658618999991,641.1502726999988,3,None,0.7333586999993713,0.3000154000001203,,,,,,,,,,,,,,,,,,,,,,6039,1,2025-06-02_15h54.30.652,sm,2024.2.4,59.92911584207269,2025-06-02 15h54.59.469445 +0200,
74,0,74,,,,,,space,1.9435627000002569,None,None,3,None,1.722564699999566,0.22899750000033237,0,0,0,0,,,,,0,0,0,0,,,,,74,0,74,0,641.1658618999991,,,,,,,,,,,,,,,,,,,,,,,,,,,,,,,,,,,,,,,,,,,,,,,,,,,,,Zeichnung,2.3419,641.1507726999989,641.1512809999986,641.1513889999987,641.1658618999991,643.5156370999994,643.5000120999994,643.5036881999986,643.5156370999994,643.5156370999994,643.5156370999994,643.5156370999994,645.5155527999996,645.5155527999996,645.5155527999996,645.5155527999996,645.5004212999993,3,None,1.722564699999566,0.22899750000033237,,,,,,,,,,,,,,,,,,,,,,6039,1,2025-06-02_15h54.30.652,sm,2024.2.4,59.92911584207269,2025-06-02 15h54.59.469445 +0200,
75,0,75,,,,,,space,1.9435627000002569,None,None,3,None,0.5947902999996586,0.26625369999965187,0,0,0,0,,,,,0,0,0,0,,,,,75,0,75,0,645.5155527999996,,,,,,,,,,,,,,,,,,,,,,,,,,,,,,,,,,,,,,,,,,,,,,,,,,,,,Mappe,2.0052,645.5010117000002,645.5015703999998,645.5016770000002,645.5155527999996,647.5321458999988,647.5167911999997,647.5203313000002,647.5321458999988,647.5321458999988,647.5321458999988,647.5321458999988,649.532116299999,649.532116299999,649.532116299999,649.532116299999,649.5163068999991,3,None,0.5947902999996586,0.26625369999965187,,,,,,,,,,,,,,,,,,,,,,6039,1,2025-06-02_15h54.30.652,sm,2024.2.4,59.92911584207269,2025-06-02 15h54.59.469445 +0200,
76,0,76,,,,,,space,1.9435627000002569,None,None,3,None,0.7833448999990651,0.32409929999994347,0,0,0,0,,,,,0,0,0,0,,,,,76,0,76,0,649.532116299999,,,,,,,,,,,,,,,,,,,,,,,,,,,,,,,,,,,,,,,,,,,,,,,,,,,,,Netz,2.0946,649.5167904999998,649.5172949999996,649.5173994999986,649.532116299999,651.6318775,651.6165270999991,651.6202810999985,651.6318775,651.6318775,651.6318775,651.6318775,653.6319519999997,653.6319519999997,653.6319519999997,653.6319519999997,653.6166586999989,3,None,0.7833448999990651,0.32409929999994347,,,,,,,,,,,,,,,,,,,,,,6039,1,2025-06-02_15h54.30.652,sm,2024.2.4,59.92911584207269,2025-06-02 15h54.59.469445 +0200,
77,0,77,,,,,,space,1.9435627000002569,None,None,2,None,1.251162900000054,0.23079710000092746,0,0,0,0,,,,,0,0,0,0,,,,,77,0,77,0,653.6319519999997,,,,,,,,,,,,,,,,,,,,,,,,,,,,,,,,,,,,,,,,,,,,,,,,,,,,,Löwe,2.021,653.6171235000002,653.6177613999989,653.6178584999998,653.6319519999997,655.6650900999994,655.6497798,655.6534577000002,655.6650900999994,655.6650900999994,655.6650900999994,655.6650900999994,657.6649994999989,657.6649994999989,657.6649994999989,657.6649994999989,657.6492548999995,2,None,1.251162900000054,0.23079710000092746,,,,,,,,,,,,,,,,,,,,,,6039,1,2025-06-02_15h54.30.652,sm,2024.2.4,59.92911584207269,2025-06-02 15h54.59.469445 +0200,
78,0,78,,,,,,space,1.9435627000002569,None,None,3,None,0.6320082999991428,0.2527855999996973,0,0,0,0,,,,,0,0,0,0,,,,,78,0,78,0,657.6649994999989,,,,,,,,,,,,,,,,,,,,,,,,,,,,,,,,,,,,,,,,,,,,,,,,,,,,,Kino,3.189,657.6497531999994,657.6502831999987,657.650388,657.6649994999989,660.8647486999998,660.8490477999985,660.852782599999,660.8647486999998,660.8647486999998,660.8647486999998,660.8647486999998,662.8647323999994,662.8647323999994,662.8647323999994,662.8647323999994,662.8491408999998,3,None,0.6320082999991428,0.2527855999996973,,,,,,,,,,,,,,,,,,,,,,6039,1,2025-06-02_15h54.30.652,sm,2024.2.4,59.92911584207269,2025-06-02 15h54.59.469445 +0200,
79,0,79,,,,,,space,1.9435627000002569,None,None,2,None,0.7401857000004384,0.2216855000006035,0,0,0,0,,,,,0,0,0,0,,,,,79,0,79,0,662.8647323999994,,,,,,,,,,,,,,,,,,,,,,,,,,,,,,,,,,,,,,,,,,,,,,,,,,,,,Fledermaus,3.6564,662.8496321000002,662.8502819999994,662.8503844999996,662.8647323999994,666.5311502999994,666.5152299000001,666.5189286999994,666.5311502999994,666.5311502999994,666.5311502999994,666.5311502999994,668.542333899999,668.542333899999,668.542333899999,668.542333899999,668.5153343000002,2,None,0.7401857000004384,0.2216855000006035,,,,,,,,,,,,,,,,,,,,,,6039,1,2025-06-02_15h54.30.652,sm,2024.2.4,59.92911584207269,2025-06-02 15h54.59.469445 +0200,
0,0,0,,,,,5.3655,space,2.7132406999990053,None,None,3,None,1.2980595999997604,0.2616555000004155,0,0,0,0,,,,,1,0,1,0,0,79,79,32,0,0,0,0,712.9283871999996,,,,,,,,,,,,,,,,,,,,,,,,,,,,,,,,685.7742406999987,685.7744945999984,685.7809320999986,685.7844625999987,685.7844625999987,688.5136820999996,space,2.7132406999990053,None,688.513814599999,688.5301473,688.5301473,700.9121711999996,None,700.9193879999984,700.9289965999997,700.9274219666661,702.1319588999995,710.9120970666665,711.9220611000001,712.9127516999997,Ehe,5.3655,712.9140349999998,712.9146716999985,712.9147701999991,712.9283871999996,718.2948172999986,718.2786856000002,718.2819313,718.2948172999986,718.2948172999986,718.2948172999986,718.2948172999986,720.2947415999988,720.2947415999988,720.2947415999988,720.2947415999988,720.2792329999993,3,None,1.2980595999997604,0.2616555000004155,680.5310751999987,680.5311502999994,None,680.5413431999987,680.5494062999987,684.5470220999996,684.5470220999996,684.5636794999991,685.7317430999992,2,1.1719278000000486,None,712.9283871999996,,,,,,,,,6039,1,2025-06-02_15h54.30.652,sm,2024.2.4,59.92911584207269,2025-06-02 15h54.59.469445 +0200,
1,0,1,,,,,,space,2.7132406999990053,None,None,3,None,0.8482034999997268,0.22798420000071928,0,0,0,0,,,,,1,0,1,0,,,,,1,0,1,0,720.2947415999988,,,,,,,,,,,,,,,,,,,,,,,,,,,,,,,,,,,,,,,,,,,,,,,,,,,,,Soße,3.6615,720.2796880999995,720.2801791999991,720.2802833999995,720.2947415999988,723.9612452999991,723.9455750999987,723.9493266999998,723.9612452999991,723.9612452999991,723.9612452999991,723.9612452999991,725.9611816999986,725.9611816999986,725.9611816999986,725.9611816999986,725.9454721999991,3,None,0.8482034999997268,0.22798420000071928,,,,,,,,,,,,,,,,,,,,,,6039,1,2025-06-02_15h54.30.652,sm,2024.2.4,59.92911584207269,2025-06-02 15h54.59.469445 +0200,
2,0,2,,,,,,space,2.7132406999990053,None,None,2,None,0.9265629000001354,0.17454840000027616,0,0,0,0,,,,,1,0,1,0,,,,,2,0,2,0,725.9611816999986,,,,,,,,,,,,,,,,,,,,,,,,,,,,,,,,,,,,,,,,,,,,,,,,,,,,,Handwerker,2.0946,725.9459704000001,725.9465399000001,725.946643199999,725.9611816999986,728.0610780999996,728.0453944000001,728.049735999999,728.0610780999996,728.0610780999996,728.0610780999996,728.0610780999996,730.0610137999993,730.0610137999993,730.0610137999993,730.0610137999993,730.0453266999994,2,None,0.9265629000001354,0.17454840000027616,,,,,,,,,,,,,,,,,,,,,,6039,1,2025-06-02_15h54.30.652,sm,2024.2.4,59.92911584207269,2025-06-02 15h54.59.469445 +0200,
3,0,3,,,,,,space,2.7132406999990053,None,None,3,None,0.9605765999986033,0.23476040000059584,0,0,0,0,,,,,1,0,1,0,,,,,3,0,3,0,730.0610137999993,,,,,,,,,,,,,,,,,,,,,,,,,,,,,,,,,,,,,,,,,,,,,,,,,,,,,Safari,3.6297,730.0458275000001,730.0464212999996,730.0465275999995,730.0610137999993,733.6937304999992,733.6780892999996,733.6817393000001,733.6937304999992,733.6937304999992,733.6937304999992,733.6937304999992,735.6939016999986,735.6939016999986,735.6939016999986,735.6939016999986,735.678167099999,3,None,0.9605765999986033,0.23476040000059584,,,,,,,,,,,,,,,,,,,,,,6039,1,2025-06-02_15h54.30.652,sm,2024.2.4,59.92911584207269,2025-06-02 15h54.59.469445 +0200,
4,0,4,,,,,,space,2.7132406999990053,None,None,3,None,0.7958467999997083,0.21099519999916083,0,0,0,0,,,,,1,0,1,0,,,,,4,0,4,0,735.6939016999986,,,,,,,,,,,,,,,,,,,,,,,,,,,,,,,,,,,,,,,,,,,,,,,,,,,,,Reise,2.1413,735.6786572000001,735.6792303000002,735.6793339999986,735.6939016999986,737.8436762000001,737.8283627000001,737.8324068000002,737.8436762000001,737.8436762000001,737.8436762000001,737.8436762000001,739.8441466999993,739.8441466999993,739.8441466999993,739.8441466999993,739.8282774999989,3,None,0.7958467999997083,0.21099519999916083,,,,,,,,,,,,,,,,,,,,,,6039,1,2025-06-02_15h54.30.652,sm,2024.2.4,59.92911584207269,2025-06-02 15h54.59.469445 +0200,
5,0,5,,,,,,space,2.7132406999990053,None,None,3,None,0.6522342999996908,0.3095623000008345,0,0,0,0,,,,,1,0,1,0,,,,,5,0,5,0,739.8441466999993,,,,,,,,,,,,,,,,,,,,,,,,,,,,,,,,,,,,,,,,,,,,,,,,,,,,,Kerzen,3.6005,739.8287774,739.8294530999992,739.8296246999998,739.8441466999993,743.4599148999987,743.4443443,743.448591299999,743.4599148999987,743.4599148999987,743.4599148999987,743.4599148999987,745.4600584,745.4600584,745.4600584,745.4600584,745.4442620999998,3,None,0.6522342999996908,0.3095623000008345,,,,,,,,,,,,,,,,,,,,,,6039,1,2025-06-02_15h54.30.652,sm,2024.2.4,59.92911584207269,2025-06-02 15h54.59.469445 +0200,
6,0,6,,,,,,space,2.7132406999990053,None,None,2,None,1.4876404000006005,0.24356479999914882,0,0,0,0,,,,,1,0,1,0,,,,,6,0,6,0,745.4600584,,,,,,,,,,,,,,,,,,,,,,,,,,,,,,,,,,,,,,,,,,,,,,,,,,,,,Monster,3.189,745.444674299999,745.4451413999996,745.4452272999988,745.4600584,748.659862999999,748.6441752999999,748.6485166999992,748.659862999999,748.659862999999,748.659862999999,748.659862999999,750.6606873000001,750.6606873000001,750.6606873000001,750.6606873000001,750.6441725999994,2,None,1.4876404000006005,0.24356479999914882,,,,,,,,,,,,,,,,,,,,,,6039,1,2025-06-02_15h54.30.652,sm,2024.2.4,59.92911584207269,2025-06-02 15h54.59.469445 +0200,
7,0,7,,,,,,space,2.7132406999990053,None,None,3,None,1.5639938000003895,0.29914089999874705,0,0,0,0,,,,,1,0,1,0,,,,,7,0,7,0,750.6606873000001,,,,,,,,,,,,,,,,,,,,,,,,,,,,,,,,,,,,,,,,,,,,,,,,,,,,,Brief,2.2074,750.6446722000001,750.645198799999,750.6453033999987,750.6606873000001,752.8760365999988,752.8607624999986,752.8656859000002,752.8760365999988,752.8760365999988,752.8760365999988,752.8760365999988,754.876204799999,754.876204799999,754.876204799999,754.876204799999,754.8605890999988,3,None,1.5639938000003895,0.29914089999874705,,,,,,,,,,,,,,,,,,,,,,6039,1,2025-06-02_15h54.30.652,sm,2024.2.4,59.92911584207269,2025-06-02 15h54.59.469445 +0200,
8,0,8,,,,,,space,2.7132406999990053,None,None,3,None,1.6106483999992633,0.28223780000007537,0,0,0,0,,,,,1,0,1,0,,,,,8,0,8,0,754.876204799999,,,,,,,,,,,,,,,,,,,,,,,,,,,,,,,,,,,,,,,,,,,,,,,,,,,,,Klee,2.0168,754.8610814999993,754.8617044000002,754.8618095999991,754.876204799999,756.8927585000001,756.876890399999,756.8803520999991,756.8927585000001,756.8927585000001,756.8927585000001,756.8927585000001,758.8925576999991,758.8925576999991,758.8925576999991,758.8925576999991,758.8771768999995,3,None,1.6106483999992633,0.28223780000007537,,,,,,,,,,,,,,,,,,,,,,6039,1,2025-06-02_15h54.30.652,sm,2024.2.4,59.92911584207269,2025-06-02 15h54.59.469445 +0200,
9,0,9,,,,,,space,2.7132406999990053,None,None,3,None,0.632492300001104,0.2173531999997067,0,0,0,0,,,,,1,0,1,0,,,,,9,0,9,0,758.8925576999991,,,,,,,,,,,,,,,,,,,,,,,,,,,,,,,,,,,,,,,,,,,,,,,,,,,,,Ball,2.2129,758.877671799999,758.8781863999993,758.8782918999987,758.8925576999991,761.108732499999,761.0933380999995,761.0965483999989,761.108732499999,761.108732499999,761.108732499999,761.108732499999,763.1094422999995,763.1094422999995,763.1094422999995,763.1094422999995,763.093293599999,3,None,0.632492300001104,0.2173531999997067,,,,,,,,,,,,,,,,,,,,,,6039,1,2025-06-02_15h54.30.652,sm,2024.2.4,59.92911584207269,2025-06-02 15h54.59.469445 +0200,
10,0,10,,,,,,space,2.7132406999990053,None,None,3,None,0.7165564999995695,0.24041330000000016,0,0,0,0,,,,,1,0,1,0,,,,,10,0,10,0,763.1094422999995,,,,,,,,,,,,,,,,,,,,,,,,,,,,,,,,,,,,,,,,,,,,,,,,,,,,,Sauber,3.039,763.0937802999997,763.0944346999986,763.0945449999999,763.1094422999995,766.1591989999997,766.1431073999993,766.1472457999989,766.1591989999997,766.1591989999997,766.1591989999997,766.1591989999997,768.1589238999986,768.1589238999986,768.1589238999986,768.1589238999986,768.1435241999989,3,None,0.7165564999995695,0.24041330000000016,,,,,,,,,,,,,,,,,,,,,,6039,1,2025-06-02_15h54.30.652,sm,2024.2.4,59.92911584207269,2025-06-02 15h54.59.469445 +0200,
11,0,11,,,,,,space,2.7132406999990053,None,None,2,None,0.6929467000009026,0.19404839999879187,0,0,0,0,,,,,1,0,1,0,,,,,11,0,11,0,768.1589238999986,,,,,,,,,,,,,,,,,,,,,,,,,,,,,,,,,,,,,,,,,,,,,,,,,,,,,Nacht,2.3419,768.1440201999994,768.1446211000002,768.1447931000002,768.1589238999986,770.5083825999991,770.4928034999994,770.4962786999986,770.5083825999991,770.5083825999991,770.5083825999991,770.5083825999991,772.5086565999991,772.5086565999991,772.5086565999991,772.5086565999991,772.4930973999999,2,None,0.6929467000009026,0.19404839999879187,,,,,,,,,,,,,,,,,,,,,,6039,1,2025-06-02_15h54.30.652,sm,2024.2.4,59.92911584207269,2025-06-02 15h54.59.469445 +0200,
12,0,12,,,,,,space,2.7132406999990053,None,None,3,None,0.6204909000007319,0.2693724000000657,0,0,0,0,,,,,1,0,1,0,,,,,12,0,12,0,772.5086565999991,,,,,,,,,,,,,,,,,,,,,,,,,,,,,,,,,,,,,,,,,,,,,,,,,,,,,Zucker,2.1697,772.4935934999994,772.4941662000001,772.4942729999984,772.5086565999991,774.691620399999,774.6760551999996,774.680105899999,774.691620399999,774.691620399999,774.691620399999,774.691620399999,776.691567599999,776.691567599999,776.691567599999,776.691567599999,776.6759207999985,3,None,0.6204909000007319,0.2693724000000657,,,,,,,,,,,,,,,,,,,,,,6039,1,2025-06-02_15h54.30.652,sm,2024.2.4,59.92911584207269,2025-06-02 15h54.59.469445 +0200,
13,0,13,,,,,,space,2.7132406999990053,None,None,3,None,0.6544758000000002,0.2794032999991032,0,0,0,0,,,,,1,0,1,0,,,,,13,0,13,0,776.691567599999,,,,,,,,,,,,,,,,,,,,,,,,,,,,,,,,,,,,,,,,,,,,,,,,,,,,,Keller,2.1949,776.6764115999995,776.6770567999993,776.6771608999989,776.691567599999,778.8911458999992,778.8756593999988,778.8791891000001,778.8911458999992,778.8911458999992,778.8911458999992,778.8911458999992,780.8912495999994,780.8912495999994,780.8912495999994,780.8912495999994,780.8756414999989,3,None,0.6544758000000002,0.2794032999991032,,,,,,,,,,,,,,,,,,,,,,6039,1,2025-06-02_15h54.30.652,sm,2024.2.4,59.92911584207269,2025-06-02 15h54.59.469445 +0200,
14,0,14,,,,,,space,2.7132406999990053,None,None,3,None,0.7446376000007149,0.28932480000003125,0,0,0,0,,,,,1,0,1,0,,,,,14,0,14,0,780.8912495999994,,,,,,,,,,,,,,,,,,,,,,,,,,,,,,,,,,,,,,,,,,,,,,,,,,,,,Helm,2.6097,780.8761376999992,780.8768862999987,780.8770004999988,780.8912495999994,783.5075163000001,783.4920812,783.4957739999991,783.5075163000001,783.5075163000001,783.5075163000001,783.5075163000001,785.5081995,785.5081995,785.5081995,785.5081995,785.4922007999994,3,None,0.7446376000007149,0.28932480000003125,,,,,,,,,,,,,,,,,,,,,,6039,1,2025-06-02_15h54.30.652,sm,2024.2.4,59.92911584207269,2025-06-02 15h54.59.469445 +0200,
15,0,15,,,,,,space,2.7132406999990053,None,None,2,None,0.8763648000003741,0.23474429999987478,0,0,0,0,,,,,1,0,1,0,,,,,15,0,15,0,785.5081995,,,,,,,,,,,,,,,,,,,,,,,,,,,,,,,,,,,,,,,,,,,,,,,,,,,,,Harmonie,3.6723,785.4927011999989,785.4932159999989,785.4933260999987,785.5081995,789.1908762999992,789.1751327000002,789.1793937000002,789.1908762999992,789.1908762999992,789.1908762999992,789.1908762999992,791.1907646999989,791.1907646999989,791.1907646999989,791.1907646999989,791.1755813,2,None,0.8763648000003741,0.23474429999987478,,,,,,,,,,,,,,,,,,,,,,6039,1,2025-06-02_15h54.30.652,sm,2024.2.4,59.92911584207269,2025-06-02 15h54.59.469445 +0200,
16,0,16,,,,,,space,2.7132406999990053,None,None,3,None,1.1125272000008408,0.23807029999989027,0,0,0,0,,,,,1,0,1,0,,,,,16,0,16,0,791.1907646999989,,,,,,,,,,,,,,,,,,,,,,,,,,,,,,,,,,,,,,,,,,,,,,,,,,,,,Nummer,2.8516,791.1760208999985,791.1767302999997,791.1768206999986,791.1907646999989,794.0569125000002,794.0415625999995,794.0451193999997,794.0569125000002,794.0569125000002,794.0569125000002,794.0569125000002,796.0570754,796.0570754,796.0570754,796.0570754,796.0416389999991,3,None,1.1125272000008408,0.23807029999989027,,,,,,,,,,,,,,,,,,,,,,6039,1,2025-06-02_15h54.30.652,sm,2024.2.4,59.92911584207269,2025-06-02 15h54.59.469445 +0200,
17,0,17,,,,,,space,2.7132406999990053,None,None,3,None,0.7954566000007617,0.26894199999878765,0,0,0,0,,,,,1,0,1,0,,,,,17,0,17,0,796.0570754,,,,,,,,,,,,,,,,,,,,,,,,,,,,,,,,,,,,,,,,,,,,,,,,,,,,,Tanz,3.8592,796.0421301999995,796.0426415000002,796.0427460999999,796.0570754,799.9237477999995,799.9081608999986,799.9119104000001,799.9237477999995,799.9237477999995,799.9237477999995,799.9237477999995,801.9235781999996,801.9235781999996,801.9235781999996,801.9235781999996,801.9085570999996,3,None,0.7954566000007617,0.26894199999878765,,,,,,,,,,,,,,,,,,,,,,6039,1,2025-06-02_15h54.30.652,sm,2024.2.4,59.92911584207269,2025-06-02 15h54.59.469445 +0200,
18,0,18,,,,,,space,2.7132406999990053,None,None,3,None,0.9859828999997262,0.31608830000004673,0,0,0,0,,,,,1,0,1,0,,,,,18,0,18,0,801.9235781999996,,,,,,,,,,,,,,,,,,,,,,,,,,,,,,,,,,,,,,,,,,,,,,,,,,,,,Sitzgurt,3.6438,801.9090534999996,801.9095946999987,801.9097024000002,801.9235781999996,805.5731449999985,805.5574908999988,805.5613288999994,805.5731449999985,805.5731449999985,805.5731449999985,805.5731449999985,807.5731158999988,807.5731158999988,807.5731158999988,807.5731158999988,807.5575325999998,3,None,0.9859828999997262,0.31608830000004673,,,,,,,,,,,,,,,,,,,,,,6039,1,2025-06-02_15h54.30.652,sm,2024.2.4,59.92911584207269,2025-06-02 15h54.59.469445 +0200,
19,0,19,,,,,,space,2.7132406999990053,None,None,3,None,0.6067235000009532,0.2762540000003355,0,0,0,0,,,,,1,0,1,0,,,,,19,0,19,0,807.5731158999988,,,,,,,,,,,,,,,,,,,,,,,,,,,,,,,,,,,,,,,,,,,,,,,,,,,,,Arbeit,2.2385,807.5579987000001,807.5585001,807.5585959999989,807.5731158999988,809.8227525000002,809.8071389999986,809.8110811999995,809.8227525000002,809.8227525000002,809.8227525000002,809.8227525000002,811.8230774999993,811.8230774999993,811.8230774999993,811.8230774999993,811.8073188999988,3,None,0.6067235000009532,0.2762540000003355,,,,,,,,,,,,,,,,,,,,,,6039,1,2025-06-02_15h54.30.652,sm,2024.2.4,59.92911584207269,2025-06-02 15h54.59.469445 +0200,
20,0,20,,,,,,space,2.7132406999990053,None,None,3,None,1.5109596000002057,0.2517358000004606,0,0,0,0,,,,,1,0,1,0,,,,,20,0,20,0,811.8230774999993,,,,,,,,,,,,,,,,,,,,,,,,,,,,,,,,,,,,,,,,,,,,,,,,,,,,,Bild,2.3362,811.8078084999997,811.8084612999992,811.808563999999,811.8230774999993,814.1727030000002,814.1570228,814.1609898999995,814.1727030000002,814.1727030000002,814.1727030000002,814.1727030000002,816.1727159999991,816.1727159999991,816.1727159999991,816.1727159999991,816.1570037999991,3,None,1.5109596000002057,0.2517358000004606,,,,,,,,,,,,,,,,,,,,,,6039,1,2025-06-02_15h54.30.652,sm,2024.2.4,59.92911584207269,2025-06-02 15h54.59.469445 +0200,
21,0,21,,,,,,space,2.7132406999990053,None,None,3,None,0.682318999999552,0.28517030000148225,0,0,0,0,,,,,1,0,1,0,,,,,21,0,21,0,816.1727159999991,,,,,,,,,,,,,,,,,,,,,,,,,,,,,,,,,,,,,,,,,,,,,,,,,,,,,Rot,2.1831,816.1574991999987,816.1581545999998,816.1582641999994,816.1727159999991,818.3557922,818.3401994999986,818.3437414999989,818.3557922,818.3557922,818.3557922,818.3557922,820.3557643999993,820.3557643999993,820.3557643999993,820.3557643999993,820.3402193000002,3,None,0.682318999999552,0.28517030000148225,,,,,,,,,,,,,,,,,,,,,,6039,1,2025-06-02_15h54.30.652,sm,2024.2.4,59.92911584207269,2025-06-02 15h54.59.469445 +0200,
22,0,22,,,,,,space,2.7132406999990053,None,None,3,None,1.6427401000000827,0.23636009999972885,0,0,0,0,,,,,1,0,1,0,,,,,22,0,22,0,820.3557643999993,,,,,,,,,,,,,,,,,,,,,,,,,,,,,,,,,,,,,,,,,,,,,,,,,,,,,Sterne,5.1698,820.3407157999991,820.3413490999992,820.3414551999995,820.3557643999993,825.5386085999999,825.5232844999991,825.5275600999994,825.5386085999999,825.5386085999999,825.5386085999999,825.5386085999999,827.538725299999,827.538725299999,827.538725299999,827.538725299999,827.5233482999993,3,None,1.6427401000000827,0.23636009999972885,,,,,,,,,,,,,,,,,,,,,,6039,1,2025-06-02_15h54.30.652,sm,2024.2.4,59.92911584207269,2025-06-02 15h54.59.469445 +0200,
23,0,23,,,,,,space,2.7132406999990053,None,None,3,None,0.8194457000008697,0.2184027999992395,0,0,0,0,,,,,1,0,1,0,,,,,23,0,23,0,827.538725299999,,,,,,,,,,,,,,,,,,,,,,,,,,,,,,,,,,,,,,,,,,,,,,,,,,,,,Ostern,3.0547,827.5238673999993,827.524381199999,827.5244903999992,827.538725299999,830.6048238999992,830.5894353999993,830.5959074000002,830.6048238999992,830.6048238999992,830.6048238999992,830.6048238999992,832.6051871999989,832.6051871999989,832.6051871999989,832.6051871999989,832.5895962999984,3,None,0.8194457000008697,0.2184027999992395,,,,,,,,,,,,,,,,,,,,,,6039,1,2025-06-02_15h54.30.652,sm,2024.2.4,59.92911584207269,2025-06-02 15h54.59.469445 +0200,
24,0,24,,,,,,space,2.7132406999990053,None,None,3,None,0.7029602000002342,0.2542350000003353,0,0,0,0,,,,,1,0,1,0,,,,,24,0,24,0,832.6051871999989,,,,,,,,,,,,,,,,,,,,,,,,,,,,,,,,,,,,,,,,,,,,,,,,,,,,,Zahnpasta,3.0127,832.5900947999999,832.590597299999,832.5907060999998,832.6051871999989,835.6211805999992,835.6060385000001,835.6094847999993,835.6211805999992,835.6211805999992,835.6211805999992,835.6211805999992,837.6215002999998,837.6215002999998,837.6215002999998,837.6215002999998,837.6058937999987,3,None,0.7029602000002342,0.2542350000003353,,,,,,,,,,,,,,,,,,,,,,6039,1,2025-06-02_15h54.30.652,sm,2024.2.4,59.92911584207269,2025-06-02 15h54.59.469445 +0200,
25,0,25,,,,,,space,2.7132406999990053,None,None,3,None,1.3014896999993653,0.2493346000010206,0,0,0,0,,,,,1,0,1,0,,,,,25,0,25,0,837.6215002999998,,,,,,,,,,,,,,,,,,,,,,,,,,,,,,,,,,,,,,,,,,,,,,,,,,,,,Küche,2.5982,837.6064026999993,837.6069052999992,837.6070087999997,837.6215002999998,840.2215160999986,840.2060970999992,840.2101784999995,840.2215160999986,840.2215160999986,840.2215160999986,840.2215160999986,842.2213023999993,842.2213023999993,842.2213023999993,842.2213023999993,842.2053900999999,3,None,1.3014896999993653,0.2493346000010206,,,,,,,,,,,,,,,,,,,,,,6039,1,2025-06-02_15h54.30.652,sm,2024.2.4,59.92911584207269,2025-06-02 15h54.59.469445 +0200,
26,0,26,,,,,,space,2.7132406999990053,None,None,3,None,0.5792787000009412,0.2280004000003828,0,0,0,0,,,,,1,0,1,0,,,,,26,0,26,0,842.2213023999993,,,,,,,,,,,,,,,,,,,,,,,,,,,,,,,,,,,,,,,,,,,,,,,,,,,,,Universität,2.1961,842.2058476000002,842.2063218999992,842.2064169999994,842.2213023999993,844.4206853999985,844.4051963000002,844.4117183999988,844.4206853999985,844.4206853999985,844.4206853999985,844.4206853999985,,,,,846.4053800999991,3,None,0.5792787000009412,0.2280004000003828,,,,,,,,,,,,,,,,,,,,,,6039,1,2025-06-02_15h54.30.652,sm,2024.2.4,59.92911584207269,2025-06-02 15h54.59.469445 +0200,
27,0,27,,,,,,space,2.7132406999990053,None,None,2,None,0.7723945999987336,0.21144690000073751,0,0,0,0,,,,,1,0,1,0,,,,,27,0,27,0,846.4210542000001,,,,,,,,,,,,,,,,,,,,,,,,,,,,,,,,,,,,,,,,,,,,,,,,,,,,,Autorin,2.3229,846.4058766999988,846.4066705999994,846.406804799999,846.4210542000001,848.7544067999988,848.7386713999986,848.7429524999989,848.7544067999988,848.7544067999988,848.7544067999988,848.7544067999988,850.754039899999,850.754039899999,850.754039899999,850.754039899999,850.7389765999997,2,None,0.7723945999987336,0.21144690000073751,,,,,,,,,,,,,,,,,,,,,,6039,1,2025-06-02_15h54.30.652,sm,2024.2.4,59.92911584207269,2025-06-02 15h54.59.469445 +0200,
28,0,28,,,,,,space,2.7132406999990053,None,None,3,None,0.7428854000008869,0.20181459999912477,0,0,0,0,,,,,1,0,1,0,,,,,28,0,28,0,850.754039899999,,,,,,,,,,,,,,,,,,,,,,,,,,,,,,,,,,,,,,,,,,,,,,,,,,,,,Ecke,2.9832,850.739477699999,850.7399838999991,850.7400856999993,850.754039899999,853.7372482999999,853.7215435999988,853.7250644999986,853.7372482999999,853.7372482999999,853.7372482999999,853.7372482999999,855.7370389999996,855.7370389999996,855.7370389999996,855.7370389999996,855.7216634999986,3,None,0.7428854000008869,0.20181459999912477,,,,,,,,,,,,,,,,,,,,,,6039,1,2025-06-02_15h54.30.652,sm,2024.2.4,59.92911584207269,2025-06-02 15h54.59.469445 +0200,
29,0,29,,,,,,space,2.7132406999990053,None,None,None,None,,,0,0,0,0,,,,,1,0,1,0,,,,,29,0,29,0,855.7370389999996,,,,,,,,,,,,,,,,,,,,,,,,,,,,,,,,,,,,,,,,,,,,,,,,,,,,,Farbe,2.2639,855.7221558000001,855.7226926999992,855.7227962999987,855.7370389999996,858.0036810999991,857.9877860999986,857.9917623999991,858.0036810999991,858.0036810999991,858.0036810999991,858.0036810999991,860.0036716999984,860.0036716999984,860.0036716999984,860.0036716999984,859.9881573999992,None,None,,,,,,,,,,,,,,,,,,,,,,,,6039,1,2025-06-02_15h54.30.652,sm,2024.2.4,59.92911584207269,2025-06-02 15h54.59.469445 +0200,
30,0,30,,,,,,space,2.7132406999990053,None,None,2,None,1.4590616999994381,0.23479200000110723,0,0,0,0,,,,,1,0,1,0,,,,,30,0,30,0,860.0036716999984,,,,,,,,,,,,,,,,,,,,,,,,,,,,,,,,,,,,,,,,,,,,,,,,,,,,,Pflege,2.4137,859.9886286000001,859.989239999999,859.9893513999996,860.0036716999984,862.4201741999987,862.4045310000001,862.4087233999999,862.4201741999987,862.4201741999987,862.4201741999987,862.4201741999987,864.4200153000002,864.4200153000002,864.4200153000002,864.4200153000002,864.4045983999986,2,None,1.4590616999994381,0.23479200000110723,,,,,,,,,,,,,,,,,,,,,,6039,1,2025-06-02_15h54.30.652,sm,2024.2.4,59.92911584207269,2025-06-02 15h54.59.469445 +0200,
31,0,31,,,,,,space,2.7132406999990053,None,None,2,None,0.7723995000014838,0.21655920000011974,0,0,0,0,,,,,1,0,1,0,,,,,31,0,31,0,864.4200153000002,,,,,,,,,,,,,,,,,,,,,,,,,,,,,,,,,,,,,,,,,,,,,,,,,,,,,Anführer,2.9061,864.4050886999994,864.4058128999986,864.4059787999995,864.4200153000002,867.3364415999986,867.3207425,867.3250042999989,867.3364415999986,867.3364415999986,867.3364415999986,867.3364415999986,869.3363040999993,869.3363040999993,869.3363040999993,869.3363040999993,869.3211078999993,2,None,0.7723995000014838,0.21655920000011974,,,,,,,,,,,,,,,,,,,,,,6039,1,2025-06-02_15h54.30.652,sm,2024.2.4,59.92911584207269,2025-06-02 15h54.59.469445 +0200,
32,0,32,,,,,,space,2.7132406999990053,None,None,3,None,0.6314675000012357,0.2432885999987775,0,0,0,0,,,,,1,0,1,0,,,,,32,0,32,0,869.3363040999993,,,,,,,,,,,,,,,,,,,,,,,,,,,,,,,,,,,,,,,,,,,,,,,,,,,,,Schlüssel,2.6312,869.3216090999995,869.3221243999997,869.3222296999993,869.3363040999993,871.9696724999994,871.9541792,871.9580831999992,871.9696724999994,871.9696724999994,871.9696724999994,871.9696724999994,873.969390799999,873.969390799999,873.969390799999,873.969390799999,873.9538357999991,3,None,0.6314675000012357,0.2432885999987775,,,,,,,,,,,,,,,,,,,,,,6039,1,2025-06-02_15h54.30.652,sm,2024.2.4,59.92911584207269,2025-06-02 15h54.59.469445 +0200,
33,0,33,,,,,,space,2.7132406999990053,None,None,2,None,1.2448349999995116,0.22542609999982233,0,0,0,0,,,,,1,0,1,0,,,,,33,0,33,0,873.969390799999,,,,,,,,,,,,,,,,,,,,,,,,,,,,,,,,,,,,,,,,,,,,,,,,,,,,,Familie,4.3756,873.9542986999986,873.954940399999,873.9550436999998,873.969390799999,878.352366699999,878.3367959999996,878.3410291,878.352366699999,878.352366699999,878.352366699999,878.352366699999,880.3527577999994,880.3527577999994,880.3527577999994,880.3527577999994,880.3367166999997,2,None,1.2448349999995116,0.22542609999982233,,,,,,,,,,,,,,,,,,,,,,6039,1,2025-06-02_15h54.30.652,sm,2024.2.4,59.92911584207269,2025-06-02 15h54.59.469445 +0200,
34,0,34,,,,,,space,2.7132406999990053,None,None,3,None,1.33920500000022,0.18046740000136197,0,0,0,0,,,,,1,0,1,0,,,,,34,0,34,0,880.3527577999994,,,,,,,,,,,,,,,,,,,,,,,,,,,,,,,,,,,,,,,,,,,,,,,,,,,,,Fakt,4.4767,880.3372160999988,880.3377294999991,880.3378335999987,880.3527577999994,884.8354302999996,884.8196520000001,884.8229678999996,884.8354302999996,884.8354302999996,884.8354302999996,884.8354302999996,886.8353226999989,886.8353226999989,886.8353226999989,886.8353226999989,886.8198063999989,3,None,1.33920500000022,0.18046740000136197,,,,,,,,,,,,,,,,,,,,,,6039,1,2025-06-02_15h54.30.652,sm,2024.2.4,59.92911584207269,2025-06-02 15h54.59.469445 +0200,
35,0,35,,,,,,space,2.7132406999990053,None,None,3,None,0.5783479000001535,0.2030496999996103,0,0,0,0,,,,,1,0,1,0,,,,,35,0,35,0,886.8353226999989,,,,,,,,,,,,,,,,,,,,,,,,,,,,,,,,,,,,,,,,,,,,,,,,,,,,,Applaus,3.2059,886.8203023999995,886.8208408999999,886.8209468999994,886.8353226999989,890.0518217999997,890.0366316,890.0407472999996,890.0518217999997,890.0518217999997,890.0518217999997,890.0518217999997,892.0517572999997,892.0517572999997,892.0517572999997,892.0517572999997,892.0367048999997,3,None,0.5783479000001535,0.2030496999996103,,,,,,,,,,,,,,,,,,,,,,6039,1,2025-06-02_15h54.30.652,sm,2024.2.4,59.92911584207269,2025-06-02 15h54.59.469445 +0200,
36,0,36,,,,,,space,2.7132406999990053,None,None,None,None,,,0,0,0,0,,,,,1,0,1,0,,,,,36,0,36,0,892.0517572999997,,,,,,,,,,,,,,,,,,,,,,,,,,,,,,,,,,,,,,,,,,,,,,,,,,,,,Sendung,2.7357,892.0372037999987,892.0378535,892.0379568999997,892.0517572999997,894.8014503999984,894.7861404999985,894.7895993000002,894.8014503999984,894.8014503999984,894.8014503999984,894.8014503999984,896.8014739999999,896.8014739999999,896.8014739999999,896.8014739999999,896.7859810999998,None,None,,,,,,,,,,,,,,,,,,,,,,,,6039,1,2025-06-02_15h54.30.652,sm,2024.2.4,59.92911584207269,2025-06-02 15h54.59.469445 +0200,
37,0,37,,,,,,space,2.7132406999990053,None,None,2,None,0.9640173999996478,0.1747360999997909,0,0,0,0,,,,,1,0,1,0,,,,,37,0,37,0,896.8014739999999,,,,,,,,,,,,,,,,,,,,,,,,,,,,,,,,,,,,,,,,,,,,,,,,,,,,,Sumpf,4.0852,896.7864336999992,896.7870957999985,896.787200499999,896.8014739999999,900.9010562999993,900.8856689999993,900.8893989999997,900.9010562999993,900.9010562999993,900.9010562999993,900.9010562999993,902.9012515999984,902.9012515999984,902.9012515999984,902.9012515999984,902.8854479000001,2,None,0.9640173999996478,0.1747360999997909,,,,,,,,,,,,,,,,,,,,,,6039,1,2025-06-02_15h54.30.652,sm,2024.2.4,59.92911584207269,2025-06-02 15h54.59.469445 +0200,
38,0,38,,,,,,space,2.7132406999990053,None,None,3,None,0.6087114999991172,0.2526919000010821,0,0,0,0,,,,,1,0,1,0,,,,,38,0,38,0,902.9012515999984,,,,,,,,,,,,,,,,,,,,,,,,,,,,,,,,,,,,,,,,,,,,,,,,,,,,,Tasche,3.6564,902.8859467000002,902.8864655999987,902.8865714999993,902.9012515999984,906.5685505000001,906.5519496999987,906.5560037999985,906.5685505000001,906.5685505000001,906.5685505000001,906.5685505000001,908.5675204999989,908.5675204999989,908.5675204999989,908.5675204999989,908.5519460999985,3,None,0.6087114999991172,0.2526919000010821,,,,,,,,,,,,,,,,,,,,,,6039,1,2025-06-02_15h54.30.652,sm,2024.2.4,59.92911584207269,2025-06-02 15h54.59.469445 +0200,
39,0,39,,,,,,space,2.7132406999990053,None,None,3,None,0.7334907000004023,0.25812089999999444,0,0,0,0,,,,,1,0,1,0,,,,,39,0,39,0,908.5675204999989,,,,,,,,,,,,,,,,,,,,,,,,,,,,,,,,,,,,,,,,,,,,,,,,,,,,,Maske,2.9645,908.5524482000001,908.5529552999997,908.5530623999985,908.5675204999989,911.5339356999993,911.5185494999987,911.5226157999987,911.5339356999993,911.5339356999993,911.5339356999993,911.5339356999993,913.5340519999991,913.5340519999991,913.5340519999991,913.5340519999991,913.5181701000001,3,None,0.7334907000004023,0.25812089999999444,,,,,,,,,,,,,,,,,,,,,,6039,1,2025-06-02_15h54.30.652,sm,2024.2.4,59.92911584207269,2025-06-02 15h54.59.469445 +0200,
40,0,40,,,,,,space,2.7132406999990053,None,None,2,None,0.9920251000003191,0.19853650000004563,0,0,0,0,,,,,1,0,1,0,,,,,40,0,40,0,913.5340519999991,,,,,,,,,,,,,,,,,,,,,,,,,,,,,,,,,,,,,,,,,,,,,,,,,,,,,Puppe,2.4916,913.518668499999,913.5191713999993,913.5192752999992,913.5340519999991,916.0334579999999,916.0184358999995,916.0233278999985,916.0334579999999,916.0334579999999,916.0334579999999,916.0334579999999,918.0334649999986,918.0334649999986,918.0334649999986,918.0334649999986,918.0177202999985,2,None,0.9920251000003191,0.19853650000004563,,,,,,,,,,,,,,,,,,,,,,6039,1,2025-06-02_15h54.30.652,sm,2024.2.4,59.92911584207269,2025-06-02 15h54.59.469445 +0200,
41,0,41,,,,,,space,2.7132406999990053,None,None,2,None,1.865528500000437,None,0,0,0,0,,,,,1,0,1,0,,,,,41,0,41,0,918.0334649999986,,,,,,,,,,,,,,,,,,,,,,,,,,,,,,,,,,,,,,,,,,,,,,,,,,,,,Rebe,5.3463,918.0181920999985,918.0186753999988,918.0187716,918.0334649999986,923.3830422999999,923.3672289999995,923.3702973,923.3830422999999,923.3830422999999,923.3830422999999,923.3830422999999,925.3830315999985,925.3830315999985,925.3830315999985,925.3830315999985,925.3674389999996,2,None,1.865528500000437,None,,,,,,,,,,,,,,,,,,,,,,6039,1,2025-06-02_15h54.30.652,sm,2024.2.4,59.92911584207269,2025-06-02 15h54.59.469445 +0200,
42,0,42,,,,,,space,2.7132406999990053,None,None,None,None,,,0,0,0,0,,,,,1,0,1,0,,,,,42,0,42,0,925.3830315999985,,,,,,,,,,,,,,,,,,,,,,,,,,,,,,,,,,,,,,,,,,,,,,,,,,,,,Hütte,2.7992,925.3678866999999,925.3683977000001,925.3684904000002,925.3830315999985,928.1835180999988,928.1676014999994,928.1719264999992,928.1835180999988,928.1835180999988,928.1835180999988,928.1835180999988,930.1829574999992,930.1829574999992,930.1829574999992,930.1829574999992,930.1673148999998,None,None,,,,,,,,,,,,,,,,,,,,,,,,6039,1,2025-06-02_15h54.30.652,sm,2024.2.4,59.92911584207269,2025-06-02 15h54.59.469445 +0200,
43,0,43,,,,,,space,2.7132406999990053,None,None,2,None,0.6892145000001619,0.23179960000015853,0,0,0,0,,,,,1,0,1,0,,,,,43,0,43,0,930.1829574999992,,,,,,,,,,,,,,,,,,,,,,,,,,,,,,,,,,,,,,,,,,,,,,,,,,,,,Ziege,2.7584,930.1677781999988,930.1684186000002,930.1685245999997,930.1829574999992,932.9491517999995,932.9337491999995,932.9373160999985,932.9491517999995,932.9491517999995,932.9491517999995,932.9491517999995,934.9495152,934.9495152,934.9495152,934.9495152,934.9338220999998,2,None,0.6892145000001619,0.23179960000015853,,,,,,,,,,,,,,,,,,,,,,6039,1,2025-06-02_15h54.30.652,sm,2024.2.4,59.92911584207269,2025-06-02 15h54.59.469445 +0200,
44,0,44,,,,,,space,2.7132406999990053,None,None,None,None,,,0,0,0,0,,,,,1,0,1,0,,,,,44,0,44,0,934.9495152,,,,,,,,,,,,,,,,,,,,,,,,,,,,,,,,,,,,,,,,,,,,,,,,,,,,,Bücher,2.5377,934.9343126999993,934.9349523000001,934.9350589999995,934.9495152,937.4992301999991,937.4834419999988,937.4870408999996,937.4992301999991,937.4992301999991,937.4992301999991,937.4992301999991,939.4990905999985,939.4990905999985,939.4990905999985,939.4990905999985,939.4836000999985,None,None,,,,,,,,,,,,,,,,,,,,,,,,6039,1,2025-06-02_15h54.30.652,sm,2024.2.4,59.92911584207269,2025-06-02 15h54.59.469445 +0200,
45,0,45,,,,,,space,2.7132406999990053,None,None,None,None,,,0,0,0,0,,,,,1,0,1,0,,,,,45,0,45,0,939.4990905999985,,,,,,,,,,,,,,,,,,,,,,,,,,,,,,,,,,,,,,,,,,,,,,,,,,,,,Datei,2.3916,939.4840367999986,939.4847560999988,939.4849211000001,939.4990905999985,941.8990017999986,941.8831742999992,941.8872041999985,941.8990017999986,941.8990017999986,941.8990017999986,941.8990017999986,943.8987183999998,943.8987183999998,943.8987183999998,943.8987183999998,943.8833912999999,None,None,,,,,,,,,,,,,,,,,,,,,,,,6039,1,2025-06-02_15h54.30.652,sm,2024.2.4,59.92911584207269,2025-06-02 15h54.59.469445 +0200,
46,0,46,,,,,,space,2.7132406999990053,None,None,3,None,1.2896279000015056,0.270670699999755,0,0,0,0,,,,,1,0,1,0,,,,,46,0,46,0,943.8987183999998,,,,,,,,,,,,,,,,,,,,,,,,,,,,,,,,,,,,,,,,,,,,,,,,,,,,,Gelenk,2.6446,943.8838364999992,943.8843397,943.8844468999996,943.8987183999998,946.5486378999994,946.5328965999997,946.5370031999992,946.5486378999994,946.5486378999994,946.5486378999994,946.5486378999994,948.5486370999988,948.5486370999988,948.5486370999988,948.5486370999988,948.5329516000002,3,None,1.2896279000015056,0.270670699999755,,,,,,,,,,,,,,,,,,,,,,6039,1,2025-06-02_15h54.30.652,sm,2024.2.4,59.92911584207269,2025-06-02 15h54.59.469445 +0200,
47,0,47,,,,,,space,2.7132406999990053,None,None,2,None,0.7115130999991379,0.2074800000009418,0,0,0,0,,,,,1,0,1,0,,,,,47,0,47,0,948.5486370999988,,,,,,,,,,,,,,,,,,,,,,,,,,,,,,,,,,,,,,,,,,,,,,,,,,,,,Ozean,3.4445,948.5334449000002,948.5340987999989,948.5342029999993,948.5486370999988,951.9983772999985,951.9829239999999,951.9876518000001,951.9983772999985,951.9983772999985,951.9983772999985,951.9983772999985,953.9988737999993,953.9988737999993,953.9988737999993,953.9988737999993,953.9821947,2,None,0.7115130999991379,0.2074800000009418,,,,,,,,,,,,,,,,,,,,,,6039,1,2025-06-02_15h54.30.652,sm,2024.2.4,59.92911584207269,2025-06-02 15h54.59.469445 +0200,
48,0,48,,,,,,space,2.7132406999990053,None,None,3,None,0.6314834000004339,0.20405229999960284,0,0,0,0,,,,,1,0,1,0,,,,,48,0,48,0,953.9988737999993,,,,,,,,,,,,,,,,,,,,,,,,,,,,,,,,,,,,,,,,,,,,,,,,,,,,,Gleis,2.5519,953.9825580999986,953.9829900999994,953.9830712999992,953.9988737999993,956.5646459,956.5489836999986,956.5528808999989,956.5646459,956.5646459,956.5646459,956.5646459,958.5651591999995,958.5651591999995,958.5651591999995,958.5651591999995,958.5492806999991,3,None,0.6314834000004339,0.20405229999960284,,,,,,,,,,,,,,,,,,,,,,6039,1,2025-06-02_15h54.30.652,sm,2024.2.4,59.92911584207269,2025-06-02 15h54.59.469445 +0200,
49,0,49,,,,,,space,2.7132406999990053,None,None,3,None,0.6195989000007103,0.21541719999913767,0,0,0,0,,,,,1,0,1,0,,,,,49,0,49,0,958.5651591999995,,,,,,,,,,,,,,,,,,,,,,,,,,,,,,,,,,,,,,,,,,,,,,,,,,,,,Shampoo,2.83,958.5498136999995,958.5504653999997,958.5506287999997,958.5651591999995,961.3977507999989,961.382172399999,961.3865033000002,961.3977507999989,961.3977507999989,961.3977507999989,961.3977507999989,963.3976132999996,963.3976132999996,963.3976132999996,963.3976132999996,963.3824672999999,3,None,0.6195989000007103,0.21541719999913767,,,,,,,,,,,,,,,,,,,,,,6039,1,2025-06-02_15h54.30.652,sm,2024.2.4,59.92911584207269,2025-06-02 15h54.59.469445 +0200,
50,0,50,,,,,,space,2.7132406999990053,None,None,3,None,0.5664585000013176,0.20783409999967262,0,0,0,0,,,,,1,0,1,0,,,,,50,0,50,0,963.3976132999996,,,,,,,,,,,,,,,,,,,,,,,,,,,,,,,,,,,,,,,,,,,,,,,,,,,,,Schuh,2.9036,963.3829332999994,963.3835571,963.3836515999992,963.3976132999996,966.3142013999986,966.3011807999992,966.3045886999989,966.3142013999986,966.3142013999986,966.3142013999986,966.3142013999986,968.3141746000001,968.3141746000001,968.3141746000001,968.3141746000001,968.2984517999994,3,None,0.5664585000013176,0.20783409999967262,,,,,,,,,,,,,,,,,,,,,,6039,1,2025-06-02_15h54.30.652,sm,2024.2.4,59.92911584207269,2025-06-02 15h54.59.469445 +0200,
51,0,51,,,,,,space,2.7132406999990053,None,None,3,None,0.6010454000006575,0.1594358000002103,0,0,0,0,,,,,1,0,1,0,,,,,51,0,51,0,968.3141746000001,,,,,,,,,,,,,,,,,,,,,,,,,,,,,,,,,,,,,,,,,,,,,,,,,,,,,Hemd,2.1186,968.2989562999992,968.2994509,968.2995531999986,968.3141746000001,970.4471482999998,970.4313922999991,970.4348018000001,970.4471482999998,970.4471482999998,970.4471482999998,970.4471482999998,972.4472116999987,972.4472116999987,972.4472116999987,972.4472116999987,972.4312543999986,3,None,0.6010454000006575,0.1594358000002103,,,,,,,,,,,,,,,,,,,,,,6039,1,2025-06-02_15h54.30.652,sm,2024.2.4,59.92911584207269,2025-06-02 15h54.59.469445 +0200,
52,0,52,,,,,,space,2.7132406999990053,None,None,2,None,0.8991809999988618,0.2156598000001395,0,0,0,0,,,,,1,0,1,0,,,,,52,0,52,0,972.4472116999987,,,,,,,,,,,,,,,,,,,,,,,,,,,,,,,,,,,,,,,,,,,,,,,,,,,,,Wüste,4.5959,972.4316956000002,972.4321777999994,972.4322725000002,972.4472116999987,977.0470812999993,977.0317047999997,977.0353513999999,977.0470812999993,977.0470812999993,977.0470812999993,977.0470812999993,979.0467986999993,979.0467986999993,979.0467986999993,979.0467986999993,979.0312163999988,2,None,0.8991809999988618,0.2156598000001395,,,,,,,,,,,,,,,,,,,,,,6039,1,2025-06-02_15h54.30.652,sm,2024.2.4,59.92911584207269,2025-06-02 15h54.59.469445 +0200,
53,0,53,,,,,,space,2.7132406999990053,None,None,3,None,1.4114000999998098,0.25432530000034603,0,0,0,0,,,,,1,0,1,0,,,,,53,0,53,0,979.0467986999993,,,,,,,,,,,,,,,,,,,,,,,,,,,,,,,,,,,,,,,,,,,,,,,,,,,,,Beine,2.4167,979.0316836000002,979.0323047000002,979.0324008999996,979.0467986999993,981.4632925999995,981.4478381999998,981.4528114999994,981.4632925999995,981.4632925999995,981.4632925999995,981.4632925999995,983.4633042999994,983.4633042999994,983.4633042999994,983.4633042999994,983.4475499,3,None,1.4114000999998098,0.25432530000034603,,,,,,,,,,,,,,,,,,,,,,6039,1,2025-06-02_15h54.30.652,sm,2024.2.4,59.92911584207269,2025-06-02 15h54.59.469445 +0200,
54,0,54,,,,,,space,2.7132406999990053,None,None,2,None,0.8023998999997275,0.20682379999925615,0,0,0,0,,,,,1,0,1,0,,,,,54,0,54,0,983.4633042999994,,,,,,,,,,,,,,,,,,,,,,,,,,,,,,,,,,,,,,,,,,,,,,,,,,,,,Winter,3.1264,983.4480513999988,983.4485553999984,983.4486628999985,983.4633042999994,986.5962392000001,986.5808503999997,986.5851373999994,986.5962392000001,986.5962392000001,986.5962392000001,986.5962392000001,988.5962138999985,988.5962138999985,988.5962138999985,988.5962138999985,988.5807601999986,2,None,0.8023998999997275,0.20682379999925615,,,,,,,,,,,,,,,,,,,,,,6039,1,2025-06-02_15h54.30.652,sm,2024.2.4,59.92911584207269,2025-06-02 15h54.59.469445 +0200,
55,0,55,,,,,,space,2.7132406999990053,None,None,2,None,0.7874759999995149,0.20239320000109728,0,0,0,0,,,,,1,0,1,0,,,,,55,0,55,0,988.5962138999985,,,,,,,,,,,,,,,,,,,,,,,,,,,,,,,,,,,,,,,,,,,,,,,,,,,,,Strand,2.0589,988.5812461999994,988.5817234999995,988.5818220000001,988.5962138999985,990.662838799999,990.6471569999994,990.6514067999997,990.662838799999,990.662838799999,990.662838799999,990.662838799999,992.6628255999985,992.6628255999985,992.6628255999985,992.6628255999985,992.6470180999986,2,None,0.7874759999995149,0.20239320000109728,,,,,,,,,,,,,,,,,,,,,,6039,1,2025-06-02_15h54.30.652,sm,2024.2.4,59.92911584207269,2025-06-02 15h54.59.469445 +0200,
56,0,56,,,,,,space,2.7132406999990053,None,None,3,None,1.0691857000001619,0.2961998999999196,0,0,0,0,,,,,1,0,1,0,,,,,56,0,56,0,992.6628255999985,,,,,,,,,,,,,,,,,,,,,,,,,,,,,,,,,,,,,,,,,,,,,,,,,,,,,Schulter,2.8901,992.6474503999998,992.6480049999991,992.6481036999994,992.6628255999985,995.5623922999985,995.5470669999995,995.550896499999,995.5623922999985,995.5623922999985,995.5623922999985,995.5623922999985,997.5623790999998,997.5623790999998,997.5623790999998,997.5623790999998,997.5469552999984,3,None,1.0691857000001619,0.2961998999999196,,,,,,,,,,,,,,,,,,,,,,6039,1,2025-06-02_15h54.30.652,sm,2024.2.4,59.92911584207269,2025-06-02 15h54.59.469445 +0200,
57,0,57,,,,,,space,2.7132406999990053,None,None,3,None,0.7057599999989179,0.26425469999958295,0,0,0,0,,,,,1,0,1,0,,,,,57,0,57,0,997.5623790999998,,,,,,,,,,,,,,,,,,,,,,,,,,,,,,,,,,,,,,,,,,,,,,,,,,,,,Chips,2.3861,997.5474474000002,997.5480228999986,997.5481283999998,997.5623790999998,999.9620443999993,999.9462372999988,999.9497684999988,999.9620443999993,999.9620443999993,999.9620443999993,999.9620443999993,1001.9619956999995,1001.9619956999995,1001.9619956999995,1001.9619956999995,1001.9462695999991,3,None,0.7057599999989179,0.26425469999958295,,,,,,,,,,,,,,,,,,,,,,6039,1,2025-06-02_15h54.30.652,sm,2024.2.4,59.92911584207269,2025-06-02 15h54.59.469445 +0200,
58,0,58,,,,,,space,2.7132406999990053,None,None,3,None,0.8414735999995173,0.24934589999975287,0,0,0,0,,,,,1,0,1,0,,,,,58,0,58,0,1001.9619956999995,,,,,,,,,,,,,,,,,,,,,,,,,,,,,,,,,,,,,,,,,,,,,,,,,,,,,Stein,2.8863,1001.9466642999996,1001.9472532999989,1001.9473429999998,1001.9619956999995,1004.8619106999995,1004.8461010999999,1004.8492828999988,1004.8619106999995,1004.8619106999995,1004.8619106999995,1004.8619106999995,1006.8619667999992,1006.8619667999992,1006.8619667999992,1006.8619667999992,1006.8462191999988,3,None,0.8414735999995173,0.24934589999975287,,,,,,,,,,,,,,,,,,,,,,6039,1,2025-06-02_15h54.30.652,sm,2024.2.4,59.92911584207269,2025-06-02 15h54.59.469445 +0200,
59,0,59,,,,,,space,2.7132406999990053,None,None,3,None,0.8566946999999345,0.26624510000146984,0,0,0,0,,,,,1,0,1,0,,,,,59,0,59,0,1006.8619667999992,,,,,,,,,,,,,,,,,,,,,,,,,,,,,,,,,,,,,,,,,,,,,,,,,,,,,Geschmack,2.7378,1006.8466541999987,1006.8471897,1006.8472829000002,1006.8619667999992,1009.6116348999985,1009.5959853999993,1009.6005444999992,1009.6116348999985,1009.6116348999985,1009.6116348999985,1009.6116348999985,1011.6116086000002,1011.6116086000002,1011.6116086000002,1011.6116086000002,1011.5963513999995,3,None,0.8566946999999345,0.26624510000146984,,,,,,,,,,,,,,,,,,,,,,6039,1,2025-06-02_15h54.30.652,sm,2024.2.4,59.92911584207269,2025-06-02 15h54.59.469445 +0200,
60,0,60,,,,,,space,2.7132406999990053,None,None,None,None,,,0,0,0,0,,,,,1,0,1,0,,,,,60,0,60,0,1011.6116086000002,,,,,,,,,,,,,,,,,,,,,,,,,,,,,,,,,,,,,,,,,,,,,,,,,,,,,Loch,2.1743,1011.5968543999988,1011.597362999999,1011.5974663999987,1011.6116086000002,1013.7945423000001,1013.779220299999,1013.7826397999997,1013.7945423000001,1013.7945423000001,1013.7945423000001,1013.7945423000001,1015.7947630999988,1015.7947630999988,1015.7947630999988,1015.7947630999988,1015.7790936000001,None,None,,,,,,,,,,,,,,,,,,,,,,,,6039,1,2025-06-02_15h54.30.652,sm,2024.2.4,59.92911584207269,2025-06-02 15h54.59.469445 +0200,
61,0,61,,,,,,space,2.7132406999990053,None,None,3,None,1.3228278000005957,0.21008579999943322,0,0,0,0,,,,,1,0,1,0,,,,,61,0,61,0,1015.7947630999988,,,,,,,,,,,,,,,,,,,,,,,,,,,,,,,,,,,,,,,,,,,,,,,,,,,,,Essen,2.0934,1015.7795599000001,1015.7800498999986,1015.7801537999985,1015.7947630999988,1017.8946074999985,1017.8795222999997,1017.8837891999992,1017.8946074999985,1017.8946074999985,1017.8946074999985,1017.8946074999985,1019.8946519000001,1019.8946519000001,1019.8946519000001,1019.8946519000001,1019.8789068999995,3,None,1.3228278000005957,0.21008579999943322,,,,,,,,,,,,,,,,,,,,,,6039,1,2025-06-02_15h54.30.652,sm,2024.2.4,59.92911584207269,2025-06-02 15h54.59.469445 +0200,
62,0,62,,,,,,space,2.7132406999990053,None,None,3,None,0.6509015999999974,0.24135610000121233,0,0,0,0,,,,,1,0,1,0,,,,,62,0,62,0,1019.8946519000001,,,,,,,,,,,,,,,,,,,,,,,,,,,,,,,,,,,,,,,,,,,,,,,,,,,,,Wohnung,2.021,1019.8794136999986,1019.8802266000002,1019.8803356999997,1019.8946519000001,1021.9283477999998,1021.9120420999989,1021.9161565999984,1021.9283477999998,1021.9283477999998,1021.9283477999998,1021.9283477999998,1023.927796599999,1023.927796599999,1023.927796599999,1023.927796599999,1023.9122848999996,3,None,0.6509015999999974,0.24135610000121233,,,,,,,,,,,,,,,,,,,,,,6039,1,2025-06-02_15h54.30.652,sm,2024.2.4,59.92911584207269,2025-06-02 15h54.59.469445 +0200,
63,0,63,,,,,,space,2.7132406999990053,None,None,3,None,0.8122222000001784,0.22536810000019614,0,0,0,0,,,,,1,0,1,0,,,,,63,0,63,0,1023.927796599999,,,,,,,,,,,,,,,,,,,,,,,,,,,,,,,,,,,,,,,,,,,,,,,,,,,,,Olympia,2.0842,1023.9127706999989,1023.9134211,1023.9135271999985,1023.927796599999,1026.0280219999986,1026.0118966999999,1026.019512499999,1026.0280219999986,1026.0280219999986,1026.0280219999986,1026.0280219999986,1028.0276863999989,1028.0276863999989,1028.0276863999989,1028.0276863999989,1028.0117142,3,None,0.8122222000001784,0.22536810000019614,,,,,,,,,,,,,,,,,,,,,,6039,1,2025-06-02_15h54.30.652,sm,2024.2.4,59.92911584207269,2025-06-02 15h54.59.469445 +0200,
64,0,64,,,,,,space,2.7132406999990053,None,None,3,None,0.6440181999987544,0.25655860000006214,0,0,0,0,,,,,1,0,1,0,,,,,64,0,64,0,1028.0276863999989,,,,,,,,,,,,,,,,,,,,,,,,,,,,,,,,,,,,,,,,,,,,,,,,,,,,,Feuer,3.2825,1028.0121798,1028.0127770999989,1028.0128747999988,1028.0276863999989,1031.3101740999991,1031.294290599999,1031.2973922,1031.3101740999991,1031.3101740999991,1031.3101740999991,1031.3101740999991,1033.3104169999988,1033.3104169999988,1033.3104169999988,1033.3104169999988,1033.2948263999988,3,None,0.6440181999987544,0.25655860000006214,,,,,,,,,,,,,,,,,,,,,,6039,1,2025-06-02_15h54.30.652,sm,2024.2.4,59.92911584207269,2025-06-02 15h54.59.469445 +0200,
