thisN,thisTrialN,thisRepN,Cue,Target,Mediator1,Mediator2,iti,scanner_ready_press.keys,scanner_ready_press.rt,scanner_ready_press.duration,skip_trigger.keys,living_nonliving.keys,living_nonliving.rt,living_nonliving.duration,end_mapping.keys,blocks.thisRepN,blocks.thisTrialN,blocks.thisN,blocks.thisIndex,load_and_shuffle.thisRepN,load_and_shuffle.thisTrialN,load_and_shuffle.thisN,load_and_shuffle.thisIndex,runs.thisRepN,runs.thisTrialN,runs.thisN,runs.thisIndex,iti_loading_loop.thisRepN,iti_loading_loop.thisTrialN,iti_loading_loop.thisN,iti_loading_loop.thisIndex,semantic_mapping_run.thisRepN,semantic_mapping_run.thisTrialN,semantic_mapping_run.thisN,semantic_mapping_run.thisIndex,thisRow.t,notes,welcome.started,welcome_text.started,key_resp__welcome.started,welcome.stopped,key_resp__welcome.keys,key_resp__welcome.rt,key_resp__welcome.duration,scout.started,scout_text.started,key_resp.started,scout.stopped,key_resp.keys,key_resp.rt,key_resp.duration,instructions_semantic_mapping1.started,sm_instructions1_text.started,sm_instructions1_key.started,instructions_semantic_mapping1.stopped,sm_instructions1_key.keys,sm_instructions1_key.rt,sm_instructions1_key.duration,instructions_semantic_mapping2.started,sm_instructions2_text.started,sm_instructions2_key.started,instructions_semantic_mapping2.stopped,sm_instructions2_key.keys,sm_instructions2_key.rt,sm_instructions2_key.duration,reset_run.started,reset_run.stopped,shuffle_items.started,shuffle_items.stopped,set_up_runs.started,set_up_runs.stopped,load_iti.started,load_iti.stopped,prep_scanner.started,scanner_ready_press.started,ready_set_text.started,prep_scanner.stopped,runs.scanner_ready_press.keys,runs.scanner_ready_press.rt,runs.scanner_ready_press.duration,wait_for_trigger.started,starting_soon.started,skip_trigger.started,wait_for_trigger.stopped,runs.skip_trigger.keys,blank.started,begin_end_run_cross.started,sound_1.started,sound_1.stopped,sound_2.started,sound_2.stopped,blank.stopped,CurrentItem,CurrentITI,set_up_trial.started,set_up_trial.stopped,sm_iti.started,iti_cross.started,iti_cross.stopped,sm_iti.stopped,item.started,living_nonliving.started,end_mapping.started,living_nonliving_text.started,semantic_map_item.started,living_nonliving.stopped,end_mapping.stopped,living_nonliving_text.stopped,semantic_map_item.stopped,item.stopped,semantic_mapping_run.living_nonliving.keys,semantic_mapping_run.living_nonliving.rt,semantic_mapping_run.living_nonliving.duration,semantic_mapping_run.end_mapping.keys,fieldmap.started,fieldmap.stopped,runs.fm_key.keys,task_break.started,feeback_text.started,task_break_text.started,task_break_resp.started,feeback_text.stopped,task_break.stopped,runs.task_break_resp.keys,runs.task_break_resp.rt,runs.task_break_resp.duration,begin_end_run_cross.stopped,fm_text.started,fm_key.started,runs.fm_key.rt,runs.fm_key.duration,thanks.started,thanks_text.started,thanks_text.stopped,thanks.stopped,PID,MRI,date,expName,psychopyVersion,frameRate,expStart,
,,,,,,,,,,,,,,,,,,,,,,,,,,,,,,,,,,,,,,0.003385600000001432,0.01752390000001469,0.01752390000001469,144.11769619999995,space,144.0878276000003,None,,,,,,,,,,,,,,,,,,,,,,,,,,,,,,,,,,,,,,,,,,,,,,,,,,,,,,,,,,,,,,,,,,,,,,,,,,,,,,,,,,,,,,,,,,,,5968,1,2025-06-23_14h07.14.193,sm,2024.2.4,59.97897137267483,2025-06-23 14h07.22.738442 +0200,
,,,,,,,,,,,,,,,,,,,,,,,,,,,,,,,,,,,,,,,,,,,,,144.11782349999976,144.12674809999953,144.12674809999953,238.62368139999944,space,94.49216509999951,None,,,,,,,,,,,,,,,,,,,,,,,,,,,,,,,,,,,,,,,,,,,,,,,,,,,,,,,,,,,,,,,,,,,,,,,,,,,,,,,,,,,,,5968,1,2025-06-23_14h07.14.193,sm,2024.2.4,59.97897137267483,2025-06-23 14h07.22.738442 +0200,
,,,,,,,,,,,,,,,,,,,,,,,,,,,,,,,,,,,,,,,,,,,,,,,,,,,,238.62380099999973,238.63821329999973,238.63821329999973,245.85425459999988,2,7.204603700000007,None,,,,,,,,,,,,,,,,,,,,,,,,,,,,,,,,,,,,,,,,,,,,,,,,,,,,,,,,,,,,,,,,,,,,,,,,,,,,,,5968,1,2025-06-23_14h07.14.193,sm,2024.2.4,59.97897137267483,2025-06-23 14h07.22.738442 +0200,
,,,,,,,,,,,,,,,,,,,,,,,,,,,,,,,,,,,,,,,,,,,,,,,,,,,,,,,,,,,245.85442639999928,245.8693599999997,245.8693599999997,259.1206311999995,2,13.24101889999929,None,,,,,,,,,,,,,,,,,,,,,,,,,,,,,,,,,,,,,,,,,,,,,,,,,,,,,,,,,,,,,,,,,,,,,,,5968,1,2025-06-23_14h07.14.193,sm,2024.2.4,59.97897137267483,2025-06-23 14h07.22.738442 +0200,
0,0,0,Kino,Popcorn,Theater,Film,2.7501,space,3.907717899999625,None,None,2,1.6203409999998257,0.16952980000041862,None,0,0,0,0,0,79,79,36,0,0,0,0,0,79,79,8,0,0,0,0,320.90006300000005,,,,,,,,,,,,,,,,,,,,,,,,,,,,,,259.1215440999995,259.1222466999998,259.1945103999997,259.1947685999994,259.1992104000001,259.1994915999994,259.2287749999996,259.22896929999933,259.2356878999999,259.2396175999993,259.2396175999993,263.15508169999976,space,3.907717899999625,None,263.15523889999986,263.17008199999964,263.17008199999964,308.8688782999998,None,308.8778795999997,308.8869171999995,308.8841994666666,310.0904925999994,318.88370166666596,319.89068359999965,320.88396399999965,Spion,2.7501,320.8855034999997,320.8861981,320.8897401999993,320.90006300000005,323.6499549,323.63440059999994,323.63857740000003,323.6499549,323.6499549,323.6499549,323.6499549,325.6501781999996,325.6501781999996,325.6501781999996,325.6501781999996,325.6343612999999,2,1.6203409999998257,0.16952980000041862,None,,,,,,,,,,,,,,,,,,,,,,5968,1,2025-06-23_14h07.14.193,sm,2024.2.4,59.97897137267483,2025-06-23 14h07.22.738442 +0200,
1,0,1,,,,,,space,3.907717899999625,None,None,3,0.9862567999998646,0.2310031999995772,None,0,0,0,0,,,,,0,0,0,0,,,,,1,0,1,0,325.6501781999996,,,,,,,,,,,,,,,,,,,,,,,,,,,,,,,,,,,,,,,,,,,,,,,,,,,,,,,,,Datei,2.048,325.63489130000016,325.6354139999994,325.6355199999998,325.6501781999996,327.6996081999996,327.68394480000006,327.6872278999999,327.6996081999996,327.6996081999996,327.6996081999996,327.6996081999996,329.69956999999977,329.69956999999977,329.69956999999977,329.69956999999977,329.6840238999994,3,0.9862567999998646,0.2310031999995772,None,,,,,,,,,,,,,,,,,,,,,,5968,1,2025-06-23_14h07.14.193,sm,2024.2.4,59.97897137267483,2025-06-23 14h07.22.738442 +0200,
2,0,2,,,,,,space,3.907717899999625,None,None,3,1.0156072999998287,0.2502268999996886,None,0,0,0,0,,,,,0,0,0,0,,,,,2,0,2,0,329.69956999999977,,,,,,,,,,,,,,,,,,,,,,,,,,,,,,,,,,,,,,,,,,,,,,,,,,,,,,,,,Wind,2.3585,329.68454159999965,329.6850445,329.6851507000001,329.69956999999977,332.06586569999945,332.0504426999996,332.05436499999996,332.06586569999945,332.06586569999945,332.06586569999945,332.06586569999945,334.0660541999996,334.0660541999996,334.0660541999996,334.0660541999996,334.05050070000016,3,1.0156072999998287,0.2502268999996886,None,,,,,,,,,,,,,,,,,,,,,,5968,1,2025-06-23_14h07.14.193,sm,2024.2.4,59.97897137267483,2025-06-23 14h07.22.738442 +0200,
3,0,3,,,,,,space,3.907717899999625,None,None,3,1.352740399999675,0.21983499999987544,None,0,0,0,0,,,,,0,0,0,0,,,,,3,0,3,0,334.0660541999996,,,,,,,,,,,,,,,,,,,,,,,,,,,,,,,,,,,,,,,,,,,,,,,,,,,,,,,,,Riechen,3.8802,334.05101729999933,334.0515435999996,334.05164969999987,334.0660541999996,337.94902850000017,337.9337158999997,337.9378265999994,337.94902850000017,337.94902850000017,337.94902850000017,337.94902850000017,339.9490672000002,339.9490672000002,339.9490672000002,339.9490672000002,339.93354199999976,3,1.352740399999675,0.21983499999987544,None,,,,,,,,,,,,,,,,,,,,,,5968,1,2025-06-23_14h07.14.193,sm,2024.2.4,59.97897137267483,2025-06-23 14h07.22.738442 +0200,
4,0,4,,,,,,space,3.907717899999625,None,None,2,0.9452959000000192,0.19007050000072923,None,0,0,0,0,,,,,0,0,0,0,,,,,4,0,4,0,339.9490672000002,,,,,,,,,,,,,,,,,,,,,,,,,,,,,,,,,,,,,,,,,,,,,,,,,,,,,,,,,Freund,4.471,339.9340558999993,339.93461750000006,339.9347209999996,339.9490672000002,344.4318045,344.4163957999999,344.4222479,344.4318045,344.4318045,344.4318045,344.4318045,346.4321665999996,346.4321665999996,346.4321665999996,346.4321665999996,346.41662929999984,2,0.9452959000000192,0.19007050000072923,None,,,,,,,,,,,,,,,,,,,,,,5968,1,2025-06-23_14h07.14.193,sm,2024.2.4,59.97897137267483,2025-06-23 14h07.22.738442 +0200,
5,0,5,,,,,,space,3.907717899999625,None,None,3,1.1867733999997654,0.22431649999998626,None,0,0,0,0,,,,,0,0,0,0,,,,,5,0,5,0,346.4321665999996,,,,,,,,,,,,,,,,,,,,,,,,,,,,,,,,,,,,,,,,,,,,,,,,,,,,,,,,,Apfel,3.1693,346.4171397,346.4176508999999,346.4177565,346.4321665999996,349.6149667999998,349.5996801000001,349.60312259999955,349.6149667999998,349.6149667999998,349.6149667999998,349.6149667999998,351.6149574000001,351.6149574000001,351.6149574000001,351.6149574000001,351.5996568999999,3,1.1867733999997654,0.22431649999998626,None,,,,,,,,,,,,,,,,,,,,,,5968,1,2025-06-23_14h07.14.193,sm,2024.2.4,59.97897137267483,2025-06-23 14h07.22.738442 +0200,
6,0,6,,,,,,space,3.907717899999625,None,None,3,0.777652599999783,0.19845600000007835,None,0,0,0,0,,,,,0,0,0,0,,,,,6,0,6,0,351.6149574000001,,,,,,,,,,,,,,,,,,,,,,,,,,,,,,,,,,,,,,,,,,,,,,,,,,,,,,,,,Bild,2.1491,351.6001140999997,351.6005931999998,351.6006856999993,351.6149574000001,353.76497389999986,353.7495220999999,353.753232,353.76497389999986,353.76497389999986,353.76497389999986,353.76497389999986,355.7649115999993,355.7649115999993,355.7649115999993,355.7649115999993,355.7492936999997,3,0.777652599999783,0.19845600000007835,None,,,,,,,,,,,,,,,,,,,,,,5968,1,2025-06-23_14h07.14.193,sm,2024.2.4,59.97897137267483,2025-06-23 14h07.22.738442 +0200,
7,0,7,,,,,,space,3.907717899999625,None,None,3,0.8927617999997892,0.23631199999999808,None,0,0,0,0,,,,,0,0,0,0,,,,,7,0,7,0,355.7649115999993,,,,,,,,,,,,,,,,,,,,,,,,,,,,,,,,,,,,,,,,,,,,,,,,,,,,,,,,,Schwarz,2.4476,355.7498866999995,355.7503931000001,355.7505050999998,355.7649115999993,358.21531549999963,358.1992359999995,358.2026522999995,358.21531549999963,358.21531549999963,358.21531549999963,358.21531549999963,360.2148465999999,360.2148465999999,360.2148465999999,360.2148465999999,360.1990476000001,3,0.8927617999997892,0.23631199999999808,None,,,,,,,,,,,,,,,,,,,,,,5968,1,2025-06-23_14h07.14.193,sm,2024.2.4,59.97897137267483,2025-06-23 14h07.22.738442 +0200,
8,0,8,,,,,,space,3.907717899999625,None,None,3,0.8334190999994462,0.2513284000006024,None,0,0,0,0,,,,,0,0,0,0,,,,,8,0,8,0,360.2148465999999,,,,,,,,,,,,,,,,,,,,,,,,,,,,,,,,,,,,,,,,,,,,,,,,,,,,,,,,,Spaghetti,2.04,360.1995518999993,360.2000717000001,360.2001793999998,360.2148465999999,362.2644418,362.2489267000001,362.2540347999993,362.2644418,362.2644418,362.2644418,362.2644418,364.2644365999995,364.2644365999995,364.2644365999995,364.2644365999995,364.2488432,3,0.8334190999994462,0.2513284000006024,None,,,,,,,,,,,,,,,,,,,,,,5968,1,2025-06-23_14h07.14.193,sm,2024.2.4,59.97897137267483,2025-06-23 14h07.22.738442 +0200,
9,0,9,,,,,,space,3.907717899999625,None,None,3,0.7656256999998732,0.2134663000006185,None,0,0,0,0,,,,,0,0,0,0,,,,,9,0,9,0,364.2644365999995,,,,,,,,,,,,,,,,,,,,,,,,,,,,,,,,,,,,,,,,,,,,,,,,,,,,,,,,,Popcorn,2.3392,364.24935449999975,364.2500007999997,364.2501070999997,364.2644365999995,366.61392389999946,366.59855289999996,366.6045290000002,366.61392389999946,366.61392389999946,366.61392389999946,366.61392389999946,368.6143241999998,368.6143241999998,368.6143241999998,368.6143241999998,368.5985407999997,3,0.7656256999998732,0.2134663000006185,None,,,,,,,,,,,,,,,,,,,,,,5968,1,2025-06-23_14h07.14.193,sm,2024.2.4,59.97897137267483,2025-06-23 14h07.22.738442 +0200,
10,0,10,,,,,,space,3.907717899999625,None,None,3,0.9155441000002611,0.23915110000052664,None,0,0,0,0,,,,,0,0,0,0,,,,,10,0,10,0,368.6143241999998,,,,,,,,,,,,,,,,,,,,,,,,,,,,,,,,,,,,,,,,,,,,,,,,,,,,,,,,,Ostern,2.0178,368.5990613999993,368.5996325999995,368.59973979999995,368.6143241999998,370.6472033,370.6318468999998,370.63687409999966,370.6472033,370.6472033,370.6472033,370.6472033,372.6473839999999,372.6473839999999,372.6473839999999,372.6473839999999,372.63163709999935,3,0.9155441000002611,0.23915110000052664,None,,,,,,,,,,,,,,,,,,,,,,5968,1,2025-06-23_14h07.14.193,sm,2024.2.4,59.97897137267483,2025-06-23 14h07.22.738442 +0200,
11,0,11,,,,,,space,3.907717899999625,None,None,3,0.982069099999535,0.16655570000057196,None,0,0,0,0,,,,,0,0,0,0,,,,,11,0,11,0,372.6473839999999,,,,,,,,,,,,,,,,,,,,,,,,,,,,,,,,,,,,,,,,,,,,,,,,,,,,,,,,,Sturm,3.2087,372.63211499999943,372.63260979999995,372.6327099,372.6473839999999,375.8635280999997,375.8478835999995,375.85145439999997,375.8635280999997,375.8635280999997,375.8635280999997,375.8635280999997,377.8637619000001,377.8637619000001,377.8637619000001,377.8637619000001,377.84823379999943,3,0.982069099999535,0.16655570000057196,None,,,,,,,,,,,,,,,,,,,,,,5968,1,2025-06-23_14h07.14.193,sm,2024.2.4,59.97897137267483,2025-06-23 14h07.22.738442 +0200,
12,0,12,,,,,,space,3.907717899999625,None,None,3,0.942866000000322,0.17223009999997885,None,0,0,0,0,,,,,0,0,0,0,,,,,12,0,12,0,377.8637619000001,,,,,,,,,,,,,,,,,,,,,,,,,,,,,,,,,,,,,,,,,,,,,,,,,,,,,,,,,Geschirr,2.1055,377.8487501999998,377.84926879999966,377.84937509999963,377.8637619000001,379.9801338999996,379.96453479999946,379.9686382,379.9801338999996,379.9801338999996,379.9801338999996,379.9801338999996,381.98009249999996,381.98009249999996,381.98009249999996,381.98009249999996,381.9646501999996,3,0.942866000000322,0.17223009999997885,None,,,,,,,,,,,,,,,,,,,,,,5968,1,2025-06-23_14h07.14.193,sm,2024.2.4,59.97897137267483,2025-06-23 14h07.22.738442 +0200,
13,0,13,,,,,,space,3.907717899999625,None,None,3,0.8813376999996763,0.21784019999995508,None,0,0,0,0,,,,,0,0,0,0,,,,,13,0,13,0,381.98009249999996,,,,,,,,,,,,,,,,,,,,,,,,,,,,,,,,,,,,,,,,,,,,,,,,,,,,,,,,,Asche,2.8735,381.9651595999994,381.9656922999993,381.96579719999954,381.98009249999996,384.86286870000004,384.84747400000015,384.85071419999986,384.86286870000004,384.86286870000004,384.86286870000004,384.86286870000004,386.8633381999998,386.8633381999998,386.8633381999998,386.8633381999998,386.84814730000016,3,0.8813376999996763,0.21784019999995508,None,,,,,,,,,,,,,,,,,,,,,,5968,1,2025-06-23_14h07.14.193,sm,2024.2.4,59.97897137267483,2025-06-23 14h07.22.738442 +0200,
14,0,14,,,,,,space,3.907717899999625,None,None,3,0.8412826000003406,0.18790749999971013,None,0,0,0,0,,,,,0,0,0,0,,,,,14,0,14,0,386.8633381999998,,,,,,,,,,,,,,,,,,,,,,,,,,,,,,,,,,,,,,,,,,,,,,,,,,,,,,,,,Ball,2.9855,386.8486503999993,386.8491869999998,386.84929079999984,386.8633381999998,389.86294199999975,389.84729679999964,389.85159419999945,389.86294199999975,389.86294199999975,389.86294199999975,389.86294199999975,391.8629942999996,391.8629942999996,391.8629942999996,391.8629942999996,391.8472230999996,3,0.8412826000003406,0.18790749999971013,None,,,,,,,,,,,,,,,,,,,,,,5968,1,2025-06-23_14h07.14.193,sm,2024.2.4,59.97897137267483,2025-06-23 14h07.22.738442 +0200,
15,0,15,,,,,,space,3.907717899999625,None,None,3,1.0264446999999564,0.23217600000043603,None,0,0,0,0,,,,,0,0,0,0,,,,,15,0,15,0,391.8629942999996,,,,,,,,,,,,,,,,,,,,,,,,,,,,,,,,,,,,,,,,,,,,,,,,,,,,,,,,,Fakt,3.8906,391.8476691999995,391.8481919999995,391.84828299999936,391.8629942999996,395.7623133999996,395.74679039999955,395.7499812999995,395.7623133999996,395.7623133999996,395.7623133999996,395.7623133999996,397.7624109999997,397.7624109999997,397.7624109999997,397.7624109999997,397.7473599999994,3,1.0264446999999564,0.23217600000043603,None,,,,,,,,,,,,,,,,,,,,,,5968,1,2025-06-23_14h07.14.193,sm,2024.2.4,59.97897137267483,2025-06-23 14h07.22.738442 +0200,
16,0,16,,,,,,space,3.907717899999625,None,None,3,1.5087659000000713,0.18990980000035051,None,0,0,0,0,,,,,0,0,0,0,,,,,16,0,16,0,397.7624109999997,,,,,,,,,,,,,,,,,,,,,,,,,,,,,,,,,,,,,,,,,,,,,,,,,,,,,,,,,Geschmack,2.5939,397.74786609999956,397.7485394999994,397.7486476999993,397.7624109999997,400.3623461999996,400.3466822999999,400.35110989999976,400.3623461999996,400.3623461999996,400.3623461999996,400.3623461999996,402.3623649000001,402.3623649000001,402.3623649000001,402.3623649000001,402.3466426999994,3,1.5087659000000713,0.18990980000035051,None,,,,,,,,,,,,,,,,,,,,,,5968,1,2025-06-23_14h07.14.193,sm,2024.2.4,59.97897137267483,2025-06-23 14h07.22.738442 +0200,
17,0,17,,,,,,space,3.907717899999625,None,None,3,1.0264200000001438,0.19646999999986292,None,0,0,0,0,,,,,0,0,0,0,,,,,17,0,17,0,402.3623649000001,,,,,,,,,,,,,,,,,,,,,,,,,,,,,,,,,,,,,,,,,,,,,,,,,,,,,,,,,Kerzen,2.0203,402.3471579999996,402.3477990000001,402.34790350000003,402.3623649000001,404.3954653999999,404.3797281999996,404.386262,404.3954653999999,404.3954653999999,404.3954653999999,404.3954653999999,406.3953547000001,406.3953547000001,406.3953547000001,406.3953547000001,406.3798931000001,3,1.0264200000001438,0.19646999999986292,None,,,,,,,,,,,,,,,,,,,,,,5968,1,2025-06-23_14h07.14.193,sm,2024.2.4,59.97897137267483,2025-06-23 14h07.22.738442 +0200,
18,0,18,,,,,,space,3.907717899999625,None,None,3,0.9221827999999732,0.19446130000051198,None,0,0,0,0,,,,,0,0,0,0,,,,,18,0,18,0,406.3953547000001,,,,,,,,,,,,,,,,,,,,,,,,,,,,,,,,,,,,,,,,,,,,,,,,,,,,,,,,,Spülung,2.1467,406.3804031999998,406.3809118999998,406.3810175999997,406.3953547000001,408.5452881000001,408.5295852999998,408.5332029000001,408.5452881000001,408.5452881000001,408.5452881000001,408.5452881000001,410.5454413999996,410.5454413999996,410.5454413999996,410.5454413999996,410.5299236000001,3,0.9221827999999732,0.19446130000051198,None,,,,,,,,,,,,,,,,,,,,,,5968,1,2025-06-23_14h07.14.193,sm,2024.2.4,59.97897137267483,2025-06-23 14h07.22.738442 +0200,
19,0,19,,,,,,space,3.907717899999625,None,None,3,1.6338322999999946,0.19558979999965231,None,0,0,0,0,,,,,0,0,0,0,,,,,19,0,19,0,410.5454413999996,,,,,,,,,,,,,,,,,,,,,,,,,,,,,,,,,,,,,,,,,,,,,,,,,,,,,,,,,Komödie,2.4487,410.5304378999999,410.53105199999936,410.5311563999994,410.5454413999996,412.9948697,412.9792209999996,412.9829179999997,412.9948697,412.9948697,412.9948697,412.9948697,414.9948217000001,414.9948217000001,414.9948217000001,414.9948217000001,414.9796689999994,3,1.6338322999999946,0.19558979999965231,None,,,,,,,,,,,,,,,,,,,,,,5968,1,2025-06-23_14h07.14.193,sm,2024.2.4,59.97897137267483,2025-06-23 14h07.22.738442 +0200,
20,0,20,,,,,,space,3.907717899999625,None,None,2,1.5206034000002546,0.19816199999968376,None,0,0,0,0,,,,,0,0,0,0,,,,,20,0,20,0,414.9948217000001,,,,,,,,,,,,,,,,,,,,,,,,,,,,,,,,,,,,,,,,,,,,,,,,,,,,,,,,,Schulter,4.0672,414.98018239999965,414.9806945999999,414.98079770000004,414.9948217000001,419.06141789999947,419.04571639999995,419.0507238,419.06141789999947,419.06141789999947,419.06141789999947,419.06141789999947,421.0613687999994,421.0613687999994,421.0613687999994,421.0613687999994,421.04547469999943,2,1.5206034000002546,0.19816199999968376,None,,,,,,,,,,,,,,,,,,,,,,5968,1,2025-06-23_14h07.14.193,sm,2024.2.4,59.97897137267483,2025-06-23 14h07.22.738442 +0200,
21,0,21,,,,,,space,3.907717899999625,None,None,3,0.980529899999965,0.2550228000000061,None,0,0,0,0,,,,,0,0,0,0,,,,,21,0,21,0,421.0613687999994,,,,,,,,,,,,,,,,,,,,,,,,,,,,,,,,,,,,,,,,,,,,,,,,,,,,,,,,,Club,2.9626,421.0459241999997,421.0464889999994,421.0465829999994,421.0613687999994,424.02766359999987,424.01204849999976,424.0181573,424.02766359999987,424.02766359999987,424.02766359999987,424.02766359999987,426.0276715,426.0276715,426.0276715,426.0276715,426.0120711999998,3,0.980529899999965,0.2550228000000061,None,,,,,,,,,,,,,,,,,,,,,,5968,1,2025-06-23_14h07.14.193,sm,2024.2.4,59.97897137267483,2025-06-23 14h07.22.738442 +0200,
22,0,22,,,,,,space,3.907717899999625,None,None,3,0.8002586000002339,0.24841209999976854,None,0,0,0,0,,,,,0,0,0,0,,,,,22,0,22,0,426.0276715,,,,,,,,,,,,,,,,,,,,,,,,,,,,,,,,,,,,,,,,,,,,,,,,,,,,,,,,,Tür,2.1385,426.01258979999966,426.0131520999994,426.0132586999998,426.0276715,428.17747299999974,428.16157269999985,428.16469340000003,428.17747299999974,428.17747299999974,428.17747299999974,428.17747299999974,430.17736759999934,430.17736759999934,430.17736759999934,430.17736759999934,430.1618542999995,3,0.8002586000002339,0.24841209999976854,None,,,,,,,,,,,,,,,,,,,,,,5968,1,2025-06-23_14h07.14.193,sm,2024.2.4,59.97897137267483,2025-06-23 14h07.22.738442 +0200,
23,0,23,,,,,,space,3.907717899999625,None,None,3,1.3377386000001934,0.23995860000013636,None,0,0,0,0,,,,,0,0,0,0,,,,,23,0,23,0,430.17736759999934,,,,,,,,,,,,,,,,,,,,,,,,,,,,,,,,,,,,,,,,,,,,,,,,,,,,,,,,,Gegenwart,2.4678,430.16236859999935,430.16302050000013,430.1631245999997,430.17736759999934,432.66051309999966,432.6450651999994,432.6494116999993,432.66051309999966,432.66051309999966,432.66051309999966,432.66051309999966,434.6610065999994,434.6610065999994,434.6610065999994,434.6610065999994,434.6449858999995,3,1.3377386000001934,0.23995860000013636,None,,,,,,,,,,,,,,,,,,,,,,5968,1,2025-06-23_14h07.14.193,sm,2024.2.4,59.97897137267483,2025-06-23 14h07.22.738442 +0200,
24,0,24,,,,,,space,3.907717899999625,None,None,3,0.8268076999993355,0.20186920000014652,None,0,0,0,0,,,,,0,0,0,0,,,,,24,0,24,0,434.6610065999994,,,,,,,,,,,,,,,,,,,,,,,,,,,,,,,,,,,,,,,,,,,,,,,,,,,,,,,,,Wohnung,2.079,434.64549629999965,434.6460245999997,434.6461303999995,434.6610065999994,436.74346069999956,436.72829139999976,436.73186239999995,436.74346069999956,436.74346069999956,436.74346069999956,436.74346069999956,438.7436805999996,438.7436805999996,438.7436805999996,438.7436805999996,438.72813059999953,3,0.8268076999993355,0.20186920000014652,None,,,,,,,,,,,,,,,,,,,,,,5968,1,2025-06-23_14h07.14.193,sm,2024.2.4,59.97897137267483,2025-06-23 14h07.22.738442 +0200,
25,0,25,,,,,,space,3.907717899999625,None,None,3,0.7834600999995018,0.21337560000029043,None,0,0,0,0,,,,,0,0,0,0,,,,,25,0,25,0,438.7436805999996,,,,,,,,,,,,,,,,,,,,,,,,,,,,,,,,,,,,,,,,,,,,,,,,,,,,,,,,,Teleskop,2.0718,438.72865619999993,438.7292305000001,438.729335,438.7436805999996,440.8266040999997,440.81099819999963,440.8144281999994,440.8266040999997,440.8266040999997,440.8266040999997,440.8266040999997,442.82691650000015,442.82691650000015,442.82691650000015,442.82691650000015,442.81113559999994,3,0.7834600999995018,0.21337560000029043,None,,,,,,,,,,,,,,,,,,,,,,5968,1,2025-06-23_14h07.14.193,sm,2024.2.4,59.97897137267483,2025-06-23 14h07.22.738442 +0200,
26,0,26,,,,,,space,3.907717899999625,None,None,3,1.3320409999996627,0.1922236000000339,None,0,0,0,0,,,,,0,0,0,0,,,,,26,0,26,0,442.82691650000015,,,,,,,,,,,,,,,,,,,,,,,,,,,,,,,,,,,,,,,,,,,,,,,,,,,,,,,,,Afrika,3.3336,442.8116424,442.8121537999996,442.8122728999997,442.82691650000015,446.15988860000016,446.1441961999999,446.14911049999955,446.15988860000016,446.15988860000016,446.15988860000016,446.15988860000016,448.16021399999954,448.16021399999954,448.16021399999954,448.16021399999954,448.1441595999995,3,1.3320409999996627,0.1922236000000339,None,,,,,,,,,,,,,,,,,,,,,,5968,1,2025-06-23_14h07.14.193,sm,2024.2.4,59.97897137267483,2025-06-23 14h07.22.738442 +0200,
27,0,27,,,,,,space,3.907717899999625,None,None,2,1.733109599999807,0.1892177999998239,None,0,0,0,0,,,,,0,0,0,0,,,,,27,0,27,0,448.16021399999954,,,,,,,,,,,,,,,,,,,,,,,,,,,,,,,,,,,,,,,,,,,,,,,,,,,,,,,,,Sumpf,3.7553,448.1446443999994,448.14513910000005,448.1452405,448.16021399999954,451.9267412999998,451.9103089,451.9136574999993,451.9267412999998,451.9267412999998,451.9267412999998,451.9267412999998,453.9260211999999,453.9260211999999,453.9260211999999,453.9260211999999,453.91035680000005,2,1.733109599999807,0.1892177999998239,None,,,,,,,,,,,,,,,,,,,,,,5968,1,2025-06-23_14h07.14.193,sm,2024.2.4,59.97897137267483,2025-06-23 14h07.22.738442 +0200,
28,0,28,,,,,,space,3.907717899999625,None,None,3,0.9023444999993444,0.205541300000732,None,0,0,0,0,,,,,0,0,0,0,,,,,28,0,28,0,453.9260211999999,,,,,,,,,,,,,,,,,,,,,,,,,,,,,,,,,,,,,,,,,,,,,,,,,,,,,,,,,Hammer,3.2317,453.91086689999975,453.91151290000016,453.91161719999945,453.9260211999999,457.1759732999999,457.1436126999997,457.15140539999993,457.1759732999999,457.1759732999999,457.1759732999999,457.1759732999999,,,,,459.15926690000015,3,0.9023444999993444,0.205541300000732,None,,,,,,,,,,,,,,,,,,,,,,5968,1,2025-06-23_14h07.14.193,sm,2024.2.4,59.97897137267483,2025-06-23 14h07.22.738442 +0200,
29,0,29,,,,,,space,3.907717899999625,None,None,3,1.0052145999998174,0.1865402000003087,None,0,0,0,0,,,,,0,0,0,0,,,,,29,0,29,0,459.1756422999997,,,,,,,,,,,,,,,,,,,,,,,,,,,,,,,,,,,,,,,,,,,,,,,,,,,,,,,,,Hügel,5.0432,459.1597280999995,459.1603647000002,459.1604676999996,459.1756422999997,464.22536149999996,464.20967589999964,464.2138832999999,464.22536149999996,464.22536149999996,464.22536149999996,464.22536149999996,466.2254653,466.2254653,466.2254653,466.2254653,466.20999459999985,3,1.0052145999998174,0.1865402000003087,None,,,,,,,,,,,,,,,,,,,,,,5968,1,2025-06-23_14h07.14.193,sm,2024.2.4,59.97897137267483,2025-06-23 14h07.22.738442 +0200,
30,0,30,,,,,,space,3.907717899999625,None,None,3,0.8761131999999634,0.2309625000007145,None,0,0,0,0,,,,,0,0,0,0,,,,,30,0,30,0,466.2254653,,,,,,,,,,,,,,,,,,,,,,,,,,,,,,,,,,,,,,,,,,,,,,,,,,,,,,,,,Rolle,3.7998,466.2104903999998,466.21100560000014,466.2111133999997,466.2254653,470.02497049999965,470.0092556999998,470.0127511999999,470.02497049999965,470.02497049999965,470.02497049999965,470.02497049999965,472.0250944999998,472.0250944999998,472.0250944999998,472.0250944999998,472.00940230000015,3,0.8761131999999634,0.2309625000007145,None,,,,,,,,,,,,,,,,,,,,,,5968,1,2025-06-23_14h07.14.193,sm,2024.2.4,59.97897137267483,2025-06-23 14h07.22.738442 +0200,
31,0,31,,,,,,space,3.907717899999625,None,None,3,1.0002067999994324,0.1927138000000923,None,0,0,0,0,,,,,0,0,0,0,,,,,31,0,31,0,472.0250944999998,,,,,,,,,,,,,,,,,,,,,,,,,,,,,,,,,,,,,,,,,,,,,,,,,,,,,,,,,Schnürsenkel,2.6266,472.00991780000004,472.01041219999934,472.01052230000005,472.0250944999998,474.65827139999965,474.6423942000001,474.6461746999994,474.65827139999965,474.65827139999965,474.65827139999965,474.65827139999965,476.65816899999936,476.65816899999936,476.65816899999936,476.65816899999936,476.6425501999993,3,1.0002067999994324,0.1927138000000923,None,,,,,,,,,,,,,,,,,,,,,,5968,1,2025-06-23_14h07.14.193,sm,2024.2.4,59.97897137267483,2025-06-23 14h07.22.738442 +0200,
32,0,32,,,,,,space,3.907717899999625,None,None,3,1.629378199999337,0.2002596000002086,None,0,0,0,0,,,,,0,0,0,0,,,,,32,0,32,0,476.65816899999936,,,,,,,,,,,,,,,,,,,,,,,,,,,,,,,,,,,,,,,,,,,,,,,,,,,,,,,,,Zähne,3.1933,476.64305950000016,476.6437159999996,476.6438242999993,476.65816899999936,479.8578013999995,479.8425704000001,479.8490787999999,479.8578013999995,479.8578013999995,479.8578013999995,479.8578013999995,481.85808029999953,481.85808029999953,481.85808029999953,481.85808029999953,481.84241310000016,3,1.629378199999337,0.2002596000002086,None,,,,,,,,,,,,,,,,,,,,,,5968,1,2025-06-23_14h07.14.193,sm,2024.2.4,59.97897137267483,2025-06-23 14h07.22.738442 +0200,
33,0,33,,,,,,space,3.907717899999625,None,None,2,0.7284221999998408,0.18043450000004668,None,0,0,0,0,,,,,0,0,0,0,,,,,33,0,33,0,481.85808029999953,,,,,,,,,,,,,,,,,,,,,,,,,,,,,,,,,,,,,,,,,,,,,,,,,,,,,,,,,Lehrer,3.7585,481.84291570000005,481.8434942999993,481.8436045999997,481.85808029999953,485.62451429999965,485.6087345999995,485.6129013,485.62451429999965,485.62451429999965,485.62451429999965,485.62451429999965,487.62425970000004,487.62425970000004,487.62425970000004,487.62425970000004,487.60863040000004,2,0.7284221999998408,0.18043450000004668,None,,,,,,,,,,,,,,,,,,,,,,5968,1,2025-06-23_14h07.14.193,sm,2024.2.4,59.97897137267483,2025-06-23 14h07.22.738442 +0200,
34,0,34,,,,,,space,3.907717899999625,None,None,2,0.9516997000000629,0.1788760999997976,None,0,0,0,0,,,,,0,0,0,0,,,,,34,0,34,0,487.62425970000004,,,,,,,,,,,,,,,,,,,,,,,,,,,,,,,,,,,,,,,,,,,,,,,,,,,,,,,,,Fledermaus,3.2132,487.6091424999995,487.6097235999996,487.6098280999995,487.62425970000004,490.84053700000004,490.8248076,490.82890749999933,490.84053700000004,490.84053700000004,490.84053700000004,490.84053700000004,492.8411178999995,492.8411178999995,492.8411178999995,492.8411178999995,492.8249959999994,2,0.9516997000000629,0.1788760999997976,None,,,,,,,,,,,,,,,,,,,,,,5968,1,2025-06-23_14h07.14.193,sm,2024.2.4,59.97897137267483,2025-06-23 14h07.22.738442 +0200,
35,0,35,,,,,,space,3.907717899999625,None,None,2,0.9698428000001513,0.1645410000000993,None,0,0,0,0,,,,,0,0,0,0,,,,,35,0,35,0,492.8411178999995,,,,,,,,,,,,,,,,,,,,,,,,,,,,,,,,,,,,,,,,,,,,,,,,,,,,,,,,,Akrobatin,2.1597,492.8255049999998,492.8260107999995,492.8261167999999,492.8411178999995,495.0072874999996,494.99155989999963,494.9959298999993,495.0072874999996,495.0072874999996,495.0072874999996,495.0072874999996,497.0071113999993,497.0071113999993,497.0071113999993,497.0071113999993,496.9913252999995,2,0.9698428000001513,0.1645410000000993,None,,,,,,,,,,,,,,,,,,,,,,5968,1,2025-06-23_14h07.14.193,sm,2024.2.4,59.97897137267483,2025-06-23 14h07.22.738442 +0200,
36,0,36,,,,,,space,3.907717899999625,None,None,2,1.0133931000000302,0.18348909999986063,None,0,0,0,0,,,,,0,0,0,0,,,,,36,0,36,0,497.0071113999993,,,,,,,,,,,,,,,,,,,,,,,,,,,,,,,,,,,,,,,,,,,,,,,,,,,,,,,,,Kopf,3.0118,496.9918100999994,496.9923037999997,496.9924013,497.0071113999993,500.02326769999945,500.0075960999993,500.01054959999965,500.02326769999945,500.02326769999945,500.02326769999945,500.02326769999945,502.0233625000001,502.0233625000001,502.0233625000001,502.0233625000001,502.00824999999986,2,1.0133931000000302,0.18348909999986063,None,,,,,,,,,,,,,,,,,,,,,,5968,1,2025-06-23_14h07.14.193,sm,2024.2.4,59.97897137267483,2025-06-23 14h07.22.738442 +0200,
37,0,37,,,,,,space,3.907717899999625,None,None,2,0.807217500000661,0.2028813999995691,None,0,0,0,0,,,,,0,0,0,0,,,,,37,0,37,0,502.0233625000001,,,,,,,,,,,,,,,,,,,,,,,,,,,,,,,,,,,,,,,,,,,,,,,,,,,,,,,,,Schwester,2.9351,502.00876770000013,502.0092950999997,502.00939990000006,502.0233625000001,504.9731105000001,504.9576017999998,504.9617712999998,504.9731105000001,504.9731105000001,504.9731105000001,504.9731105000001,506.9733643999998,506.9733643999998,506.9733643999998,506.9733643999998,506.95738829999937,2,0.807217500000661,0.2028813999995691,None,,,,,,,,,,,,,,,,,,,,,,5968,1,2025-06-23_14h07.14.193,sm,2024.2.4,59.97897137267483,2025-06-23 14h07.22.738442 +0200,
38,0,38,,,,,,space,3.907717899999625,None,None,3,0.8330496999997195,0.2032256000002235,None,0,0,0,0,,,,,0,0,0,0,,,,,38,0,38,0,506.9733643999998,,,,,,,,,,,,,,,,,,,,,,,,,,,,,,,,,,,,,,,,,,,,,,,,,,,,,,,,,Pflege,2.5967,506.95790789999955,506.9584212,506.9585262999999,506.9733643999998,509.57301610000013,509.55741080000007,509.5619412999995,509.57301610000013,509.57301610000013,509.57301610000013,509.57301610000013,511.5729633000001,511.5729633000001,511.5729633000001,511.5729633000001,511.5574444999993,3,0.8330496999997195,0.2032256000002235,None,,,,,,,,,,,,,,,,,,,,,,5968,1,2025-06-23_14h07.14.193,sm,2024.2.4,59.97897137267483,2025-06-23 14h07.22.738442 +0200,
39,0,39,,,,,,space,3.907717899999625,None,None,2,0.7794694000003801,0.17118829999981244,None,0,0,0,0,,,,,0,0,0,0,,,,,39,0,39,0,511.5729633000001,,,,,,,,,,,,,,,,,,,,,,,,,,,,,,,,,,,,,,,,,,,,,,,,,,,,,,,,,Präsident,2.6483,511.5579554999995,511.5585285999996,511.5586333000001,511.5729633000001,514.2223596999993,514.2067897999996,514.2105418000001,514.2223596999993,514.2223596999993,514.2223596999993,514.2223596999993,516.2224751999993,516.2224751999993,516.2224751999993,516.2224751999993,516.2070948,2,0.7794694000003801,0.17118829999981244,None,,,,,,,,,,,,,,,,,,,,,,5968,1,2025-06-23_14h07.14.193,sm,2024.2.4,59.97897137267483,2025-06-23 14h07.22.738442 +0200,
40,0,40,,,,,,space,3.907717899999625,None,None,3,1.0005492000000231,0.25630830000045535,None,0,0,0,0,,,,,0,0,0,0,,,,,40,0,40,0,516.2224751999993,,,,,,,,,,,,,,,,,,,,,,,,,,,,,,,,,,,,,,,,,,,,,,,,,,,,,,,,,Zug,2.6832,516.2076013999995,516.2081644999998,516.2082691999994,516.2224751999993,518.9057684999998,518.8901108,518.8939241999997,518.9057684999998,518.9057684999998,518.9057684999998,518.9057684999998,520.9055688999997,520.9055688999997,520.9055688999997,520.9055688999997,520.8902649000001,3,1.0005492000000231,0.25630830000045535,None,,,,,,,,,,,,,,,,,,,,,,5968,1,2025-06-23_14h07.14.193,sm,2024.2.4,59.97897137267483,2025-06-23 14h07.22.738442 +0200,
41,0,41,,,,,,space,3.907717899999625,None,None,2,0.8608675999994375,0.2083185000001322,None,0,0,0,0,,,,,0,0,0,0,,,,,41,0,41,0,520.9055688999997,,,,,,,,,,,,,,,,,,,,,,,,,,,,,,,,,,,,,,,,,,,,,,,,,,,,,,,,,Autorin,5.0849,520.8907749,520.8915312999998,520.8916423999999,520.9055688999997,526.0051960000001,525.9897015999995,525.9934598999998,526.0051960000001,526.0051960000001,526.0051960000001,526.0051960000001,528.0052927999996,528.0052927999996,528.0052927999996,528.0052927999996,527.9896823999998,2,0.8608675999994375,0.2083185000001322,None,,,,,,,,,,,,,,,,,,,,,,5968,1,2025-06-23_14h07.14.193,sm,2024.2.4,59.97897137267483,2025-06-23 14h07.22.738442 +0200,
42,0,42,,,,,,space,3.907717899999625,None,None,2,0.8044435000001613,0.1759357999999338,None,0,0,0,0,,,,,0,0,0,0,,,,,42,0,42,0,528.0052927999996,,,,,,,,,,,,,,,,,,,,,,,,,,,,,,,,,,,,,,,,,,,,,,,,,,,,,,,,,Ziege,2.2674,527.9901894999994,527.9909401999994,527.9910484000002,528.0052927999996,530.2719855999994,530.2561784,530.2605126999997,530.2719855999994,530.2719855999994,530.2719855999994,530.2719855999994,532.2717862999998,532.2717862999998,532.2717862999998,532.2717862999998,532.2562465000001,2,0.8044435000001613,0.1759357999999338,None,,,,,,,,,,,,,,,,,,,,,,5968,1,2025-06-23_14h07.14.193,sm,2024.2.4,59.97897137267483,2025-06-23 14h07.22.738442 +0200,
43,0,43,,,,,,space,3.907717899999625,None,None,3,0.97931619999963,0.21530450000045676,None,0,0,0,0,,,,,0,0,0,0,,,,,43,0,43,0,532.2717862999998,,,,,,,,,,,,,,,,,,,,,,,,,,,,,,,,,,,,,,,,,,,,,,,,,,,,,,,,,Fernseher,3.2864,532.2567593999993,532.2572660999995,532.2573678999997,532.2717862999998,535.5713599999999,535.5558022999994,535.5600752,535.5713599999999,535.5713599999999,535.5713599999999,535.5713599999999,537.5713935999993,537.5713935999993,537.5713935999993,537.5713935999993,537.5559520999996,3,0.97931619999963,0.21530450000045676,None,,,,,,,,,,,,,,,,,,,,,,5968,1,2025-06-23_14h07.14.193,sm,2024.2.4,59.97897137267483,2025-06-23 14h07.22.738442 +0200,
44,0,44,,,,,,space,3.907717899999625,None,None,3,1.0966115999999602,0.24842260000059468,None,0,0,0,0,,,,,0,0,0,0,,,,,44,0,44,0,537.5713935999993,,,,,,,,,,,,,,,,,,,,,,,,,,,,,,,,,,,,,,,,,,,,,,,,,,,,,,,,,Bildung,2.0301,537.5564573000001,537.5569775999993,537.5570809000001,537.5713935999993,539.6043739999996,539.5887548999999,539.5935313,539.6043739999996,539.6043739999996,539.6043739999996,539.6043739999996,541.6046078999998,541.6046078999998,541.6046078999998,541.6046078999998,541.5890328999994,3,1.0966115999999602,0.24842260000059468,None,,,,,,,,,,,,,,,,,,,,,,5968,1,2025-06-23_14h07.14.193,sm,2024.2.4,59.97897137267483,2025-06-23 14h07.22.738442 +0200,
45,0,45,,,,,,space,3.907717899999625,None,None,3,0.9165579999998954,0.2567275999999765,None,0,0,0,0,,,,,0,0,0,0,,,,,45,0,45,0,541.6046078999998,,,,,,,,,,,,,,,,,,,,,,,,,,,,,,,,,,,,,,,,,,,,,,,,,,,,,,,,,Stein,2.7763,541.5895448000001,541.5900591999998,541.5901672,541.6046078999998,544.3874940999995,544.3721384999999,544.3758146,544.3874940999995,544.3874940999995,544.3874940999995,544.3874940999995,546.3878255,546.3878255,546.3878255,546.3878255,546.3719395999997,3,0.9165579999998954,0.2567275999999765,None,,,,,,,,,,,,,,,,,,,,,,5968,1,2025-06-23_14h07.14.193,sm,2024.2.4,59.97897137267483,2025-06-23 14h07.22.738442 +0200,
46,0,46,,,,,,space,3.907717899999625,None,None,3,0.8292710000005172,0.24474589999954333,None,0,0,0,0,,,,,0,0,0,0,,,,,46,0,46,0,546.3878255,,,,,,,,,,,,,,,,,,,,,,,,,,,,,,,,,,,,,,,,,,,,,,,,,,,,,,,,,Rot,2.1689,546.3724471999994,546.3729506999998,546.3730527999996,546.3878255,548.5713049999995,548.5551648999999,548.5586021999998,548.5713049999995,548.5713049999995,548.5713049999995,548.5713049999995,550.5709159999997,550.5709159999997,550.5709159999997,550.5709159999997,550.5548336000002,3,0.8292710000005172,0.24474589999954333,None,,,,,,,,,,,,,,,,,,,,,,5968,1,2025-06-23_14h07.14.193,sm,2024.2.4,59.97897137267483,2025-06-23 14h07.22.738442 +0200,
47,0,47,,,,,,space,3.907717899999625,None,None,3,0.890024799999992,0.19160069999998086,None,0,0,0,0,,,,,0,0,0,0,,,,,47,0,47,0,550.5709159999997,,,,,,,,,,,,,,,,,,,,,,,,,,,,,,,,,,,,,,,,,,,,,,,,,,,,,,,,,Tee,2.0389,550.5552928999996,550.5557805999997,550.5558719,550.5709159999997,552.6203937999999,552.6047232999999,552.6079246999998,552.6203937999999,552.6203937999999,552.6203937999999,552.6203937999999,554.6204502,554.6204502,554.6204502,554.6204502,554.6050852999997,3,0.890024799999992,0.19160069999998086,None,,,,,,,,,,,,,,,,,,,,,,5968,1,2025-06-23_14h07.14.193,sm,2024.2.4,59.97897137267483,2025-06-23 14h07.22.738442 +0200,
48,0,48,,,,,,space,3.907717899999625,None,None,3,0.9600424000000203,0.2090571999997337,None,0,0,0,0,,,,,0,0,0,0,,,,,48,0,48,0,554.6204502,,,,,,,,,,,,,,,,,,,,,,,,,,,,,,,,,,,,,,,,,,,,,,,,,,,,,,,,,Ringe,5.8019,554.6055735,554.6060772000001,554.6061841999999,554.6204502,560.4367960999998,560.4213841999999,560.4247495999998,560.4367960999998,560.4367960999998,560.4367960999998,560.4367960999998,562.4367699999993,562.4367699999993,562.4367699999993,562.4367699999993,562.4214394999999,3,0.9600424000000203,0.2090571999997337,None,,,,,,,,,,,,,,,,,,,,,,5968,1,2025-06-23_14h07.14.193,sm,2024.2.4,59.97897137267483,2025-06-23 14h07.22.738442 +0200,
49,0,49,,,,,,space,3.907717899999625,None,None,3,0.9089311999996426,0.17687569999998232,None,0,0,0,0,,,,,0,0,0,0,,,,,49,0,49,0,562.4367699999993,,,,,,,,,,,,,,,,,,,,,,,,,,,,,,,,,,,,,,,,,,,,,,,,,,,,,,,,,Tisch,3.1169,562.4219585999999,562.4226007999996,562.4227070999996,562.4367699999993,565.5533410999997,565.5375757000002,565.5413293000001,565.5533410999997,565.5533410999997,565.5533410999997,565.5533410999997,567.5531364999997,567.5531364999997,567.5531364999997,567.5531364999997,567.5376649,3,0.9089311999996426,0.17687569999998232,None,,,,,,,,,,,,,,,,,,,,,,5968,1,2025-06-23_14h07.14.193,sm,2024.2.4,59.97897137267483,2025-06-23 14h07.22.738442 +0200,
50,0,50,,,,,,space,3.907717899999625,None,None,2,1.625005599999895,0.162620699999934,None,0,0,0,0,,,,,0,0,0,0,,,,,50,0,50,0,567.5531364999997,,,,,,,,,,,,,,,,,,,,,,,,,,,,,,,,,,,,,,,,,,,,,,,,,,,,,,,,,Krieg,2.7119,567.5381544000002,567.5386752999993,567.5387826999995,567.5531364999997,570.2694990999998,570.2538741999997,570.2573155999999,570.2694990999998,570.2694990999998,570.2694990999998,570.2694990999998,572.2695376000001,572.2695376000001,572.2695376000001,572.2695376000001,572.253815,2,1.625005599999895,0.162620699999934,None,,,,,,,,,,,,,,,,,,,,,,5968,1,2025-06-23_14h07.14.193,sm,2024.2.4,59.97897137267483,2025-06-23 14h07.22.738442 +0200,
51,0,51,,,,,,space,3.907717899999625,None,None,3,0.946476299999631,0.18252670000038052,None,0,0,0,0,,,,,0,0,0,0,,,,,51,0,51,0,572.2695376000001,,,,,,,,,,,,,,,,,,,,,,,,,,,,,,,,,,,,,,,,,,,,,,,,,,,,,,,,,Loch,3.6156,572.2543270999995,572.2548406999995,572.2549438999995,572.2695376000001,575.8858487999996,575.8704418999996,575.8746228,575.8858487999996,575.8858487999996,575.8858487999996,575.8858487999996,577.8858959999998,577.8858959999998,577.8858959999998,577.8858959999998,577.8703335,3,0.946476299999631,0.18252670000038052,None,,,,,,,,,,,,,,,,,,,,,,5968,1,2025-06-23_14h07.14.193,sm,2024.2.4,59.97897137267483,2025-06-23 14h07.22.738442 +0200,
52,0,52,,,,,,space,3.907717899999625,None,None,3,1.4052361000003657,0.23058409999975993,None,0,0,0,0,,,,,0,0,0,0,,,,,52,0,52,0,577.8858959999998,,,,,,,,,,,,,,,,,,,,,,,,,,,,,,,,,,,,,,,,,,,,,,,,,,,,,,,,,Rock,3.2502,577.8708607999997,577.8713725999996,577.8714792000001,577.8858959999998,581.1356434999998,581.1199117999995,581.1234623999999,581.1356434999998,581.1356434999998,581.1356434999998,581.1356434999998,583.1358181999994,583.1358181999994,583.1358181999994,583.1358181999994,583.1198966000002,3,1.4052361000003657,0.23058409999975993,None,,,,,,,,,,,,,,,,,,,,,,5968,1,2025-06-23_14h07.14.193,sm,2024.2.4,59.97897137267483,2025-06-23 14h07.22.738442 +0200,
53,0,53,,,,,,space,3.907717899999625,None,None,3,1.0861124000002746,0.21548099999927217,None,0,0,0,0,,,,,0,0,0,0,,,,,53,0,53,0,583.1358181999994,,,,,,,,,,,,,,,,,,,,,,,,,,,,,,,,,,,,,,,,,,,,,,,,,,,,,,,,,Nachricht,4.1412,583.1204070999993,583.1210568999995,583.1211613999994,583.1358181999994,587.2850724,587.2694443999999,587.2733172999997,587.2850724,587.2850724,587.2850724,587.2850724,589.2851884000002,589.2851884000002,589.2851884000002,589.2851884000002,589.2698359999995,3,1.0861124000002746,0.21548099999927217,None,,,,,,,,,,,,,,,,,,,,,,5968,1,2025-06-23_14h07.14.193,sm,2024.2.4,59.97897137267483,2025-06-23 14h07.22.738442 +0200,
54,0,54,,,,,,space,3.907717899999625,None,None,3,1.598892899999555,0.21000850000018545,None,0,0,0,0,,,,,0,0,0,0,,,,,54,0,54,0,589.2851884000002,,,,,,,,,,,,,,,,,,,,,,,,,,,,,,,,,,,,,,,,,,,,,,,,,,,,,,,,,Ehe,2.6624,589.2703437,589.2709918999999,589.2710957999998,589.2851884000002,591.9514036999999,591.9364489,591.9395476999998,591.9514036999999,591.9514036999999,591.9514036999999,591.9514036999999,593.9515590000001,593.9515590000001,593.9515590000001,593.9515590000001,593.9364921999995,3,1.598892899999555,0.21000850000018545,None,,,,,,,,,,,,,,,,,,,,,,5968,1,2025-06-23_14h07.14.193,sm,2024.2.4,59.97897137267483,2025-06-23 14h07.22.738442 +0200,
55,0,55,,,,,,space,3.907717899999625,None,None,2,1.3899314000000231,0.1828694000005271,None,0,0,0,0,,,,,0,0,0,0,,,,,55,0,55,0,593.9515590000001,,,,,,,,,,,,,,,,,,,,,,,,,,,,,,,,,,,,,,,,,,,,,,,,,,,,,,,,,Gelenk,3.6532,593.9369996999994,593.9375627,593.9376708,593.9515590000001,597.6180141999994,597.6023477999997,597.6060766,597.6180141999994,597.6180141999994,597.6180141999994,597.6180141999994,599.6179898,599.6179898,599.6179898,599.6179898,599.6024727999993,2,1.3899314000000231,0.1828694000005271,None,,,,,,,,,,,,,,,,,,,,,,5968,1,2025-06-23_14h07.14.193,sm,2024.2.4,59.97897137267483,2025-06-23 14h07.22.738442 +0200,
56,0,56,,,,,,space,3.907717899999625,None,None,3,1.113220299999739,0.20044550000056915,None,0,0,0,0,,,,,0,0,0,0,,,,,56,0,56,0,599.6179898,,,,,,,,,,,,,,,,,,,,,,,,,,,,,,,,,,,,,,,,,,,,,,,,,,,,,,,,,Tasche,2.1345,599.6029889000001,599.6035925999995,599.6037669999996,599.6179898,601.7513112999995,601.7359164,601.7399641000002,601.7513112999995,601.7513112999995,601.7513112999995,601.7513112999995,603.7511659000002,603.7511659000002,603.7511659000002,603.7511659000002,603.7356532999993,3,1.113220299999739,0.20044550000056915,None,,,,,,,,,,,,,,,,,,,,,,5968,1,2025-06-23_14h07.14.193,sm,2024.2.4,59.97897137267483,2025-06-23 14h07.22.738442 +0200,
57,0,57,,,,,,space,3.907717899999625,None,None,2,1.0432443999998213,0.20440920000055485,None,0,0,0,0,,,,,0,0,0,0,,,,,57,0,57,0,603.7511659000002,,,,,,,,,,,,,,,,,,,,,,,,,,,,,,,,,,,,,,,,,,,,,,,,,,,,,,,,,Baum,3.7881,603.7361664,603.7366819999997,603.7367852999996,603.7511659000002,607.5508770999995,607.5353423999995,607.5388727999998,607.5508770999995,607.5508770999995,607.5508770999995,607.5508770999995,609.5509900999996,609.5509900999996,609.5509900999996,609.5509900999996,609.5352692999995,2,1.0432443999998213,0.20440920000055485,None,,,,,,,,,,,,,,,,,,,,,,5968,1,2025-06-23_14h07.14.193,sm,2024.2.4,59.97897137267483,2025-06-23 14h07.22.738442 +0200,
58,0,58,,,,,,space,3.907717899999625,None,None,3,0.8344661999999516,0.22454149999975925,None,0,0,0,0,,,,,0,0,0,0,,,,,58,0,58,0,609.5509900999996,,,,,,,,,,,,,,,,,,,,,,,,,,,,,,,,,,,,,,,,,,,,,,,,,,,,,,,,,Sauber,2.3952,609.5357720000002,609.5364208999999,609.5365234999999,609.5509900999996,611.9505964,611.9349558999993,611.9396194999999,611.9505964,611.9505964,611.9505964,611.9505964,613.9505955999994,613.9505955999994,613.9505955999994,613.9505955999994,613.9349375000002,3,0.8344661999999516,0.22454149999975925,None,,,,,,,,,,,,,,,,,,,,,,5968,1,2025-06-23_14h07.14.193,sm,2024.2.4,59.97897137267483,2025-06-23 14h07.22.738442 +0200,
59,0,59,,,,,,space,3.907717899999625,None,None,2,1.1626601000007213,0.18015829999967536,None,0,0,0,0,,,,,0,0,0,0,,,,,59,0,59,0,613.9505955999994,,,,,,,,,,,,,,,,,,,,,,,,,,,,,,,,,,,,,,,,,,,,,,,,,,,,,,,,,Klee,2.8689,613.9354309999999,613.9359368999994,613.9360422,613.9505955999994,616.8336518999995,616.8177212,616.820831,616.8336518999995,616.8336518999995,616.8336518999995,616.8336518999995,618.8336639999998,618.8336639999998,618.8336639999998,618.8336639999998,618.8178558999998,2,1.1626601000007213,0.18015829999967536,None,,,,,,,,,,,,,,,,,,,,,,5968,1,2025-06-23_14h07.14.193,sm,2024.2.4,59.97897137267483,2025-06-23 14h07.22.738442 +0200,
60,0,60,,,,,,space,3.907717899999625,None,None,3,1.2641306000004988,0.22179750000032072,None,0,0,0,0,,,,,0,0,0,0,,,,,60,0,60,0,618.8336639999998,,,,,,,,,,,,,,,,,,,,,,,,,,,,,,,,,,,,,,,,,,,,,,,,,,,,,,,,,Lied,2.1079,618.8183678999994,618.8188810000001,618.8189879000001,618.8336639999998,620.9501536999996,620.9344586999996,620.9382409,620.9501536999996,620.9501536999996,620.9501536999996,620.9501536999996,622.9500603999995,622.9500603999995,622.9500603999995,622.9500603999995,622.9346535999994,3,1.2641306000004988,0.22179750000032072,None,,,,,,,,,,,,,,,,,,,,,,5968,1,2025-06-23_14h07.14.193,sm,2024.2.4,59.97897137267483,2025-06-23 14h07.22.738442 +0200,
61,0,61,,,,,,space,3.907717899999625,None,None,3,1.217178399999284,0.23761520000061864,None,0,0,0,0,,,,,0,0,0,0,,,,,61,0,61,0,622.9500603999995,,,,,,,,,,,,,,,,,,,,,,,,,,,,,,,,,,,,,,,,,,,,,,,,,,,,,,,,,Service,4.4253,622.9351730999997,622.9357737,622.9358939999993,622.9500603999995,627.3830142999996,627.3673369999997,627.3715615000001,627.3830142999996,627.3830142999996,627.3830142999996,627.3830142999996,629.3830231000002,629.3830231000002,629.3830231000002,629.3830231000002,629.3680391999997,3,1.217178399999284,0.23761520000061864,None,,,,,,,,,,,,,,,,,,,,,,5968,1,2025-06-23_14h07.14.193,sm,2024.2.4,59.97897137267483,2025-06-23 14h07.22.738442 +0200,
62,0,62,,,,,,space,3.907717899999625,None,None,3,0.8774658000002091,0.23896619999959512,None,0,0,0,0,,,,,0,0,0,0,,,,,62,0,62,0,629.3830231000002,,,,,,,,,,,,,,,,,,,,,,,,,,,,,,,,,,,,,,,,,,,,,,,,,,,,,,,,,Skizze,2.9951,629.3685507,629.3690655,629.3691709999994,629.3830231000002,632.3827701,632.3674465999993,632.3713844999993,632.3827701,632.3827701,632.3827701,632.3827701,634.3828266999999,634.3828266999999,634.3828266999999,634.3828266999999,634.3670917,3,0.8774658000002091,0.23896619999959512,None,,,,,,,,,,,,,,,,,,,,,,5968,1,2025-06-23_14h07.14.193,sm,2024.2.4,59.97897137267483,2025-06-23 14h07.22.738442 +0200,
63,0,63,,,,,,space,3.907717899999625,None,None,3,0.7461704999996073,0.19945310000002792,None,0,0,0,0,,,,,0,0,0,0,,,,,63,0,63,0,634.3828266999999,,,,,,,,,,,,,,,,,,,,,,,,,,,,,,,,,,,,,,,,,,,,,,,,,,,,,,,,,Rauch,3.1829,634.3676066999997,634.3681278999993,634.3682359999993,634.3828266999999,637.5656794999995,637.5525978999995,637.5564891999993,637.5656794999995,637.5656794999995,637.5656794999995,637.5656794999995,639.5658408999998,639.5658408999998,639.5658408999998,639.5658408999998,639.5505033999998,3,0.7461704999996073,0.19945310000002792,None,,,,,,,,,,,,,,,,,,,,,,5968,1,2025-06-23_14h07.14.193,sm,2024.2.4,59.97897137267483,2025-06-23 14h07.22.738442 +0200,
64,0,64,,,,,,space,3.907717899999625,None,None,3,0.8639173999999912,0.20009079999999813,None,0,0,0,0,,,,,0,0,0,0,,,,,64,0,64,0,639.5658408999998,,,,,,,,,,,,,,,,,,,,,,,,,,,,,,,,,,,,,,,,,,,,,,,,,,,,,,,,,Kante,2.1915,639.5510125000001,639.5515254000002,639.5516367,639.5658408999998,641.7654684999998,641.7499760999999,641.7539859999997,641.7654684999998,641.7654684999998,641.7654684999998,641.7654684999998,643.7656143999993,643.7656143999993,643.7656143999993,643.7656143999993,643.7502091999995,3,0.8639173999999912,0.20009079999999813,None,,,,,,,,,,,,,,,,,,,,,,5968,1,2025-06-23_14h07.14.193,sm,2024.2.4,59.97897137267483,2025-06-23 14h07.22.738442 +0200,
65,0,65,,,,,,space,3.907717899999625,None,None,3,0.8196954000004553,0.20343700000012177,None,0,0,0,0,,,,,0,0,0,0,,,,,65,0,65,0,643.7656143999993,,,,,,,,,,,,,,,,,,,,,,,,,,,,,,,,,,,,,,,,,,,,,,,,,,,,,,,,,Schnorchel,2.2618,643.7507169,643.7512437999994,643.7513644999999,643.7656143999993,646.0315148999998,646.0162559,646.0220961999994,646.0315148999998,646.0315148999998,646.0315148999998,646.0315148999998,648.0318926999998,648.0318926999998,648.0318926999998,648.0318926999998,648.0163085999993,3,0.8196954000004553,0.20343700000012177,None,,,,,,,,,,,,,,,,,,,,,,5968,1,2025-06-23_14h07.14.193,sm,2024.2.4,59.97897137267483,2025-06-23 14h07.22.738442 +0200,
66,0,66,,,,,,space,3.907717899999625,None,None,3,0.6847576000000117,0.19878049999988434,None,0,0,0,0,,,,,0,0,0,0,,,,,66,0,66,0,648.0318926999998,,,,,,,,,,,,,,,,,,,,,,,,,,,,,,,,,,,,,,,,,,,,,,,,,,,,,,,,,Keller,3.0483,648.0168190999993,648.0173472999995,648.0174513000002,648.0318926999998,651.0817163000002,651.0659291000002,651.0693109999993,651.0817163000002,651.0817163000002,651.0817163000002,651.0817163000002,653.0820794000001,653.0820794000001,653.0820794000001,653.0820794000001,653.0660320999996,3,0.6847576000000117,0.19878049999988434,None,,,,,,,,,,,,,,,,,,,,,,5968,1,2025-06-23_14h07.14.193,sm,2024.2.4,59.97897137267483,2025-06-23 14h07.22.738442 +0200,
67,0,67,,,,,,space,3.907717899999625,None,None,3,1.0932447000004686,0.22614059999978053,None,0,0,0,0,,,,,0,0,0,0,,,,,67,0,67,0,653.0820794000001,,,,,,,,,,,,,,,,,,,,,,,,,,,,,,,,,,,,,,,,,,,,,,,,,,,,,,,,,Gemüse,4.6935,653.0665482999993,653.0670617999995,653.0671679999996,653.0820794000001,657.7813542999993,657.7658025000001,657.7698418999998,657.7813542999993,657.7813542999993,657.7813542999993,657.7813542999993,659.7813707999994,659.7813707999994,659.7813707999994,659.7813707999994,659.7656422,3,1.0932447000004686,0.22614059999978053,None,,,,,,,,,,,,,,,,,,,,,,5968,1,2025-06-23_14h07.14.193,sm,2024.2.4,59.97897137267483,2025-06-23 14h07.22.738442 +0200,
68,0,68,,,,,,space,3.907717899999625,None,None,3,0.7754875999999058,0.21338680000008026,None,0,0,0,0,,,,,0,0,0,0,,,,,68,0,68,0,659.7813707999994,,,,,,,,,,,,,,,,,,,,,,,,,,,,,,,,,,,,,,,,,,,,,,,,,,,,,,,,,Sitzgurt,2.4013,659.7661699,659.7668273999998,659.7669350999995,659.7813707999994,662.1976862000001,662.1821663000001,662.1860183999997,662.1976862000001,662.1976862000001,662.1976862000001,662.1976862000001,664.1978308999996,664.1978308999996,664.1978308999996,664.1978308999996,664.1824434999999,3,0.7754875999999058,0.21338680000008026,None,,,,,,,,,,,,,,,,,,,,,,5968,1,2025-06-23_14h07.14.193,sm,2024.2.4,59.97897137267483,2025-06-23 14h07.22.738442 +0200,
69,0,69,,,,,,space,3.907717899999625,None,None,2,0.8995076000001063,0.17642049999994924,None,0,0,0,0,,,,,0,0,0,0,,,,,69,0,69,0,664.1978308999996,,,,,,,,,,,,,,,,,,,,,,,,,,,,,,,,,,,,,,,,,,,,,,,,,,,,,,,,,Vogel,4.3594,664.1829754,664.1836591000001,664.1838195999999,664.1978308999996,668.5638455999997,668.5484723999998,668.5522390999995,668.5638455999997,668.5638455999997,668.5638455999997,668.5638455999997,670.5641884999995,670.5641884999995,670.5641884999995,670.5641884999995,670.5483439,2,0.8995076000001063,0.17642049999994924,None,,,,,,,,,,,,,,,,,,,,,,5968,1,2025-06-23_14h07.14.193,sm,2024.2.4,59.97897137267483,2025-06-23 14h07.22.738442 +0200,
70,0,70,,,,,,space,3.907717899999625,None,None,3,0.7297006999997393,0.21756790000017645,None,0,0,0,0,,,,,0,0,0,0,,,,,70,0,70,0,670.5641884999995,,,,,,,,,,,,,,,,,,,,,,,,,,,,,,,,,,,,,,,,,,,,,,,,,,,,,,,,,Salz,3.4552,670.5488535999993,670.5495450999997,670.549653,670.5641884999995,674.0306153000001,674.0149975999993,674.0182693999996,674.0306153000001,674.0306153000001,674.0306153000001,674.0306153000001,676.0304584999994,676.0304584999994,676.0304584999994,676.0304584999994,676.0147127999999,3,0.7297006999997393,0.21756790000017645,None,,,,,,,,,,,,,,,,,,,,,,5968,1,2025-06-23_14h07.14.193,sm,2024.2.4,59.97897137267483,2025-06-23 14h07.22.738442 +0200,
71,0,71,,,,,,space,3.907717899999625,None,None,3,0.7357707999999548,0.2116716999998971,None,0,0,0,0,,,,,0,0,0,0,,,,,71,0,71,0,676.0304584999994,,,,,,,,,,,,,,,,,,,,,,,,,,,,,,,,,,,,,,,,,,,,,,,,,,,,,,,,,Telefon,2.3511,676.0152259999995,676.0158898,676.0159968999997,676.0304584999994,678.3966214000002,678.3812311000002,678.3846411999994,678.3966214000002,678.3966214000002,678.3966214000002,678.3966214000002,680.3967794,680.3967794,680.3967794,680.3967794,680.3815737999994,3,0.7357707999999548,0.2116716999998971,None,,,,,,,,,,,,,,,,,,,,,,5968,1,2025-06-23_14h07.14.193,sm,2024.2.4,59.97897137267483,2025-06-23 14h07.22.738442 +0200,
72,0,72,,,,,,space,3.907717899999625,None,None,3,0.8168711999996958,0.1968285000002652,None,0,0,0,0,,,,,0,0,0,0,,,,,72,0,72,0,680.3967794,,,,,,,,,,,,,,,,,,,,,,,,,,,,,,,,,,,,,,,,,,,,,,,,,,,,,,,,,Tradition,2.1949,680.3820865999996,680.3827334999996,680.3828398999995,680.3967794,682.5966454999998,682.5809438999995,682.5862393999996,682.5966454999998,682.5966454999998,682.5966454999998,682.5966454999998,684.5966273999993,684.5966273999993,684.5966273999993,684.5966273999993,684.5808855999994,3,0.8168711999996958,0.1968285000002652,None,,,,,,,,,,,,,,,,,,,,,,5968,1,2025-06-23_14h07.14.193,sm,2024.2.4,59.97897137267483,2025-06-23 14h07.22.738442 +0200,
73,0,73,,,,,,space,3.907717899999625,None,None,3,0.7769846000001053,0.2433576000003086,None,0,0,0,0,,,,,0,0,0,0,,,,,73,0,73,0,684.5966273999993,,,,,,,,,,,,,,,,,,,,,,,,,,,,,,,,,,,,,,,,,,,,,,,,,,,,,,,,,Büro,2.5495,684.5813954999994,684.5820395000001,684.5821434,684.5966273999993,687.1463270999993,687.1307259999994,687.1341558999993,687.1463270999993,687.1463270999993,687.1463270999993,687.1463270999993,689.1464921999996,689.1464921999996,689.1464921999996,689.1464921999996,689.1309467000001,3,0.7769846000001053,0.2433576000003086,None,,,,,,,,,,,,,,,,,,,,,,5968,1,2025-06-23_14h07.14.193,sm,2024.2.4,59.97897137267483,2025-06-23 14h07.22.738442 +0200,
74,0,74,,,,,,space,3.907717899999625,None,None,3,1.061009300000478,0.20541140000023006,None,0,0,0,0,,,,,0,0,0,0,,,,,74,0,74,0,689.1464921999996,,,,,,,,,,,,,,,,,,,,,,,,,,,,,,,,,,,,,,,,,,,,,,,,,,,,,,,,,Schnee,2.6637,689.1314562999996,689.1320962,689.1322009999994,689.1464921999996,691.8127350999994,691.7971625999999,691.8011341000001,691.8127350999994,691.8127350999994,691.8127350999994,691.8127350999994,693.8128903999996,693.8128903999996,693.8128903999996,693.8128903999996,693.7975095000002,3,1.061009300000478,0.20541140000023006,None,,,,,,,,,,,,,,,,,,,,,,5968,1,2025-06-23_14h07.14.193,sm,2024.2.4,59.97897137267483,2025-06-23 14h07.22.738442 +0200,
75,0,75,,,,,,space,3.907717899999625,None,None,3,0.692692900000111,0.20648030000029394,None,0,0,0,0,,,,,0,0,0,0,,,,,75,0,75,0,693.8128903999996,,,,,,,,,,,,,,,,,,,,,,,,,,,,,,,,,,,,,,,,,,,,,,,,,,,,,,,,,Gold,2.3524,693.7980111999996,693.7985381999997,693.7986456999997,693.8128903999996,696.1797490999998,696.1640559999996,696.1675408000001,696.1797490999998,696.1797490999998,696.1797490999998,696.1797490999998,698.1792635000002,698.1792635000002,698.1792635000002,698.1792635000002,698.1634704999997,3,0.692692900000111,0.20648030000029394,None,,,,,,,,,,,,,,,,,,,,,,5968,1,2025-06-23_14h07.14.193,sm,2024.2.4,59.97897137267483,2025-06-23 14h07.22.738442 +0200,
76,0,76,,,,,,space,3.907717899999625,None,None,3,0.8529883000001064,0.18798900000001595,None,0,0,0,0,,,,,0,0,0,0,,,,,76,0,76,0,698.1792635000002,,,,,,,,,,,,,,,,,,,,,,,,,,,,,,,,,,,,,,,,,,,,,,,,,,,,,,,,,Herbst,3.7324,698.1639857999999,698.1645066000001,698.1646117999999,698.1792635000002,701.9122736999998,701.8963992999998,701.9001573999994,701.9122736999998,701.9122736999998,701.9122736999998,701.9122736999998,703.9121170999997,703.9121170999997,703.9121170999997,703.9121170999997,703.8969444999993,3,0.8529883000001064,0.18798900000001595,None,,,,,,,,,,,,,,,,,,,,,,5968,1,2025-06-23_14h07.14.193,sm,2024.2.4,59.97897137267483,2025-06-23 14h07.22.738442 +0200,
77,0,77,,,,,,space,3.907717899999625,None,None,3,0.9949931999999535,0.22679669999979524,None,0,0,0,0,,,,,0,0,0,0,,,,,77,0,77,0,703.9121170999997,,,,,,,,,,,,,,,,,,,,,,,,,,,,,,,,,,,,,,,,,,,,,,,,,,,,,,,,,Puppe,3.8606,703.8974785,703.8979958999998,703.8981029999995,703.9121170999997,707.7786256999998,707.7628832999999,707.7669554999993,707.7786256999998,707.7786256999998,707.7786256999998,707.7786256999998,709.7786116999996,709.7786116999996,709.7786116999996,709.7786116999996,709.7629485999996,3,0.9949931999999535,0.22679669999979524,None,,,,,,,,,,,,,,,,,,,,,,5968,1,2025-06-23_14h07.14.193,sm,2024.2.4,59.97897137267483,2025-06-23 14h07.22.738442 +0200,
78,0,78,,,,,,space,3.907717899999625,None,None,3,0.8149069999999483,0.23935720000008587,None,0,0,0,0,,,,,0,0,0,0,,,,,78,0,78,0,709.7786116999996,,,,,,,,,,,,,,,,,,,,,,,,,,,,,,,,,,,,,,,,,,,,,,,,,,,,,,,,,Tube,2.9084,709.7634563000001,709.7639787999997,709.7640842000001,709.7786116999996,712.6949890999995,712.6793840999999,712.6830695999997,712.6949890999995,712.6949890999995,712.6949890999995,712.6949890999995,714.6948530999998,714.6948530999998,714.6948530999998,714.6948530999998,714.6791759999996,3,0.8149069999999483,0.23935720000008587,None,,,,,,,,,,,,,,,,,,,,,,5968,1,2025-06-23_14h07.14.193,sm,2024.2.4,59.97897137267483,2025-06-23 14h07.22.738442 +0200,
79,0,79,,,,,,space,3.907717899999625,None,None,2,1.2279380999998466,0.2314843000003748,None,0,0,0,0,,,,,0,0,0,0,,,,,79,0,79,0,714.6948530999998,,,,,,,,,,,,,,,,,,,,,,,,,,,,,,,,,,,,,,,,,,,,,,,,,,,,,,,,,Publikum,3.3883,714.6796856999999,714.6801872999995,714.6802988,714.6948530999998,718.0948334999994,718.0792458999995,718.0842935999999,718.0948334999994,718.0948334999994,718.0948334999994,718.0948334999994,720.1058603000001,720.1058603000001,720.1058603000001,720.1058603000001,720.0790005999997,2,1.2279380999998466,0.2314843000003748,None,,,,,,,,,,,,,,,,,,,,,,5968,1,2025-06-23_14h07.14.193,sm,2024.2.4,59.97897137267483,2025-06-23 14h07.22.738442 +0200,
0,0,0,,,,,5.0432,space,1.595516100000168,None,None,2,0.8749789999992572,0.15317980000054376,None,0,0,0,0,,,,,1,0,1,0,0,79,79,27,0,0,0,0,768.7251877999997,,,,,,,,,,,,,,,,,,,,,,,,,,,,,,,,,,,,741.5714054,741.5716668999994,741.5780168000001,741.5824051999998,741.5824051999998,743.1934501999995,space,1.595516100000168,None,743.1936178999995,743.2102654999999,743.2102654999999,756.7107212999999,None,756.7178365,756.7257626,756.7261342666663,757.9309642999997,766.7255962666661,767.7309194999998,768.7096077999995,Wurm,5.0432,768.7110389999998,768.7117982999998,768.7119075999999,768.7251877999997,773.7748604999997,773.7592559999994,773.7624907999998,773.7748604999997,773.7748604999997,773.7748604999997,773.7748604999997,775.7749089999998,775.7749089999998,775.7749089999998,775.7749089999998,775.7592488999999,2,0.8749789999992572,0.15317980000054376,None,732.0945493999998,732.0946251999994,None,732.1030798000002,732.1125973999997,736.1102836999999,736.1102836999999,736.1272939,741.5284732999999,2,5.406359700000394,None,768.7251877999997,,,,,,,,,5968,1,2025-06-23_14h07.14.193,sm,2024.2.4,59.97897137267483,2025-06-23 14h07.22.738442 +0200,
1,0,1,,,,,,space,1.595516100000168,None,None,3,0.92307239999991,0.2087574000006498,None,0,0,0,0,,,,,1,0,1,0,,,,,1,0,1,0,775.7749089999998,,,,,,,,,,,,,,,,,,,,,,,,,,,,,,,,,,,,,,,,,,,,,,,,,,,,,,,,,Kuchen ,2.5939,775.7597711999997,775.7602986000002,775.7604088999997,775.7749089999998,778.3747027999998,778.3590522999993,778.3632856999993,778.3747027999998,778.3747027999998,778.3747027999998,778.3747027999998,780.3748439000001,780.3748439000001,780.3748439000001,780.3748439000001,780.3592407999995,3,0.92307239999991,0.2087574000006498,None,,,,,,,,,,,,,,,,,,,,,,5968,1,2025-06-23_14h07.14.193,sm,2024.2.4,59.97897137267483,2025-06-23 14h07.22.738442 +0200,
2,0,2,,,,,,space,1.595516100000168,None,None,3,1.1109559999995327,0.22396910000043135,None,0,0,0,0,,,,,1,0,1,0,,,,,2,0,2,0,780.3748439000001,,,,,,,,,,,,,,,,,,,,,,,,,,,,,,,,,,,,,,,,,,,,,,,,,,,,,,,,,Medaille,3.8802,780.3596910999995,780.3601639999997,780.3602596999999,780.3748439000001,784.2578169999997,784.2420247999999,784.2463422999999,784.2578169999997,784.2578169999997,784.2578169999997,784.2578169999997,786.2581558000002,786.2581558000002,786.2581558000002,786.2581558000002,786.2419611999994,3,1.1109559999995327,0.22396910000043135,None,,,,,,,,,,,,,,,,,,,,,,5968,1,2025-06-23_14h07.14.193,sm,2024.2.4,59.97897137267483,2025-06-23 14h07.22.738442 +0200,
3,0,3,,,,,,space,1.595516100000168,None,None,3,1.2604122000002462,0.2722960000000967,None,0,0,0,0,,,,,1,0,1,0,,,,,3,0,3,0,786.2581558000002,,,,,,,,,,,,,,,,,,,,,,,,,,,,,,,,,,,,,,,,,,,,,,,,,,,,,,,,,Safari,2.5967,786.2424774000001,786.2430027999999,786.2431084,786.2581558000002,788.8574951999999,788.8415905000002,788.8450472999994,788.8574951999999,788.8574951999999,788.8574951999999,788.8574951999999,790.8574299000002,790.8574299000002,790.8574299000002,790.8574299000002,790.8418475999997,3,1.2604122000002462,0.2722960000000967,None,,,,,,,,,,,,,,,,,,,,,,5968,1,2025-06-23_14h07.14.193,sm,2024.2.4,59.97897137267483,2025-06-23 14h07.22.738442 +0200,
4,0,4,,,,,,space,1.595516100000168,None,None,2,1.1176639000004798,0.22481429999970715,None,0,0,0,0,,,,,1,0,1,0,,,,,4,0,4,0,790.8574299000002,,,,,,,,,,,,,,,,,,,,,,,,,,,,,,,,,,,,,,,,,,,,,,,,,,,,,,,,,Anführer,2.9351,790.8423508999995,790.8429206000001,790.8430220999999,790.8574299000002,793.8070914,793.7912421999999,793.7957268999999,793.8070914,793.8070914,793.8070914,793.8070914,795.8069270999995,795.8069270999995,795.8069270999995,795.8069270999995,795.7916381999994,2,1.1176639000004798,0.22481429999970715,None,,,,,,,,,,,,,,,,,,,,,,5968,1,2025-06-23_14h07.14.193,sm,2024.2.4,59.97897137267483,2025-06-23 14h07.22.738442 +0200,
5,0,5,,,,,,space,1.595516100000168,None,None,3,0.8879968000001099,0.2281569999995554,None,0,0,0,0,,,,,1,0,1,0,,,,,5,0,5,0,795.8069270999995,,,,,,,,,,,,,,,,,,,,,,,,,,,,,,,,,,,,,,,,,,,,,,,,,,,,,,,,,Waschbecken,3.8606,795.7921606999998,795.7926671999994,795.7927745999996,795.8069270999995,799.6734459999998,799.6579698999994,799.6624234999999,799.6734459999998,799.6734459999998,799.6734459999998,799.6734459999998,801.6739576999998,801.6739576999998,801.6739576999998,801.6739576999998,801.6582517999996,3,0.8879968000001099,0.2281569999995554,None,,,,,,,,,,,,,,,,,,,,,,5968,1,2025-06-23_14h07.14.193,sm,2024.2.4,59.97897137267483,2025-06-23 14h07.22.738442 +0200,
6,0,6,,,,,,space,1.595516100000168,None,None,3,0.8836493999997401,0.21253600000000006,None,0,0,0,0,,,,,1,0,1,0,,,,,6,0,6,0,801.6739576999998,,,,,,,,,,,,,,,,,,,,,,,,,,,,,,,,,,,,,,,,,,,,,,,,,,,,,,,,,Sicherheit,2.4476,801.6587626,801.6592635999996,801.6593678999998,801.6739576999998,804.1232740999994,804.1073900000001,804.1113926999997,804.1232740999994,804.1232740999994,804.1232740999994,804.1232740999994,806.1232372999993,806.1232372999993,806.1232372999993,806.1232372999993,806.1074676999997,3,0.8836493999997401,0.21253600000000006,None,,,,,,,,,,,,,,,,,,,,,,5968,1,2025-06-23_14h07.14.193,sm,2024.2.4,59.97897137267483,2025-06-23 14h07.22.738442 +0200,
7,0,7,,,,,,space,1.595516100000168,None,None,3,1.3498145000003205,0.2602045999992697,None,0,0,0,0,,,,,1,0,1,0,,,,,7,0,7,0,806.1232372999993,,,,,,,,,,,,,,,,,,,,,,,,,,,,,,,,,,,,,,,,,,,,,,,,,,,,,,,,,Geschäft,2.1597,806.1079743999999,806.1085772999995,806.1086826999999,806.1232372999993,808.2895044999996,808.2738357999997,808.2774312000001,808.2895044999996,808.2895044999996,808.2895044999996,808.2895044999996,810.2895159999998,810.2895159999998,810.2895159999998,810.2895159999998,810.2739519999996,3,1.3498145000003205,0.2602045999992697,None,,,,,,,,,,,,,,,,,,,,,,5968,1,2025-06-23_14h07.14.193,sm,2024.2.4,59.97897137267483,2025-06-23 14h07.22.738442 +0200,
8,0,8,,,,,,space,1.595516100000168,None,None,3,1.0789813000001232,0.26687099999981,None,0,0,0,0,,,,,1,0,1,0,,,,,8,0,8,0,810.2895159999998,,,,,,,,,,,,,,,,,,,,,,,,,,,,,,,,,,,,,,,,,,,,,,,,,,,,,,,,,Film,2.3524,810.2744646000001,810.2749740999998,810.2750834999997,810.2895159999998,812.6559496,812.6403718000001,812.6433960999993,812.6559496,812.6559496,812.6559496,812.6559496,814.6562349999995,814.6562349999995,814.6562349999995,814.6562349999995,814.6404358999998,3,1.0789813000001232,0.26687099999981,None,,,,,,,,,,,,,,,,,,,,,,5968,1,2025-06-23_14h07.14.193,sm,2024.2.4,59.97897137267483,2025-06-23 14h07.22.738442 +0200,
9,0,9,,,,,,space,1.595516100000168,None,None,3,1.6531141000004936,0.19875339999998687,None,0,0,0,0,,,,,1,0,1,0,,,,,9,0,9,0,814.6562349999995,,,,,,,,,,,,,,,,,,,,,,,,,,,,,,,,,,,,,,,,,,,,,,,,,,,,,,,,,Blut,3.2132,814.6409382000002,814.6415822999998,814.6416893999994,814.6562349999995,817.8724533999994,817.8566221000001,817.8598456,817.8724533999994,817.8724533999994,817.8724533999994,817.8724533999994,819.8723774,819.8723774,819.8723774,819.8723774,819.8569170999999,3,1.6531141000004936,0.19875339999998687,None,,,,,,,,,,,,,,,,,,,,,,5968,1,2025-06-23_14h07.14.193,sm,2024.2.4,59.97897137267483,2025-06-23 14h07.22.738442 +0200,
10,0,10,,,,,,space,1.595516100000168,None,None,2,0.8850213999994594,0.19490080000014132,None,0,0,0,0,,,,,1,0,1,0,,,,,10,0,10,0,819.8723774,,,,,,,,,,,,,,,,,,,,,,,,,,,,,,,,,,,,,,,,,,,,,,,,,,,,,,,,,Turnerin,3.1169,819.8574332999997,819.8579467,819.8580517,819.8723774,822.9888537999996,822.9732343999995,822.9773086999994,822.9888537999996,822.9888537999996,822.9888537999996,822.9888537999996,824.9890275999996,824.9890275999996,824.9890275999996,824.9890275999996,824.9728893000001,2,0.8850213999994594,0.19490080000014132,None,,,,,,,,,,,,,,,,,,,,,,5968,1,2025-06-23_14h07.14.193,sm,2024.2.4,59.97897137267483,2025-06-23 14h07.22.738442 +0200,
11,0,11,,,,,,space,1.595516100000168,None,None,3,0.8091807999999219,0.1850942999999461,None,0,0,0,0,,,,,1,0,1,0,,,,,11,0,11,0,824.9890275999996,,,,,,,,,,,,,,,,,,,,,,,,,,,,,,,,,,,,,,,,,,,,,,,,,,,,,,,,,Gabel,2.3511,824.9733015000002,824.9739019999997,824.9740769,824.9890275999996,827.3393301999995,827.3234588999994,827.3277250000001,827.3393301999995,827.3393301999995,827.3393301999995,827.3393301999995,829.3387616999998,829.3387616999998,829.3387616999998,829.3387616999998,829.3231761999996,3,0.8091807999999219,0.1850942999999461,None,,,,,,,,,,,,,,,,,,,,,,5968,1,2025-06-23_14h07.14.193,sm,2024.2.4,59.97897137267483,2025-06-23 14h07.22.738442 +0200,
12,0,12,,,,,,space,1.595516100000168,None,None,3,0.9575677000002543,0.19850229999974545,None,0,0,0,0,,,,,1,0,1,0,,,,,12,0,12,0,829.3387616999998,,,,,,,,,,,,,,,,,,,,,,,,,,,,,,,,,,,,,,,,,,,,,,,,,,,,,,,,,Hilfe,3.3883,829.3236836999995,829.3243660999997,829.3244681999995,829.3387616999998,832.7385023999996,832.7226775999998,832.7268143000001,832.7385023999996,832.7385023999996,832.7385023999996,832.7385023999996,834.7382072,834.7382072,834.7382072,834.7382072,834.7225375999997,3,0.9575677000002543,0.19850229999974545,None,,,,,,,,,,,,,,,,,,,,,,5968,1,2025-06-23_14h07.14.193,sm,2024.2.4,59.97897137267483,2025-06-23 14h07.22.738442 +0200,
13,0,13,,,,,,space,1.595516100000168,None,None,2,0.9483839000004082,0.1609360000002198,None,0,0,0,0,,,,,1,0,1,0,,,,,13,0,13,0,834.7382072,,,,,,,,,,,,,,,,,,,,,,,,,,,,,,,,,,,,,,,,,,,,,,,,,,,,,,,,,Leute,2.0389,834.7230178,834.7235136999998,834.72361,834.7382072,836.7881259999995,836.7724529999996,836.7764096999999,836.7881259999995,836.7881259999995,836.7881259999995,836.7881259999995,838.7882384999994,838.7882384999994,838.7882384999994,838.7882384999994,838.7725915000001,2,0.9483839000004082,0.1609360000002198,None,,,,,,,,,,,,,,,,,,,,,,5968,1,2025-06-23_14h07.14.193,sm,2024.2.4,59.97897137267483,2025-06-23 14h07.22.738442 +0200,
14,0,14,,,,,,space,1.595516100000168,None,None,2,1.0321993000006842,0.1704132999993817,None,0,0,0,0,,,,,1,0,1,0,,,,,14,0,14,0,838.7882384999994,,,,,,,,,,,,,,,,,,,,,,,,,,,,,,,,,,,,,,,,,,,,,,,,,,,,,,,,,Geschwister,2.0718,838.7731280999997,838.7737945999997,838.7739498000001,838.7882384999994,840.8711077999997,840.8556180999994,840.8595372999998,840.8711077999997,840.8711077999997,840.8711077999997,840.8711077999997,842.8710506999996,842.8710506999996,842.8710506999996,842.8710506999996,842.8555618999999,2,1.0321993000006842,0.1704132999993817,None,,,,,,,,,,,,,,,,,,,,,,5968,1,2025-06-23_14h07.14.193,sm,2024.2.4,59.97897137267483,2025-06-23 14h07.22.738442 +0200,
15,0,15,,,,,,space,1.595516100000168,None,None,3,1.0730106999999407,0.16820239999924524,None,0,0,0,0,,,,,1,0,1,0,,,,,15,0,15,0,842.8710506999996,,,,,,,,,,,,,,,,,,,,,,,,,,,,,,,,,,,,,,,,,,,,,,,,,,,,,,,,,Helm,2.8689,842.8560567999994,842.8565750999996,842.8566819999996,842.8710506999996,845.7542778999996,845.7386112999993,845.7425911,845.7542778999996,845.7542778999996,845.7542778999996,845.7542778999996,847.7542532999996,847.7542532999996,847.7542532999996,847.7542532999996,847.7384854000002,3,1.0730106999999407,0.16820239999924524,None,,,,,,,,,,,,,,,,,,,,,,5968,1,2025-06-23_14h07.14.193,sm,2024.2.4,59.97897137267483,2025-06-23 14h07.22.738442 +0200,
16,0,16,,,,,,space,1.595516100000168,None,None,3,0.9399085000004561,0.23634349999974802,None,0,0,0,0,,,,,1,0,1,0,,,,,16,0,16,0,847.7542532999996,,,,,,,,,,,,,,,,,,,,,,,,,,,,,,,,,,,,,,,,,,,,,,,,,,,,,,,,,Mäher,3.7585,847.7388935999998,847.7393617999996,847.7394441999995,847.7542532999996,851.5205288999996,851.5047150999999,851.5078980999997,851.5205288999996,851.5205288999996,851.5205288999996,851.5205288999996,853.5205354999998,853.5205354999998,853.5205354999998,853.5205354999998,853.5048606999999,3,0.9399085000004561,0.23634349999974802,None,,,,,,,,,,,,,,,,,,,,,,5968,1,2025-06-23_14h07.14.193,sm,2024.2.4,59.97897137267483,2025-06-23 14h07.22.738442 +0200,
17,0,17,,,,,,space,1.595516100000168,None,None,3,0.8131138999997347,0.24103030000060244,None,0,0,0,0,,,,,1,0,1,0,,,,,17,0,17,0,853.5205354999998,,,,,,,,,,,,,,,,,,,,,,,,,,,,,,,,,,,,,,,,,,,,,,,,,,,,,,,,,Ordner,2.1915,853.5053762999996,853.5058884999999,853.5059937999995,853.5205354999998,855.7205304999998,855.7048500000001,855.7097336999996,855.7205304999998,855.7205304999998,855.7205304999998,855.7205304999998,857.7203165999999,857.7203165999999,857.7203165999999,857.7203165999999,857.7047223999998,3,0.8131138999997347,0.24103030000060244,None,,,,,,,,,,,,,,,,,,,,,,5968,1,2025-06-23_14h07.14.193,sm,2024.2.4,59.97897137267483,2025-06-23 14h07.22.738442 +0200,
18,0,18,,,,,,space,1.595516100000168,None,None,3,0.7299119999997856,0.19547220000004017,None,0,0,0,0,,,,,1,0,1,0,,,,,18,0,18,0,857.7203165999999,,,,,,,,,,,,,,,,,,,,,,,,,,,,,,,,,,,,,,,,,,,,,,,,,,,,,,,,,Ring,3.2317,857.7052272000001,857.7058741999999,857.7059777999993,857.7203165999999,860.9535290999993,860.9376090999995,860.9406533000001,860.9535290999993,860.9535290999993,860.9535290999993,860.9535290999993,862.9533185,862.9533185,862.9533185,862.9533185,862.9379344999998,3,0.7299119999997856,0.19547220000004017,None,,,,,,,,,,,,,,,,,,,,,,5968,1,2025-06-23_14h07.14.193,sm,2024.2.4,59.97897137267483,2025-06-23 14h07.22.738442 +0200,
19,0,19,,,,,,space,1.595516100000168,None,None,3,1.0432859000002281,0.22497219999968365,None,0,0,0,0,,,,,1,0,1,0,,,,,19,0,19,0,862.9533185,,,,,,,,,,,,,,,,,,,,,,,,,,,,,,,,,,,,,,,,,,,,,,,,,,,,,,,,,Zeigen,5.8019,862.9384425999997,862.9390346,862.9391411999995,862.9533185,868.7703418000001,868.7540547999997,868.7584648000002,868.7703418000001,868.7703418000001,868.7703418000001,868.7703418000001,870.7695700999993,870.7695700999993,870.7695700999993,870.7695700999993,870.7545444999996,3,1.0432859000002281,0.22497219999968365,None,,,,,,,,,,,,,,,,,,,,,,5968,1,2025-06-23_14h07.14.193,sm,2024.2.4,59.97897137267483,2025-06-23 14h07.22.738442 +0200,
20,0,20,,,,,,space,1.595516100000168,None,None,3,0.8570305000002918,0.21238549999998213,None,0,0,0,0,,,,,1,0,1,0,,,,,20,0,20,0,870.7695700999993,,,,,,,,,,,,,,,,,,,,,,,,,,,,,,,,,,,,,,,,,,,,,,,,,,,,,,,,,Golf,2.9951,870.7550569999994,870.7555677,870.7556727000001,870.7695700999993,873.7693318000001,873.7538144999999,873.7570312999997,873.7693318000001,873.7693318000001,873.7693318000001,873.7693318000001,875.7692434,875.7692434,875.7692434,875.7692434,875.7536061999999,3,0.8570305000002918,0.21238549999998213,None,,,,,,,,,,,,,,,,,,,,,,5968,1,2025-06-23_14h07.14.193,sm,2024.2.4,59.97897137267483,2025-06-23 14h07.22.738442 +0200,
21,0,21,,,,,,space,1.595516100000168,None,None,3,0.9940661999999065,0.1881823000003351,None,0,0,0,0,,,,,1,0,1,0,,,,,21,0,21,0,875.7692434,,,,,,,,,,,,,,,,,,,,,,,,,,,,,,,,,,,,,,,,,,,,,,,,,,,,,,,,,Tal,2.4013,875.7541207999993,875.7546400000001,875.7547454999994,875.7692434,878.1856877999999,878.1700609999998,878.1732320000001,878.1856877999999,878.1856877999999,878.1856877999999,878.1856877999999,880.1859076999999,880.1859076999999,880.1859076999999,880.1859076999999,880.1703018999997,3,0.9940661999999065,0.1881823000003351,None,,,,,,,,,,,,,,,,,,,,,,5968,1,2025-06-23_14h07.14.193,sm,2024.2.4,59.97897137267483,2025-06-23 14h07.22.738442 +0200,
22,0,22,,,,,,space,1.595516100000168,None,None,3,1.3151608999996824,0.17046149999987392,None,0,0,0,0,,,,,1,0,1,0,,,,,22,0,22,0,880.1859076999999,,,,,,,,,,,,,,,,,,,,,,,,,,,,,,,,,,,,,,,,,,,,,,,,,,,,,,,,,Party,3.7553,880.1708128,880.1713301,880.1714354999995,880.1859076999999,883.9520918999997,883.9363631999995,883.9426846999995,883.9520918999997,883.9520918999997,883.9520918999997,883.9520918999997,885.9521283999993,885.9521283999993,885.9521283999993,885.9521283999993,885.9364421,3,1.3151608999996824,0.17046149999987392,None,,,,,,,,,,,,,,,,,,,,,,5968,1,2025-06-23_14h07.14.193,sm,2024.2.4,59.97897137267483,2025-06-23 14h07.22.738442 +0200,
23,0,23,,,,,,space,1.595516100000168,None,None,2,0.9285977999998067,0.16847839999991265,None,0,0,0,0,,,,,1,0,1,0,,,,,23,0,23,0,885.9521283999993,,,,,,,,,,,,,,,,,,,,,,,,,,,,,,,,,,,,,,,,,,,,,,,,,,,,,,,,,Anwalt,2.1491,885.9369583999996,885.9374745999994,885.9375792000001,885.9521283999993,888.1018189999995,888.0859931999994,888.0904370999997,888.1018189999995,888.1018189999995,888.1018189999995,888.1018189999995,890.1017824,890.1017824,890.1017824,890.1017824,890.0862349999998,2,0.9285977999998067,0.16847839999991265,None,,,,,,,,,,,,,,,,,,,,,,5968,1,2025-06-23_14h07.14.193,sm,2024.2.4,59.97897137267483,2025-06-23 14h07.22.738442 +0200,
24,0,24,,,,,,space,1.595516100000168,None,None,3,0.7230165999999372,0.18572239999957674,None,0,0,0,0,,,,,1,0,1,0,,,,,24,0,24,0,890.1017824,,,,,,,,,,,,,,,,,,,,,,,,,,,,,,,,,,,,,,,,,,,,,,,,,,,,,,,,,Zeit,4.1412,890.0867382999995,890.0872638000001,890.0873670999999,890.1017824,894.2517128,894.2359998000002,894.2400379000001,894.2517128,894.2517128,894.2517128,894.2517128,896.2518049,896.2518049,896.2518049,896.2518049,896.2355812999995,3,0.7230165999999372,0.18572239999957674,None,,,,,,,,,,,,,,,,,,,,,,5968,1,2025-06-23_14h07.14.193,sm,2024.2.4,59.97897137267483,2025-06-23 14h07.22.738442 +0200,
25,0,25,,,,,,space,1.595516100000168,None,None,3,1.131862799999908,0.24665730000015174,None,0,0,0,0,,,,,1,0,1,0,,,,,25,0,25,0,896.2518049,,,,,,,,,,,,,,,,,,,,,,,,,,,,,,,,,,,,,,,,,,,,,,,,,,,,,,,,,Fiktion,3.2864,896.2360058999993,896.236465,896.2365503999999,896.2518049,899.5511944999998,899.5360766999993,899.5402637999996,899.5511944999998,899.5511944999998,899.5511944999998,899.5511944999998,901.5512702999995,901.5512702999995,901.5512702999995,901.5512702999995,901.5356716999995,3,1.131862799999908,0.24665730000015174,None,,,,,,,,,,,,,,,,,,,,,,5968,1,2025-06-23_14h07.14.193,sm,2024.2.4,59.97897137267483,2025-06-23 14h07.22.738442 +0200,
26,0,26,,,,,,space,1.595516100000168,None,None,2,0.8955535000004602,0.21924599999965722,None,0,0,0,0,,,,,1,0,1,0,,,,,26,0,26,0,901.5512702999995,,,,,,,,,,,,,,,,,,,,,,,,,,,,,,,,,,,,,,,,,,,,,,,,,,,,,,,,,Gast,3.6156,901.5361856,901.5367243999999,901.5368330000001,901.5512702999995,905.1674267999997,905.1515984999996,905.1545812999993,905.1674267999997,905.1674267999997,905.1674267999997,905.1674267999997,907.1677616999996,907.1677616999996,907.1677616999996,907.1677616999996,907.1520605999995,2,0.8955535000004602,0.21924599999965722,None,,,,,,,,,,,,,,,,,,,,,,5968,1,2025-06-23_14h07.14.193,sm,2024.2.4,59.97897137267483,2025-06-23 14h07.22.738442 +0200,
27,0,27,,,,,,space,1.595516100000168,None,None,3,1.14272020000044,0.23636110000006738,None,0,0,0,0,,,,,1,0,1,0,,,,,27,0,27,0,907.1677616999996,,,,,,,,,,,,,,,,,,,,,,,,,,,,,,,,,,,,,,,,,,,,,,,,,,,,,,,,,Geheimnis,2.2618,907.1525996,907.1531046,907.1532115999998,907.1677616999996,909.4341606999997,909.4184169,909.4227554999998,909.4341606999997,909.4341606999997,909.4341606999997,909.4341606999997,911.4341617999999,911.4341617999999,911.4341617999999,911.4341617999999,911.4187097999993,3,1.14272020000044,0.23636110000006738,None,,,,,,,,,,,,,,,,,,,,,,5968,1,2025-06-23_14h07.14.193,sm,2024.2.4,59.97897137267483,2025-06-23 14h07.22.738442 +0200,
28,0,28,,,,,,space,1.595516100000168,None,None,2,0.8317623000002641,0.14646840000023076,None,0,0,0,0,,,,,1,0,1,0,,,,,28,0,28,0,911.4341617999999,,,,,,,,,,,,,,,,,,,,,,,,,,,,,,,,,,,,,,,,,,,,,,,,,,,,,,,,,Spinne,3.6532,911.4192151999996,911.4198607999997,911.4199654999993,911.4341617999999,915.1005061999995,915.0845584999997,915.0878744000001,915.1005061999995,915.1005061999995,915.1005061999995,915.1005061999995,917.1003461999999,917.1003461999999,917.1003461999999,917.1003461999999,917.0849776999994,2,0.8317623000002641,0.14646840000023076,None,,,,,,,,,,,,,,,,,,,,,,5968,1,2025-06-23_14h07.14.193,sm,2024.2.4,59.97897137267483,2025-06-23 14h07.22.738442 +0200,
29,0,29,,,,,,space,1.595516100000168,None,None,3,0.9354895000005854,0.19390039999962028,None,0,0,0,0,,,,,1,0,1,0,,,,,29,0,29,0,917.1003461999999,,,,,,,,,,,,,,,,,,,,,,,,,,,,,,,,,,,,,,,,,,,,,,,,,,,,,,,,,Hose,2.1689,917.0854866,917.0862308999995,917.0863333999996,917.1003461999999,919.2832754000001,919.2677496999995,919.2732716,919.2832754000001,919.2832754000001,919.2832754000001,919.2832754000001,921.2833071999994,921.2833071999994,921.2833071999994,921.2833071999994,921.2676350000002,3,0.9354895000005854,0.19390039999962028,None,,,,,,,,,,,,,,,,,,,,,,5968,1,2025-06-23_14h07.14.193,sm,2024.2.4,59.97897137267483,2025-06-23 14h07.22.738442 +0200,
30,0,30,,,,,,space,1.595516100000168,None,None,2,1.125906400000531,0.1675357999993139,None,0,0,0,0,,,,,1,0,1,0,,,,,30,0,30,0,921.2833071999994,,,,,,,,,,,,,,,,,,,,,,,,,,,,,,,,,,,,,,,,,,,,,,,,,,,,,,,,,Arm,3.1693,921.2681481,921.2686618999996,921.2687673,921.2833071999994,924.4663811999999,924.4509687,924.4541627999997,924.4663811999999,924.4663811999999,924.4663811999999,924.4663811999999,926.4664523000001,926.4664523000001,926.4664523000001,926.4664523000001,926.4509952999997,2,1.125906400000531,0.1675357999993139,None,,,,,,,,,,,,,,,,,,,,,,5968,1,2025-06-23_14h07.14.193,sm,2024.2.4,59.97897137267483,2025-06-23 14h07.22.738442 +0200,
31,0,31,,,,,,space,1.595516100000168,None,None,3,0.7679529999995793,0.21233089999986987,None,0,0,0,0,,,,,1,0,1,0,,,,,31,0,31,0,926.4664523000001,,,,,,,,,,,,,,,,,,,,,,,,,,,,,,,,,,,,,,,,,,,,,,,,,,,,,,,,,Kaffee,2.048,926.4515029999993,926.4520057,926.4521104999994,926.4664523000001,928.5164694999994,928.5010296999999,928.5050453999993,928.5164694999994,928.5164694999994,928.5164694999994,928.5164694999994,930.5162455999998,930.5162455999998,930.5162455999998,930.5162455999998,930.5009542999996,3,0.7679529999995793,0.21233089999986987,None,,,,,,,,,,,,,,,,,,,,,,5968,1,2025-06-23_14h07.14.193,sm,2024.2.4,59.97897137267483,2025-06-23 14h07.22.738442 +0200,
32,0,32,,,,,,space,1.595516100000168,None,None,3,0.9519976999999926,0.22640940000019327,None,0,0,0,0,,,,,1,0,1,0,,,,,32,0,32,0,930.5162455999998,,,,,,,,,,,,,,,,,,,,,,,,,,,,,,,,,,,,,,,,,,,,,,,,,,,,,,,,,Flut,2.1467,930.5014600999993,930.502203,930.5023055000001,930.5162455999998,932.6663875999993,932.6508325999994,932.6542941999996,932.6663875999993,932.6663875999993,932.6663875999993,932.6663875999993,934.6659105999997,934.6659105999997,934.6659105999997,934.6659105999997,934.6505627999995,3,0.9519976999999926,0.22640940000019327,None,,,,,,,,,,,,,,,,,,,,,,5968,1,2025-06-23_14h07.14.193,sm,2024.2.4,59.97897137267483,2025-06-23 14h07.22.738442 +0200,
33,0,33,,,,,,space,1.595516100000168,None,None,3,1.072734400000627,0.22042319999945903,None,0,0,0,0,,,,,1,0,1,0,,,,,33,0,33,0,934.6659105999997,,,,,,,,,,,,,,,,,,,,,,,,,,,,,,,,,,,,,,,,,,,,,,,,,,,,,,,,,Weiß,2.6637,934.6510725999997,934.6515817999998,934.6516845999995,934.6659105999997,937.3323150999995,937.3165873999997,937.3195320999994,937.3323150999995,937.3323150999995,937.3323150999995,937.3323150999995,939.3324566000001,939.3324566000001,939.3324566000001,939.3324566000001,939.3170209,3,1.072734400000627,0.22042319999945903,None,,,,,,,,,,,,,,,,,,,,,,5968,1,2025-06-23_14h07.14.193,sm,2024.2.4,59.97897137267483,2025-06-23 14h07.22.738442 +0200,
34,0,34,,,,,,space,1.595516100000168,None,None,2,1.143377500000497,0.1632025999997495,None,0,0,0,0,,,,,1,0,1,0,,,,,34,0,34,0,939.3324566000001,,,,,,,,,,,,,,,,,,,,,,,,,,,,,,,,,,,,,,,,,,,,,,,,,,,,,,,,,Knie,2.7763,939.3175302,939.3182118999994,939.3183180999995,939.3324566000001,942.1155505999996,942.0998304999994,942.1033511999995,942.1155505999996,942.1155505999996,942.1155505999996,942.1155505999996,944.1154544999999,944.1154544999999,944.1154544999999,944.1154544999999,944.0999483999994,2,1.143377500000497,0.1632025999997495,None,,,,,,,,,,,,,,,,,,,,,,5968,1,2025-06-23_14h07.14.193,sm,2024.2.4,59.97897137267483,2025-06-23 14h07.22.738442 +0200,
35,0,35,,,,,,space,1.595516100000168,None,None,3,0.8631185000003825,0.2489077999998699,None,0,0,0,0,,,,,1,0,1,0,,,,,35,0,35,0,944.1154544999999,,,,,,,,,,,,,,,,,,,,,,,,,,,,,,,,,,,,,,,,,,,,,,,,,,,,,,,,,Soße,2.2674,944.1004579999999,944.1011032999995,944.1012049000001,944.1154544999999,946.3817433999993,946.3664068999997,946.3691217999994,946.3817433999993,946.3817433999993,946.3817433999993,946.3817433999993,948.3821490999999,948.3821490999999,948.3821490999999,948.3821490999999,948.3668207999999,3,0.8631185000003825,0.2489077999998699,None,,,,,,,,,,,,,,,,,,,,,,5968,1,2025-06-23_14h07.14.193,sm,2024.2.4,59.97897137267483,2025-06-23 14h07.22.738442 +0200,
36,0,36,,,,,,space,1.595516100000168,None,None,3,0.8984582000002774,0.20542629999999917,None,0,0,0,0,,,,,1,0,1,0,,,,,36,0,36,0,948.3821490999999,,,,,,,,,,,,,,,,,,,,,,,,,,,,,,,,,,,,,,,,,,,,,,,,,,,,,,,,,Marmor,2.1079,948.3673785999999,948.3679222999999,948.3680338999993,948.3821490999999,950.4985062999995,950.4826039999998,950.4865203999998,950.4985062999995,950.4985062999995,950.4985062999995,950.4985062999995,952.4983097999993,952.4983097999993,952.4983097999993,952.4983097999993,952.4828017,3,0.8984582000002774,0.20542629999999917,None,,,,,,,,,,,,,,,,,,,,,,5968,1,2025-06-23_14h07.14.193,sm,2024.2.4,59.97897137267483,2025-06-23 14h07.22.738442 +0200,
37,0,37,,,,,,space,1.595516100000168,None,None,3,1.2091871000002357,0.1965280000003986,None,0,0,0,0,,,,,1,0,1,0,,,,,37,0,37,0,952.4983097999993,,,,,,,,,,,,,,,,,,,,,,,,,,,,,,,,,,,,,,,,,,,,,,,,,,,,,,,,,Feuer,2.9084,952.4833136999996,952.4839613999993,952.4840681999995,952.4983097999993,955.4145549999994,955.3990647,955.4028343,955.4145549999994,955.4145549999994,955.4145549999994,955.4145549999994,957.4147364999999,957.4147364999999,957.4147364999999,957.4147364999999,957.3992988999998,3,1.2091871000002357,0.1965280000003986,None,,,,,,,,,,,,,,,,,,,,,,5968,1,2025-06-23_14h07.14.193,sm,2024.2.4,59.97897137267483,2025-06-23 14h07.22.738442 +0200,
38,0,38,,,,,,space,1.595516100000168,None,None,2,1.3158825000000434,0.1678210999998555,None,0,0,0,0,,,,,1,0,1,0,,,,,38,0,38,0,957.4147364999999,,,,,,,,,,,,,,,,,,,,,,,,,,,,,,,,,,,,,,,,,,,,,,,,,,,,,,,,,Fuß,3.0118,957.399813,957.4003355999994,957.4004434999997,957.4147364999999,960.4310940999994,960.4156481999999,960.4193549000001,960.4310940999994,960.4310940999994,960.4310940999994,960.4310940999994,962.4313874999998,962.4313874999998,962.4313874999998,962.4313874999998,962.4155734999995,2,1.3158825000000434,0.1678210999998555,None,,,,,,,,,,,,,,,,,,,,,,5968,1,2025-06-23_14h07.14.193,sm,2024.2.4,59.97897137267483,2025-06-23 14h07.22.738442 +0200,
39,0,39,,,,,,space,1.595516100000168,None,None,3,0.8204144000001179,0.2083943999996336,None,0,0,0,0,,,,,1,0,1,0,,,,,39,0,39,0,962.4313874999998,,,,,,,,,,,,,,,,,,,,,,,,,,,,,,,,,,,,,,,,,,,,,,,,,,,,,,,,,Wüste,3.7324,962.4160885000001,962.4165990000001,962.4167035,962.4313874999998,966.1641584999998,966.1488346999995,966.1527520999998,966.1641584999998,966.1641584999998,966.1641584999998,966.1641584999998,968.1641597999997,968.1641597999997,968.1641597999997,968.1641597999997,968.1485050000001,3,0.8204144000001179,0.2083943999996336,None,,,,,,,,,,,,,,,,,,,,,,5968,1,2025-06-23_14h07.14.193,sm,2024.2.4,59.97897137267483,2025-06-23 14h07.22.738442 +0200,
40,0,40,,,,,,space,1.595516100000168,None,None,3,1.6318466000002445,0.2335546999993312,None,0,0,0,0,,,,,1,0,1,0,,,,,40,0,40,0,968.1641597999997,,,,,,,,,,,,,,,,,,,,,,,,,,,,,,,,,,,,,,,,,,,,,,,,,,,,,,,,,Kartoffel,4.0672,968.1490182999996,968.1495347999999,968.1496413999994,968.1641597999997,972.230251,972.2146748999994,972.2185835999999,972.230251,972.230251,972.230251,972.230251,974.2323577999996,974.2323577999996,974.2323577999996,974.2323577999996,974.2151968999997,3,1.6318466000002445,0.2335546999993312,None,,,,,,,,,,,,,,,,,,,,,,5968,1,2025-06-23_14h07.14.193,sm,2024.2.4,59.97897137267483,2025-06-23 14h07.22.738442 +0200,
41,0,41,,,,,,space,1.595516100000168,None,None,3,0.9696724999994331,0.34805510000023787,None,0,0,0,0,,,,,1,0,1,0,,,,,41,0,41,0,974.2323577999996,,,,,,,,,,,,,,,,,,,,,,,,,,,,,,,,,,,,,,,,,,,,,,,,,,,,,,,,,Liebe,2.3952,974.2157049999996,974.2162199999993,974.2163252999999,974.2323577999996,976.6303231000002,976.6147131999996,976.6188646,976.6303231000002,976.6303231000002,976.6303231000002,976.6303231000002,978.6306681999995,978.6306681999995,978.6306681999995,978.6306681999995,978.6147931999994,3,0.9696724999994331,0.34805510000023787,None,,,,,,,,,,,,,,,,,,,,,,5968,1,2025-06-23_14h07.14.193,sm,2024.2.4,59.97897137267483,2025-06-23 14h07.22.738442 +0200,
42,0,42,,,,,,space,1.595516100000168,None,None,3,0.6969553999997515,0.23686570000063512,None,0,0,0,0,,,,,1,0,1,0,,,,,42,0,42,0,978.6306681999995,,,,,,,,,,,,,,,,,,,,,,,,,,,,,,,,,,,,,,,,,,,,,,,,,,,,,,,,,Vers,2.6624,978.6153018999994,978.6159474999995,978.6160534,978.6306681999995,981.2966866999996,981.2811532999995,981.2848141999993,981.2966866999996,981.2966866999996,981.2966866999996,981.2966866999996,983.2971054999998,983.2971054999998,983.2971054999998,983.2971054999998,983.2810085000001,3,0.6969553999997515,0.23686570000063512,None,,,,,,,,,,,,,,,,,,,,,,5968,1,2025-06-23_14h07.14.193,sm,2024.2.4,59.97897137267483,2025-06-23 14h07.22.738442 +0200,
43,0,43,,,,,,space,1.595516100000168,None,None,3,0.9632549999996627,0.208784000000378,None,0,0,0,0,,,,,1,0,1,0,,,,,43,0,43,0,983.2971054999998,,,,,,,,,,,,,,,,,,,,,,,,,,,,,,,,,,,,,,,,,,,,,,,,,,,,,,,,,Orange,2.1949,983.2815242999995,983.2820371999996,983.2821484999995,983.2971054999998,985.4970322999998,985.4807900999995,985.4852291999996,985.4970322999998,985.4970322999998,985.4970322999998,985.4970322999998,987.4964675000001,987.4964675000001,987.4964675000001,987.4964675000001,987.4809128999996,3,0.9632549999996627,0.208784000000378,None,,,,,,,,,,,,,,,,,,,,,,5968,1,2025-06-23_14h07.14.193,sm,2024.2.4,59.97897137267483,2025-06-23 14h07.22.738442 +0200,
44,0,44,,,,,,space,1.595516100000168,None,None,3,0.7818010999999387,0.21151000000008935,None,0,0,0,0,,,,,1,0,1,0,,,,,44,0,44,0,987.4964675000001,,,,,,,,,,,,,,,,,,,,,,,,,,,,,,,,,,,,,,,,,,,,,,,,,,,,,,,,,Schlamm,3.7881,987.4814268,987.4820817999998,987.4821883999994,987.4964675000001,991.2962195,991.2806056999998,991.284893,991.2962195,991.2962195,991.2962195,991.2962195,993.2961341,993.2961341,993.2961341,993.2961341,993.2806120999994,3,0.7818010999999387,0.21151000000008935,None,,,,,,,,,,,,,,,,,,,,,,5968,1,2025-06-23_14h07.14.193,sm,2024.2.4,59.97897137267483,2025-06-23 14h07.22.738442 +0200,
45,0,45,,,,,,space,1.595516100000168,None,None,3,1.4282272999998895,0.23528299999998126,None,0,0,0,0,,,,,1,0,1,0,,,,,45,0,45,0,993.2961341,,,,,,,,,,,,,,,,,,,,,,,,,,,,,,,,,,,,,,,,,,,,,,,,,,,,,,,,,Gesicht,2.6266,993.2811302999999,993.2816755999993,993.2817814999999,993.2961341,995.9291149999999,995.9138773999994,995.9181546999998,995.9291149999999,995.9291149999999,995.9291149999999,995.9291149999999,997.929212,997.929212,997.929212,997.929212,997.9135710999999,3,1.4282272999998895,0.23528299999998126,None,,,,,,,,,,,,,,,,,,,,,,5968,1,2025-06-23_14h07.14.193,sm,2024.2.4,59.97897137267483,2025-06-23 14h07.22.738442 +0200,
46,0,46,,,,,,space,1.595516100000168,None,None,3,0.8505544999998165,0.22145460000047024,None,0,0,0,0,,,,,1,0,1,0,,,,,46,0,46,0,997.929212,,,,,,,,,,,,,,,,,,,,,,,,,,,,,,,,,,,,,,,,,,,,,,,,,,,,,,,,,Radio,3.3336,997.9140889,997.9146073000002,997.9147133999995,997.929212,1001.2625140999999,1001.2471550999999,1001.2511525999998,1001.2625140999999,1001.2625140999999,1001.2625140999999,1001.2625140999999,1003.2624247999993,1003.2624247999993,1003.2624247999993,1003.2624247999993,1003.2468934999997,3,0.8505544999998165,0.22145460000047024,None,,,,,,,,,,,,,,,,,,,,,,5968,1,2025-06-23_14h07.14.193,sm,2024.2.4,59.97897137267483,2025-06-23 14h07.22.738442 +0200,
47,0,47,,,,,,space,1.595516100000168,None,None,3,1.2884073000004719,0.17344150000008085,None,0,0,0,0,,,,,1,0,1,0,,,,,47,0,47,0,1003.2624247999993,,,,,,,,,,,,,,,,,,,,,,,,,,,,,,,,,,,,,,,,,,,,,,,,,,,,,,,,,Bad,2.0203,1003.2474011999993,1003.2481456999994,1003.2482506999995,1003.2624247999993,1005.2953780999997,1005.2796508000001,1005.2830434999996,1005.2953780999997,1005.2953780999997,1005.2953780999997,1005.2953780999997,1007.2953127000001,1007.2953127000001,1007.2953127000001,1007.2953127000001,1007.2797210999997,3,1.2884073000004719,0.17344150000008085,None,,,,,,,,,,,,,,,,,,,,,,5968,1,2025-06-23_14h07.14.193,sm,2024.2.4,59.97897137267483,2025-06-23 14h07.22.738442 +0200,
48,0,48,,,,,,space,1.595516100000168,None,None,3,1.070601500000521,0.22633489999952872,None,0,0,0,0,,,,,1,0,1,0,,,,,48,0,48,0,1007.2953127000001,,,,,,,,,,,,,,,,,,,,,,,,,,,,,,,,,,,,,,,,,,,,,,,,,,,,,,,,,Tanne,4.3594,1007.2802361999993,1007.2807419999999,1007.2808520999997,1007.2953127000001,1011.6618694999997,1011.6460503999997,1011.6501301999997,1011.6618694999997,1011.6618694999997,1011.6618694999997,1011.6618694999997,1013.6616887,1013.6616887,1013.6616887,1013.6616887,1013.6460977999996,3,1.070601500000521,0.22633489999952872,None,,,,,,,,,,,,,,,,,,,,,,5968,1,2025-06-23_14h07.14.193,sm,2024.2.4,59.97897137267483,2025-06-23 14h07.22.738442 +0200,
49,0,49,,,,,,space,1.595516100000168,None,None,3,1.084246099999291,0.18873960000018997,None,0,0,0,0,,,,,1,0,1,0,,,,,49,0,49,0,1013.6616887,,,,,,,,,,,,,,,,,,,,,,,,,,,,,,,,,,,,,,,,,,,,,,,,,,,,,,,,,Lernen,2.3392,1013.6466033999995,1013.6471155999998,1013.6472218999997,1013.6616887,1016.0110655999997,1015.9954824999995,1015.9987966999997,1016.0110655999997,1016.0110655999997,1016.0110655999997,1016.0110655999997,1018.0114599999997,1018.0114599999997,1018.0114599999997,1018.0114599999997,1017.9957906999998,3,1.084246099999291,0.18873960000018997,None,,,,,,,,,,,,,,,,,,,,,,5968,1,2025-06-23_14h07.14.193,sm,2024.2.4,59.97897137267483,2025-06-23 14h07.22.738442 +0200,
50,0,50,,,,,,space,1.595516100000168,None,None,3,0.8063052999996216,0.21580459999950108,None,0,0,0,0,,,,,1,0,1,0,,,,,50,0,50,0,1018.0114599999997,,,,,,,,,,,,,,,,,,,,,,,,,,,,,,,,,,,,,,,,,,,,,,,,,,,,,,,,,Himmel,3.2087,1017.9963115,1017.9968149999995,1017.9969211999996,1018.0114599999997,1021.2277534999994,1021.2118706000001,1021.2162664999996,1021.2277534999994,1021.2277534999994,1021.2277534999994,1021.2277534999994,1023.2278133999998,1023.2278133999998,1023.2278133999998,1023.2278133999998,1023.2121060999998,3,0.8063052999996216,0.21580459999950108,None,,,,,,,,,,,,,,,,,,,,,,5968,1,2025-06-23_14h07.14.193,sm,2024.2.4,59.97897137267483,2025-06-23 14h07.22.738442 +0200,
51,0,51,,,,,,space,1.595516100000168,None,None,3,1.4745907999995325,0.22848100000010163,None,0,0,0,0,,,,,1,0,1,0,,,,,51,0,51,0,1023.2278133999998,,,,,,,,,,,,,,,,,,,,,,,,,,,,,,,,,,,,,,,,,,,,,,,,,,,,,,,,,Rose,2.04,1023.2126141999997,1023.2131153999999,1023.2132223999997,1023.2278133999998,1025.2776303,1025.2620839,1025.2657629999994,1025.2776303,1025.2776303,1025.2776303,1025.2776303,1027.2775683,1027.2775683,1027.2775683,1027.2775683,1027.2619810999995,3,1.4745907999995325,0.22848100000010163,None,,,,,,,,,,,,,,,,,,,,,,5968,1,2025-06-23_14h07.14.193,sm,2024.2.4,59.97897137267483,2025-06-23 14h07.22.738442 +0200,
52,0,52,,,,,,space,1.595516100000168,None,None,3,0.7947981999996045,0.246146200000112,None,0,0,0,0,,,,,1,0,1,0,,,,,52,0,52,0,1027.2775683,,,,,,,,,,,,,,,,,,,,,,,,,,,,,,,,,,,,,,,,,,,,,,,,,,,,,,,,,Brille,2.3585,1027.2624869,1027.2631277,1027.2632291,1027.2775683,1029.6439867,1029.6284392999996,1029.6326171,1029.6439867,1029.6439867,1029.6439867,1029.6439867,1031.6440263999993,1031.6440263999993,1031.6440263999993,1031.6440263999993,1031.6285659999994,3,0.7947981999996045,0.246146200000112,None,,,,,,,,,,,,,,,,,,,,,,5968,1,2025-06-23_14h07.14.193,sm,2024.2.4,59.97897137267483,2025-06-23 14h07.22.738442 +0200,
53,0,53,,,,,,space,1.595516100000168,None,None,3,0.7889291999999841,0.20896019999963755,None,0,0,0,0,,,,,1,0,1,0,,,,,53,0,53,0,1031.6440263999993,,,,,,,,,,,,,,,,,,,,,,,,,,,,,,,,,,,,,,,,,,,,,,,,,,,,,,,,,Schwimmen,2.4487,1031.6290771999993,1031.6295999999993,1031.6297040999998,1031.6440263999993,1034.0938090999998,1034.0776428,1034.0811428999996,1034.0938090999998,1034.0938090999998,1034.0938090999998,1034.0938090999998,1036.0936920999993,1036.0936920999993,1036.0936920999993,1036.0936920999993,1036.0782854,3,0.7889291999999841,0.20896019999963755,None,,,,,,,,,,,,,,,,,,,,,,5968,1,2025-06-23_14h07.14.193,sm,2024.2.4,59.97897137267483,2025-06-23 14h07.22.738442 +0200,
54,0,54,,,,,,space,1.595516100000168,None,None,3,1.3113302000001568,0.19407369999953517,None,0,0,0,0,,,,,1,0,1,0,,,,,54,0,54,0,1036.0936920999993,,,,,,,,,,,,,,,,,,,,,,,,,,,,,,,,,,,,,,,,,,,,,,,,,,,,,,,,,Rebe,5.0849,1036.0787745999996,1036.0794161999993,1036.0795223999994,1036.0936920999993,1041.1933984999996,1041.1775485999997,1041.1805471999996,1041.1933984999996,1041.1933984999996,1041.1933984999996,1041.1933984999996,1043.1931937,1043.1931937,1043.1931937,1043.1931937,1043.1777671,3,1.3113302000001568,0.19407369999953517,None,,,,,,,,,,,,,,,,,,,,,,5968,1,2025-06-23_14h07.14.193,sm,2024.2.4,59.97897137267483,2025-06-23 14h07.22.738442 +0200,
55,0,55,,,,,,space,1.595516100000168,None,None,3,0.7194289999997636,0.22281910000037897,None,0,0,0,0,,,,,1,0,1,0,,,,,55,0,55,0,1043.1931937,,,,,,,,,,,,,,,,,,,,,,,,,,,,,,,,,,,,,,,,,,,,,,,,,,,,,,,,,Nacht,2.7119,1043.1782735999996,1043.1789258,1043.1790285999996,1043.1931937,1045.9097059999995,1045.8941754999996,1045.8976524,1045.9097059999995,1045.9097059999995,1045.9097059999995,1045.9097059999995,1047.9098361999995,1047.9098361999995,1047.9098361999995,1047.9098361999995,1047.8944739999997,3,0.7194289999997636,0.22281910000037897,None,,,,,,,,,,,,,,,,,,,,,,5968,1,2025-06-23_14h07.14.193,sm,2024.2.4,59.97897137267483,2025-06-23 14h07.22.738442 +0200,
56,0,56,,,,,,space,1.595516100000168,None,None,3,0.8762045000003127,0.23100169999997888,None,0,0,0,0,,,,,1,0,1,0,,,,,56,0,56,0,1047.9098361999995,,,,,,,,,,,,,,,,,,,,,,,,,,,,,,,,,,,,,,,,,,,,,,,,,,,,,,,,,Ferien,3.7998,1047.8949806,1047.8956325999998,1047.8957338,1047.9098361999995,1051.7094498999995,1051.6936206999999,1051.697024,1051.7094498999995,1051.7094498999995,1051.7094498999995,1051.7094498999995,1053.7096038,1053.7096038,1053.7096038,1053.7096038,1053.6937533,3,0.8762045000003127,0.23100169999997888,None,,,,,,,,,,,,,,,,,,,,,,5968,1,2025-06-23_14h07.14.193,sm,2024.2.4,59.97897137267483,2025-06-23 14h07.22.738442 +0200,
57,0,57,,,,,,space,1.595516100000168,None,None,3,1.319533699999738,0.25679220000074565,None,0,0,0,0,,,,,1,0,1,0,,,,,57,0,57,0,1053.7096038,,,,,,,,,,,,,,,,,,,,,,,,,,,,,,,,,,,,,,,,,,,,,,,,,,,,,,,,,Glück,2.079,1053.6942669999999,1053.6947744,1053.6948830000001,1053.7096038,1055.7926616999994,1055.7768548999993,1055.7811949999996,1055.7926616999994,1055.7926616999994,1055.7926616999994,1055.7926616999994,1057.7928252000002,1057.7928252000002,1057.7928252000002,1057.7928252000002,1057.7768142999994,3,1.319533699999738,0.25679220000074565,None,,,,,,,,,,,,,,,,,,,,,,5968,1,2025-06-23_14h07.14.193,sm,2024.2.4,59.97897137267483,2025-06-23 14h07.22.738442 +0200,
58,0,58,,,,,,space,1.595516100000168,None,None,3,1.198902499999349,0.24561249999987922,None,0,0,0,0,,,,,1,0,1,0,,,,,58,0,58,0,1057.7928252000002,,,,,,,,,,,,,,,,,,,,,,,,,,,,,,,,,,,,,,,,,,,,,,,,,,,,,,,,,Strand,2.7501,1057.7772876999998,1057.7777959999994,1057.7778940999997,1057.7928252000002,1060.5422725999997,1060.5264361,1060.5300061999997,1060.5422725999997,1060.5422725999997,1060.5422725999997,1060.5422725999997,1062.5422955999993,1062.5422955999993,1062.5422955999993,1062.5422955999993,1062.5269459,3,1.198902499999349,0.24561249999987922,None,,,,,,,,,,,,,,,,,,,,,,5968,1,2025-06-23_14h07.14.193,sm,2024.2.4,59.97897137267483,2025-06-23 14h07.22.738442 +0200,
59,0,59,,,,,,space,1.595516100000168,None,None,3,0.9653932999999597,0.2777610999992248,None,0,0,0,0,,,,,1,0,1,0,,,,,59,0,59,0,1062.5422955999993,,,,,,,,,,,,,,,,,,,,,,,,,,,,,,,,,,,,,,,,,,,,,,,,,,,,,,,,,Krone,3.1829,1062.5274574999994,1062.5281103999996,1062.5282158999999,1062.5422955999993,1065.7254935,1065.7096930999996,1065.7136200999994,1065.7254935,1065.7254935,1065.7254935,1065.7254935,1067.7255460999995,1067.7255460999995,1067.7255460999995,1067.7255460999995,1067.7098802,3,0.9653932999999597,0.2777610999992248,None,,,,,,,,,,,,,,,,,,,,,,5968,1,2025-06-23_14h07.14.193,sm,2024.2.4,59.97897137267483,2025-06-23 14h07.22.738442 +0200,
60,0,60,,,,,,space,1.595516100000168,None,None,3,1.1410558999996283,0.21535119999953167,None,0,0,0,0,,,,,1,0,1,0,,,,,60,0,60,0,1067.7255460999995,,,,,,,,,,,,,,,,,,,,,,,,,,,,,,,,,,,,,,,,,,,,,,,,,,,,,,,,,Erbe,2.5495,1067.7104043,1067.7109111999998,1067.7110223,1067.7255460999995,1070.2756042,1070.2596691999997,1070.2633182,1070.2756042,1070.2756042,1070.2756042,1070.2756042,1072.2750048999997,1072.2750048999997,1072.2750048999997,1072.2750048999997,1072.2598332999996,3,1.1410558999996283,0.21535119999953167,None,,,,,,,,,,,,,,,,,,,,,,5968,1,2025-06-23_14h07.14.193,sm,2024.2.4,59.97897137267483,2025-06-23 14h07.22.738442 +0200,
61,0,61,,,,,,space,1.595516100000168,None,None,2,1.9221277000006012,None,None,0,0,0,0,,,,,1,0,1,0,,,,,61,0,61,0,1072.2750048999997,,,,,,,,,,,,,,,,,,,,,,,,,,,,,,,,,,,,,,,,,,,,,,,,,,,,,,,,,Klempner,2.1345,1072.2603398,1072.2609904,1072.2610945999995,1072.2750048999997,1074.4248871,1074.4090572999994,1074.4128150999995,1074.4248871,1074.4248871,1074.4248871,1074.4248871,1076.4247173999993,1076.4247173999993,1076.4247173999993,1076.4247173999993,1076.4093137,2,1.9221277000006012,None,None,,,,,,,,,,,,,,,,,,,,,,5968,1,2025-06-23_14h07.14.193,sm,2024.2.4,59.97897137267483,2025-06-23 14h07.22.738442 +0200,
62,0,62,,,,,,space,1.595516100000168,None,None,3,0.7971515999997791,0.24501210000016727,None,0,0,0,0,,,,,1,0,1,0,,,,,62,0,62,0,1076.4247173999993,,,,,,,,,,,,,,,,,,,,,,,,,,,,,,,,,,,,,,,,,,,,,,,,,,,,,,,,,Gewürz,4.471,1076.4098269999995,1076.4105166999998,1076.4106216999999,1076.4247173999993,1080.9077743999997,1080.8921340999996,1080.8953261999995,1080.9077743999997,1080.9077743999997,1080.9077743999997,1080.9077743999997,1082.9078447000002,1082.9078447000002,1082.9078447000002,1082.9078447000002,1082.8923144,3,0.7971515999997791,0.24501210000016727,None,,,,,,,,,,,,,,,,,,,,,,5968,1,2025-06-23_14h07.14.193,sm,2024.2.4,59.97897137267483,2025-06-23 14h07.22.738442 +0200,
63,0,63,,,,,,space,1.595516100000168,None,None,3,0.7639707999996972,0.23621800000000803,None,0,0,0,0,,,,,1,0,1,0,,,,,63,0,63,0,1082.9078447000002,,,,,,,,,,,,,,,,,,,,,,,,,,,,,,,,,,,,,,,,,,,,,,,,,,,,,,,,,Anruf,2.9855,1082.8928287999997,1082.8933867999995,1082.8934903,1082.9078447000002,1085.9074707999998,1085.8919471,1085.8960435,1085.9074707999998,1085.9074707999998,1085.9074707999998,1085.9074707999998,1087.9074182999993,1087.9074182999993,1087.9074182999993,1087.9074182999993,1087.8918317999996,3,0.7639707999996972,0.23621800000000803,None,,,,,,,,,,,,,,,,,,,,,,5968,1,2025-06-23_14h07.14.193,sm,2024.2.4,59.97897137267483,2025-06-23 14h07.22.738442 +0200,
64,0,64,,,,,,space,1.595516100000168,None,None,3,0.8311592999998538,0.23643150000043534,None,0,0,0,0,,,,,1,0,1,0,,,,,64,0,64,0,1087.9074182999993,,,,,,,,,,,,,,,,,,,,,,,,,,,,,,,,,,,,,,,,,,,,,,,,,,,,,,,,,Universität,2.0301,1087.8923461999993,1087.8928676999994,1087.8929713999996,1087.9074182999993,1089.9402280999993,1089.9248424999996,1089.9319558999996,1089.9402280999993,1089.9402280999993,1089.9402280999993,1089.9402280999993,1091.9406886999996,1091.9406886999996,1091.9406886999996,1091.9406886999996,1091.9250302,3,0.8311592999998538,0.23643150000043534,None,,,,,,,,,,,,,,,,,,,,,,5968,1,2025-06-23_14h07.14.193,sm,2024.2.4,59.97897137267483,2025-06-23 14h07.22.738442 +0200,
