thisN,thisTrialN,thisRepN,Cue,Target,Mediator1,Mediator2,iti,scanner_ready_press.keys,scanner_ready_press.rt,scanner_ready_press.duration,skip_trigger.keys,living_nonliving.keys,living_nonliving.rt,living_nonliving.duration,end_mapping.keys,blocks.thisRepN,blocks.thisTrialN,blocks.thisN,blocks.thisIndex,load_and_shuffle.thisRepN,load_and_shuffle.thisTrialN,load_and_shuffle.thisN,load_and_shuffle.thisIndex,runs.thisRepN,runs.thisTrialN,runs.thisN,runs.thisIndex,iti_loading_loop.thisRepN,iti_loading_loop.thisTrialN,iti_loading_loop.thisN,iti_loading_loop.thisIndex,semantic_mapping_run.thisRepN,semantic_mapping_run.thisTrialN,semantic_mapping_run.thisN,semantic_mapping_run.thisIndex,thisRow.t,notes,welcome.started,welcome_text.started,welcome.stopped,scout.started,scout_text.started,key_resp.started,scout.stopped,key_resp.keys,key_resp.rt,key_resp.duration,instructions_semantic_mapping1.started,sm_instructions1_text.started,sm_instructions1_key.started,instructions_semantic_mapping1.stopped,sm_instructions1_key.keys,sm_instructions1_key.rt,sm_instructions1_key.duration,instructions_semantic_mapping2.started,sm_instructions2_text.started,sm_instructions2_key.started,instructions_semantic_mapping2.stopped,sm_instructions2_key.keys,sm_instructions2_key.rt,sm_instructions2_key.duration,reset_run.started,reset_run.stopped,shuffle_items.started,shuffle_items.stopped,set_up_runs.started,set_up_runs.stopped,load_iti.started,load_iti.stopped,prep_scanner.started,scanner_ready_press.started,ready_set_text.started,prep_scanner.stopped,runs.scanner_ready_press.keys,runs.scanner_ready_press.rt,runs.scanner_ready_press.duration,wait_for_trigger.started,starting_soon.started,skip_trigger.started,wait_for_trigger.stopped,runs.skip_trigger.keys,blank.started,begin_end_run_cross.started,sound_1.started,sound_1.stopped,sound_2.started,sound_2.stopped,begin_end_run_cross.stopped,blank.stopped,CurrentItem,CurrentITI,set_up_trial.started,set_up_trial.stopped,sm_iti.started,iti_cross.started,iti_cross.stopped,sm_iti.stopped,item.started,living_nonliving.started,end_mapping.started,living_nonliving_text.started,semantic_map_item.started,living_nonliving.stopped,end_mapping.stopped,living_nonliving_text.stopped,semantic_map_item.stopped,item.stopped,semantic_mapping_run.living_nonliving.keys,semantic_mapping_run.living_nonliving.rt,semantic_mapping_run.living_nonliving.duration,semantic_mapping_run.end_mapping.keys,fieldmap.started,fieldmap.stopped,runs.fm_key.keys,task_break.started,feeback_text.started,task_break_text.started,task_break_resp.started,feeback_text.stopped,task_break.stopped,runs.task_break_resp.keys,runs.task_break_resp.rt,runs.task_break_resp.duration,fm_text.started,fm_key.started,runs.fm_key.rt,runs.fm_key.duration,thanks.started,thanks_text.started,thanks.stopped,PID,MRI,date,expName,psychopyVersion,frameRate,expStart,
,,,,,,,,,,,,,,,,,,,,,,,,,,,,,,,,,,,,,,0.004810899998119567,0.010238199996820185,3.00866159999714,,,,,,,,,,,,,,,,,,,,,,,,,,,,,,,,,,,,,,,,,,,,,,,,,,,,,,,,,,,,,,,,,,,,,,,,,,,,,,,,,,,,,,,,,,,2405,1,2025-06-18_19h52.42.236,sm,2024.2.4,59.96584345508702,2025-06-18 19h52.52.563907 +0200,
,,,,,,,,,,,,,,,,,,,,,,,,,,,,,,,,,,,,,,,,,3.008750599998166,3.024908699997468,3.024908699997468,3.0981899999969755,space,0.06365809999988414,None,,,,,,,,,,,,,,,,,,,,,,,,,,,,,,,,,,,,,,,,,,,,,,,,,,,,,,,,,,,,,,,,,,,,,,,,,,,,,,,,,,,,2405,1,2025-06-18_19h52.42.236,sm,2024.2.4,59.96584345508702,2025-06-18 19h52.52.563907 +0200,
,,,,,,,,,,,,,,,,,,,,,,,,,,,,,,,,,,,,,,,,,,,,,,,,3.098314199996821,3.1065754999981436,3.1065754999981436,10.574327699996502,2,7.4534441999967385,None,,,,,,,,,,,,,,,,,,,,,,,,,,,,,,,,,,,,,,,,,,,,,,,,,,,,,,,,,,,,,,,,,,,,,,,,,,,,,2405,1,2025-06-18_19h52.42.236,sm,2024.2.4,59.96584345508702,2025-06-18 19h52.52.563907 +0200,
,,,,,,,,,,,,,,,,,,,,,,,,,,,,,,,,,,,,,,,,,,,,,,,,,,,,,,,10.574447899998631,10.589376099997025,10.589376099997025,19.923811299999215,2,9.327525400000013,None,,,,,,,,,,,,,,,,,,,,,,,,,,,,,,,,,,,,,,,,,,,,,,,,,,,,,,,,,,,,,,,,,,,,,,2405,1,2025-06-18_19h52.42.236,sm,2024.2.4,59.96584345508702,2025-06-18 19h52.52.563907 +0200,
0,0,0,Rasen,Pflege,Mäher,Gras,3.3057,space,121.72490990000006,None,None,3,1.2990587999993295,0.3519918999991205,None,0,0,0,0,0,79,79,77,0,0,0,0,0,79,79,54,0,0,0,0,201.4132690999977,,,,,,,,,,,,,,,,,,,,,,,,,,19.924672099998133,19.925481799997215,19.991910999997344,19.992145999996865,19.996573599997646,19.996864599997934,20.02630969999882,20.026576399999612,20.032773599999928,20.036679299999378,20.036679299999378,141.76891069999692,space,121.72490990000006,None,141.76909299999897,141.78376669999852,141.78376669999852,189.39717109999765,None,189.40574129999732,189.41429959999732,189.41257126666486,190.6160581999975,199.3970414666658,200.40561009999874,201.4132690999977,201.3978341999973,Karton,3.3057,201.39927839999655,201.39993329999925,201.40316379999786,201.4132690999977,204.7302017999973,204.71432789999744,204.72056669999802,204.7302017999973,204.7302017999973,204.7302017999973,204.7302017999973,206.72997679999753,206.72997679999753,206.72997679999753,206.72997679999753,206.71441719999711,3,1.2990587999993295,0.3519918999991205,None,,,,,,,,,,,,,,,,,,,,2405,1,2025-06-18_19h52.42.236,sm,2024.2.4,59.96584345508702,2025-06-18 19h52.52.563907 +0200,
1,0,1,,,,,,space,121.72490990000006,None,None,2,1.59221179999804,0.2682372999988729,None,0,0,0,0,,,,,0,0,0,0,,,,,1,0,1,0,206.72997679999753,,,,,,,,,,,,,,,,,,,,,,,,,,,,,,,,,,,,,,,,,,,,,,,,,,,,,,Gras,3.0501,206.71497949999684,206.71549529999902,206.7156025999975,206.72997679999753,209.7803240999965,209.76414439999644,209.76762289999897,209.7803240999965,209.7803240999965,209.7803240999965,209.7803240999965,211.7796718999998,211.7796718999998,211.7796718999998,211.7796718999998,211.76392879999912,2,1.59221179999804,0.2682372999988729,None,,,,,,,,,,,,,,,,,,,,2405,1,2025-06-18_19h52.42.236,sm,2024.2.4,59.96584345508702,2025-06-18 19h52.52.563907 +0200,
2,0,2,,,,,,space,121.72490990000006,None,None,3,0.8283039999987523,0.3516557000002649,None,0,0,0,0,,,,,0,0,0,0,,,,,2,0,2,0,211.7796718999998,,,,,,,,,,,,,,,,,,,,,,,,,,,,,,,,,,,,,,,,,,,,,,,,,,,,,,Marmor,4.3947,211.76443219999783,211.76493339999797,211.76504679999925,211.7796718999998,216.17984519999663,216.16383869999845,216.16879309999786,216.17984519999663,216.17984519999663,216.17984519999663,216.17984519999663,218.17938119999963,218.17938119999963,218.17938119999963,218.17938119999963,218.16378409999743,3,0.8283039999987523,0.3516557000002649,None,,,,,,,,,,,,,,,,,,,,2405,1,2025-06-18_19h52.42.236,sm,2024.2.4,59.96584345508702,2025-06-18 19h52.52.563907 +0200,
3,0,3,,,,,,space,121.72490990000006,None,None,3,0.8160366000010981,0.33939729999838164,None,0,0,0,0,,,,,0,0,0,0,,,,,3,0,3,0,218.17938119999963,,,,,,,,,,,,,,,,,,,,,,,,,,,,,,,,,,,,,,,,,,,,,,,,,,,,,,Sitzgurt,3.832,218.16429459999927,218.16481069999645,218.16491799999858,218.17938119999963,222.01238029999877,221.99652829999832,222.00002569999924,222.01238029999877,222.01238029999877,222.01238029999877,222.01238029999877,224.0123962999969,224.0123962999969,224.0123962999969,224.0123962999969,223.9968151999965,3,0.8160366000010981,0.33939729999838164,None,,,,,,,,,,,,,,,,,,,,2405,1,2025-06-18_19h52.42.236,sm,2024.2.4,59.96584345508702,2025-06-18 19h52.52.563907 +0200,
4,0,4,,,,,,space,121.72490990000006,None,None,2,1.0044997000004514,0.27561710000009043,None,0,0,0,0,,,,,0,0,0,0,,,,,4,0,4,0,224.0123962999969,,,,,,,,,,,,,,,,,,,,,,,,,,,,,,,,,,,,,,,,,,,,,,,,,,,,,,Kunde,2.7308,223.99726669999654,223.99788019999687,223.9979753999978,224.0123962999969,226.74542849999852,226.72962119999647,226.7330253,226.74542849999852,226.74542849999852,226.74542849999852,226.74542849999852,228.74525249999715,228.74525249999715,228.74525249999715,228.74525249999715,228.7299546999966,2,1.0044997000004514,0.27561710000009043,None,,,,,,,,,,,,,,,,,,,,2405,1,2025-06-18_19h52.42.236,sm,2024.2.4,59.96584345508702,2025-06-18 19h52.52.563907 +0200,
5,0,5,,,,,,space,121.72490990000006,None,None,3,0.7976043000016944,0.2971638000017265,None,0,0,0,0,,,,,0,0,0,0,,,,,5,0,5,0,228.74525249999715,,,,,,,,,,,,,,,,,,,,,,,,,,,,,,,,,,,,,,,,,,,,,,,,,,,,,,Hütte,4.24,228.73046449999674,228.73098519999985,228.73109569999724,228.74525249999715,232.99525789999825,232.9793893999995,232.98575419999906,232.99525789999825,232.99525789999825,232.99525789999825,232.99525789999825,234.9951407999979,234.9951407999979,234.9951407999979,234.9951407999979,234.979516899999,3,0.7976043000016944,0.2971638000017265,None,,,,,,,,,,,,,,,,,,,,2405,1,2025-06-18_19h52.42.236,sm,2024.2.4,59.96584345508702,2025-06-18 19h52.52.563907 +0200,
6,0,6,,,,,,space,121.72490990000006,None,None,3,0.9190727999994124,0.29294669999944745,None,0,0,0,0,,,,,0,0,0,0,,,,,6,0,6,0,234.9951407999979,,,,,,,,,,,,,,,,,,,,,,,,,,,,,,,,,,,,,,,,,,,,,,,,,,,,,,Dachboden,2.5593,234.9800224999999,234.98054499999853,234.98065399999905,234.9951407999979,237.56140269999742,237.54627289999917,237.55059189999884,237.56140269999742,237.56140269999742,237.56140269999742,237.56140269999742,239.56140349999987,239.56140349999987,239.56140349999987,239.56140349999987,239.54587449999963,3,0.9190727999994124,0.29294669999944745,None,,,,,,,,,,,,,,,,,,,,2405,1,2025-06-18_19h52.42.236,sm,2024.2.4,59.96584345508702,2025-06-18 19h52.52.563907 +0200,
7,0,7,,,,,,space,121.72490990000006,None,None,2,0.7938955000026908,0.27390799999921,None,0,0,0,0,,,,,0,0,0,0,,,,,7,0,7,0,239.56140349999987,,,,,,,,,,,,,,,,,,,,,,,,,,,,,,,,,,,,,,,,,,,,,,,,,,,,,,Tischler,4.1554,239.54637909999656,239.5468869999968,239.54699609999807,239.56140349999987,243.72772049999912,243.712091399997,243.7161589999996,243.72772049999912,243.72772049999912,243.72772049999912,243.72772049999912,245.72799049999958,245.72799049999958,245.72799049999958,245.72799049999958,245.71249739999985,2,0.7938955000026908,0.27390799999921,None,,,,,,,,,,,,,,,,,,,,2405,1,2025-06-18_19h52.42.236,sm,2024.2.4,59.96584345508702,2025-06-18 19h52.52.563907 +0200,
8,0,8,,,,,,space,121.72490990000006,None,None,3,0.8285864999998012,0.24094870000044466,None,0,0,0,0,,,,,0,0,0,0,,,,,8,0,8,0,245.72799049999958,,,,,,,,,,,,,,,,,,,,,,,,,,,,,,,,,,,,,,,,,,,,,,,,,,,,,,Herbst,3.5248,245.71302679999644,245.71371799999906,245.7138305999979,245.72799049999958,249.26085319999765,249.24507619999713,249.24910079999972,249.26085319999765,249.26085319999765,249.26085319999765,249.26085319999765,251.26073689999976,251.26073689999976,251.26073689999976,251.26073689999976,251.24531709999792,3,0.8285864999998012,0.24094870000044466,None,,,,,,,,,,,,,,,,,,,,2405,1,2025-06-18_19h52.42.236,sm,2024.2.4,59.96584345508702,2025-06-18 19h52.52.563907 +0200,
9,0,9,,,,,,space,121.72490990000006,None,None,2,0.8609074999985751,0.35146630000235746,None,0,0,0,0,,,,,0,0,0,0,,,,,9,0,9,0,251.26073689999976,,,,,,,,,,,,,,,,,,,,,,,,,,,,,,,,,,,,,,,,,,,,,,,,,,,,,,Weinen,2.2697,251.2458270999996,251.2463418999978,251.24644629999966,251.26073689999976,253.54386309999973,253.52829309999652,253.53202519999832,253.54386309999973,253.54386309999973,253.54386309999973,253.54386309999973,255.54386049999812,255.54386049999812,255.54386049999812,255.54386049999812,255.52868409999792,2,0.8609074999985751,0.35146630000235746,None,,,,,,,,,,,,,,,,,,,,2405,1,2025-06-18_19h52.42.236,sm,2024.2.4,59.96584345508702,2025-06-18 19h52.52.563907 +0200,
10,0,10,,,,,,space,121.72490990000006,None,None,3,1.0145616000008886,0.27033120000123745,None,0,0,0,0,,,,,0,0,0,0,,,,,10,0,10,0,255.54386049999812,,,,,,,,,,,,,,,,,,,,,,,,,,,,,,,,,,,,,,,,,,,,,,,,,,,,,,Geschmack,2.5036,255.52922049999688,255.52988889999688,255.5300408999974,255.54386049999812,258.060371399999,258.0449430999979,258.0492860999984,258.060371399999,258.060371399999,258.060371399999,258.060371399999,260.0604078999968,260.0604078999968,260.0604078999968,260.0604078999968,260.0445867999988,3,1.0145616000008886,0.27033120000123745,None,,,,,,,,,,,,,,,,,,,,2405,1,2025-06-18_19h52.42.236,sm,2024.2.4,59.96584345508702,2025-06-18 19h52.52.563907 +0200,
11,0,11,,,,,,space,121.72490990000006,None,None,2,0.6024722999973164,0.25211470000067493,None,0,0,0,0,,,,,0,0,0,0,,,,,11,0,11,0,260.0604078999968,,,,,,,,,,,,,,,,,,,,,,,,,,,,,,,,,,,,,,,,,,,,,,,,,,,,,,Familie,2.6954,260.04507869999725,260.0455918999978,260.04569309999715,260.0604078999968,262.7599991999996,262.7443804999966,262.75017899999875,262.7599991999996,262.7599991999996,262.7599991999996,262.7599991999996,264.7599840999974,264.7599840999974,264.7599840999974,264.7599840999974,264.74446649999663,2,0.6024722999973164,0.25211470000067493,None,,,,,,,,,,,,,,,,,,,,2405,1,2025-06-18_19h52.42.236,sm,2024.2.4,59.96584345508702,2025-06-18 19h52.52.563907 +0200,
12,0,12,,,,,,space,121.72490990000006,None,None,3,0.9331373000022722,0.2973404999975173,None,0,0,0,0,,,,,0,0,0,0,,,,,12,0,12,0,264.7599840999974,,,,,,,,,,,,,,,,,,,,,,,,,,,,,,,,,,,,,,,,,,,,,,,,,,,,,,Chips,2.5335,264.74497189999965,264.74562199999855,264.74572759999865,264.7599840999974,267.29318809999677,267.2775516999973,267.28291649999665,267.29318809999677,267.29318809999677,267.29318809999677,267.29318809999677,269.2930575999999,269.2930575999999,269.2930575999999,269.2930575999999,269.27741289999904,3,0.9331373000022722,0.2973404999975173,None,,,,,,,,,,,,,,,,,,,,2405,1,2025-06-18_19h52.42.236,sm,2024.2.4,59.96584345508702,2025-06-18 19h52.52.563907 +0200,
13,0,13,,,,,,space,121.72490990000006,None,None,3,0.8786532999984047,0.2866615999992064,None,0,0,0,0,,,,,0,0,0,0,,,,,13,0,13,0,269.2930575999999,,,,,,,,,,,,,,,,,,,,,,,,,,,,,,,,,,,,,,,,,,,,,,,,,,,,,,Bürste,2.5116,269.27792569999656,269.2784402999969,269.27854789999765,269.2930575999999,271.8095057999999,271.7941355999974,271.79816359999677,271.8095057999999,271.8095057999999,271.8095057999999,271.8095057999999,273.80946799999947,273.80946799999947,273.80946799999947,273.80946799999947,273.79396899999847,3,0.8786532999984047,0.2866615999992064,None,,,,,,,,,,,,,,,,,,,,2405,1,2025-06-18_19h52.42.236,sm,2024.2.4,59.96584345508702,2025-06-18 19h52.52.563907 +0200,
14,0,14,,,,,,space,121.72490990000006,None,None,2,0.7909816999999748,0.2667117999990296,None,0,0,0,0,,,,,0,0,0,0,,,,,14,0,14,0,273.80946799999947,,,,,,,,,,,,,,,,,,,,,,,,,,,,,,,,,,,,,,,,,,,,,,,,,,,,,,Anführer,2.2595,273.79447199999777,273.79503049999767,273.7951383999971,273.80946799999947,276.0760190999972,276.0602687999999,276.064752899998,276.0760190999972,276.0760190999972,276.0760190999972,276.0760190999972,278.07603369999924,278.07603369999924,278.07603369999924,278.07603369999924,278.060531799998,2,0.7909816999999748,0.2667117999990296,None,,,,,,,,,,,,,,,,,,,,2405,1,2025-06-18_19h52.42.236,sm,2024.2.4,59.96584345508702,2025-06-18 19h52.52.563907 +0200,
15,0,15,,,,,,space,121.72490990000006,None,None,3,0.7469127999975171,0.3015417000024172,None,0,0,0,0,,,,,0,0,0,0,,,,,15,0,15,0,278.07603369999924,,,,,,,,,,,,,,,,,,,,,,,,,,,,,,,,,,,,,,,,,,,,,,,,,,,,,,Ringe,2.771,278.0610289999968,278.0616904999988,278.06179439999687,278.07603369999924,280.8590424999966,280.84348469999895,280.84754969999995,280.8590424999966,280.8590424999966,280.8590424999966,280.8590424999966,282.8591267999982,282.8591267999982,282.8591267999982,282.8591267999982,282.84355519999735,3,0.7469127999975171,0.3015417000024172,None,,,,,,,,,,,,,,,,,,,,2405,1,2025-06-18_19h52.42.236,sm,2024.2.4,59.96584345508702,2025-06-18 19h52.52.563907 +0200,
16,0,16,,,,,,space,121.72490990000006,None,None,3,0.7841989999978978,0.29525040000226,None,0,0,0,0,,,,,0,0,0,0,,,,,16,0,16,0,282.8591267999982,,,,,,,,,,,,,,,,,,,,,,,,,,,,,,,,,,,,,,,,,,,,,,,,,,,,,,Spülung,2.3264,282.844060899999,282.84457929999917,282.84469159999935,282.8591267999982,285.19193769999765,285.1764445999979,285.1798697999984,285.19193769999765,285.19193769999765,285.19193769999765,285.19193769999765,287.1923383999965,287.1923383999965,287.1923383999965,287.1923383999965,287.17674869999973,3,0.7841989999978978,0.29525040000226,None,,,,,,,,,,,,,,,,,,,,2405,1,2025-06-18_19h52.42.236,sm,2024.2.4,59.96584345508702,2025-06-18 19h52.52.563907 +0200,
17,0,17,,,,,,space,121.72490990000006,None,None,3,0.6269038000027649,0.29905309999958263,None,0,0,0,0,,,,,0,0,0,0,,,,,17,0,17,0,287.1923383999965,,,,,,,,,,,,,,,,,,,,,,,,,,,,,,,,,,,,,,,,,,,,,,,,,,,,,,Wanne,2.0604,287.1772547999972,287.17783759999656,287.17794429999776,287.1923383999965,289.2587852999968,289.2428782999996,289.2470453999995,289.2587852999968,289.2587852999968,289.2587852999968,289.2587852999968,291.2586236999996,291.2586236999996,291.2586236999996,291.2586236999996,291.2431860999968,3,0.6269038000027649,0.29905309999958263,None,,,,,,,,,,,,,,,,,,,,2405,1,2025-06-18_19h52.42.236,sm,2024.2.4,59.96584345508702,2025-06-18 19h52.52.563907 +0200,
18,0,18,,,,,,space,121.72490990000006,None,None,3,0.8291362000018125,0.5052418999985093,None,0,0,0,0,,,,,0,0,0,0,,,,,18,0,18,0,291.2586236999996,,,,,,,,,,,,,,,,,,,,,,,,,,,,,,,,,,,,,,,,,,,,,,,,,,,,,,Angriff,2.769,291.24368579999646,291.24426999999923,291.24437379999654,291.2586236999996,294.0416003999999,294.0262477999968,294.0303649999987,294.0416003999999,294.0416003999999,294.0416003999999,294.0416003999999,296.04165269999794,296.04165269999794,296.04165269999794,296.04165269999794,296.02587459999995,3,0.8291362000018125,0.5052418999985093,None,,,,,,,,,,,,,,,,,,,,2405,1,2025-06-18_19h52.42.236,sm,2024.2.4,59.96584345508702,2025-06-18 19h52.52.563907 +0200,
19,0,19,,,,,,space,121.72490990000006,None,None,3,0.7394869000017934,0.2763498999993317,None,0,0,0,0,,,,,0,0,0,0,,,,,19,0,19,0,296.04165269999794,,,,,,,,,,,,,,,,,,,,,,,,,,,,,,,,,,,,,,,,,,,,,,,,,,,,,,Ball,2.7886,296.02634319999925,296.0270740999986,296.02717239999765,296.04165269999794,298.84130229999937,298.8255618999974,298.8286304999965,298.84130229999937,298.84130229999937,298.84130229999937,298.84130229999937,300.841306899998,300.841306899998,300.841306899998,300.841306899998,300.82559429999674,3,0.7394869000017934,0.2763498999993317,None,,,,,,,,,,,,,,,,,,,,2405,1,2025-06-18_19h52.42.236,sm,2024.2.4,59.96584345508702,2025-06-18 19h52.52.563907 +0200,
20,0,20,,,,,,space,121.72490990000006,None,None,3,1.4101972999997088,0.2762460999983887,None,0,0,0,0,,,,,0,0,0,0,,,,,20,0,20,0,300.841306899998,,,,,,,,,,,,,,,,,,,,,,,,,,,,,,,,,,,,,,,,,,,,,,,,,,,,,,Poesie,2.1574,300.8261001999999,300.82660979999855,300.8267154999994,300.841306899998,303.00748629999725,302.9920612999995,302.9992977999973,303.00748629999725,303.00748629999725,303.00748629999725,303.00748629999725,305.0076906999966,305.0076906999966,305.0076906999966,305.0076906999966,304.9922470999991,3,1.4101972999997088,0.2762460999983887,None,,,,,,,,,,,,,,,,,,,,2405,1,2025-06-18_19h52.42.236,sm,2024.2.4,59.96584345508702,2025-06-18 19h52.52.563907 +0200,
21,0,21,,,,,,space,121.72490990000006,None,None,2,0.6802123999987089,0.2594115000028978,None,0,0,0,0,,,,,0,0,0,0,,,,,21,0,21,0,305.0076906999966,,,,,,,,,,,,,,,,,,,,,,,,,,,,,,,,,,,,,,,,,,,,,,,,,,,,,,Gruppe,2.6784,304.9927523999977,304.99326870000004,304.99337469999955,305.0076906999966,307.6908498999983,307.6755900999997,307.67928969999775,307.6908498999983,307.6908498999983,307.6908498999983,307.6908498999983,309.69092509999973,309.69092509999973,309.69092509999973,309.69092509999973,309.6755138999979,2,0.6802123999987089,0.2594115000028978,None,,,,,,,,,,,,,,,,,,,,2405,1,2025-06-18_19h52.42.236,sm,2024.2.4,59.96584345508702,2025-06-18 19h52.52.563907 +0200,
22,0,22,,,,,,space,121.72490990000006,None,None,3,0.6956499999978405,0.3017540000000736,None,0,0,0,0,,,,,0,0,0,0,,,,,22,0,22,0,309.69092509999973,,,,,,,,,,,,,,,,,,,,,,,,,,,,,,,,,,,,,,,,,,,,,,,,,,,,,,Nebel,2.0917,309.67601569999897,309.67652499999895,309.67663019999964,309.69092509999973,311.7903391999971,311.7749206999979,311.7783933999999,311.7903391999971,311.7903391999971,311.7903391999971,311.7903391999971,313.7908269999971,313.7908269999971,313.7908269999971,313.7908269999971,313.7750905999965,3,0.6956499999978405,0.3017540000000736,None,,,,,,,,,,,,,,,,,,,,2405,1,2025-06-18_19h52.42.236,sm,2024.2.4,59.96584345508702,2025-06-18 19h52.52.563907 +0200,
23,0,23,,,,,,space,121.72490990000006,None,None,3,0.7990600999983144,0.3140480000001844,None,0,0,0,0,,,,,0,0,0,0,,,,,23,0,23,0,313.7908269999971,,,,,,,,,,,,,,,,,,,,,,,,,,,,,,,,,,,,,,,,,,,,,,,,,,,,,,Schnee,3.9147,313.7755954999993,313.7761180999987,313.7762236999988,313.7908269999971,317.7066460999995,317.6909102999998,317.6940803999969,317.7066460999995,317.7066460999995,317.7066460999995,317.7066460999995,319.70694829999775,319.70694829999775,319.70694829999775,319.70694829999775,319.69149689999904,3,0.7990600999983144,0.3140480000001844,None,,,,,,,,,,,,,,,,,,,,2405,1,2025-06-18_19h52.42.236,sm,2024.2.4,59.96584345508702,2025-06-18 19h52.52.563907 +0200,
24,0,24,,,,,,space,121.72490990000006,None,None,2,0.6630488000009791,0.28025440000055823,None,0,0,0,0,,,,,0,0,0,0,,,,,24,0,24,0,319.70694829999775,,,,,,,,,,,,,,,,,,,,,,,,,,,,,,,,,,,,,,,,,,,,,,,,,,,,,,Lehrer,4.7794,319.6920029999965,319.69257039999866,319.6926765999997,319.70694829999775,324.48985289999837,324.4744111999971,324.47860109999965,324.48985289999837,324.48985289999837,324.48985289999837,324.48985289999837,326.48991209999804,326.48991209999804,326.48991209999804,326.48991209999804,326.4741434999996,2,0.6630488000009791,0.28025440000055823,None,,,,,,,,,,,,,,,,,,,,2405,1,2025-06-18_19h52.42.236,sm,2024.2.4,59.96584345508702,2025-06-18 19h52.52.563907 +0200,
25,0,25,,,,,,space,121.72490990000006,None,None,3,1.1378411999976379,0.25059840000176337,None,0,0,0,0,,,,,0,0,0,0,,,,,25,0,25,0,326.48991209999804,,,,,,,,,,,,,,,,,,,,,,,,,,,,,,,,,,,,,,,,,,,,,,,,,,,,,,Bild,3.8786,326.47458979999647,326.4751166999995,326.47521089999645,326.48991209999804,330.37306519999765,330.3572307999966,330.36044769999717,330.37306519999765,330.37306519999765,330.37306519999765,330.37306519999765,332.3730779999969,332.3730779999969,332.3730779999969,332.3730779999969,332.3575150999968,3,1.1378411999976379,0.25059840000176337,None,,,,,,,,,,,,,,,,,,,,2405,1,2025-06-18_19h52.42.236,sm,2024.2.4,59.96584345508702,2025-06-18 19h52.52.563907 +0200,
26,0,26,,,,,,space,121.72490990000006,None,None,3,1.0735014999991108,0.27426090000153636,None,0,0,0,0,,,,,0,0,0,0,,,,,26,0,26,0,332.3730779999969,,,,,,,,,,,,,,,,,,,,,,,,,,,,,,,,,,,,,,,,,,,,,,,,,,,,,,Rolle,2.071,332.3580215999973,332.3585318999976,332.3586396999999,332.3730779999969,334.45607109999764,334.44090129999677,334.4448651999992,334.45607109999764,334.45607109999764,334.45607109999764,334.45607109999764,336.4562616999974,336.4562616999974,336.4562616999974,336.4562616999974,336.4403895999967,3,1.0735014999991108,0.27426090000153636,None,,,,,,,,,,,,,,,,,,,,2405,1,2025-06-18_19h52.42.236,sm,2024.2.4,59.96584345508702,2025-06-18 19h52.52.563907 +0200,
27,0,27,,,,,,space,121.72490990000006,None,None,2,0.7124641999980668,0.23939210000025923,None,0,0,0,0,,,,,0,0,0,0,,,,,27,0,27,0,336.4562616999974,,,,,,,,,,,,,,,,,,,,,,,,,,,,,,,,,,,,,,,,,,,,,,,,,,,,,,Blumen,3.181,336.4408915999993,336.44153519999963,336.4416394999971,336.4562616999974,339.6390219999994,339.62344029999804,339.62779299999966,339.6390219999994,339.6390219999994,339.6390219999994,339.6390219999994,341.63901209999676,341.63901209999676,341.63901209999676,341.63901209999676,341.6238541999992,2,0.7124641999980668,0.23939210000025923,None,,,,,,,,,,,,,,,,,,,,2405,1,2025-06-18_19h52.42.236,sm,2024.2.4,59.96584345508702,2025-06-18 19h52.52.563907 +0200,
28,0,28,,,,,,space,121.72490990000006,None,None,3,0.8459002999989025,0.34807010000076843,None,0,0,0,0,,,,,0,0,0,0,,,,,28,0,28,0,341.63901209999676,,,,,,,,,,,,,,,,,,,,,,,,,,,,,,,,,,,,,,,,,,,,,,,,,,,,,,Sturm,3.5107,341.62435769999865,341.6250352999996,341.62513839999883,341.63901209999676,345.15544579999914,345.1399434999985,345.14388589999726,345.15544579999914,345.15544579999914,345.15544579999914,345.15544579999914,347.15544859999864,347.15544859999864,347.15544859999864,347.15544859999864,347.13964869999836,3,0.8459002999989025,0.34807010000076843,None,,,,,,,,,,,,,,,,,,,,2405,1,2025-06-18_19h52.42.236,sm,2024.2.4,59.96584345508702,2025-06-18 19h52.52.563907 +0200,
29,0,29,,,,,,space,121.72490990000006,None,None,3,0.825066199999128,0.38191940000251634,None,0,0,0,0,,,,,0,0,0,0,,,,,29,0,29,0,347.15544859999864,,,,,,,,,,,,,,,,,,,,,,,,,,,,,,,,,,,,,,,,,,,,,,,,,,,,,,Afrika,3.1651,347.14007509999647,347.14060339999924,347.14069299999755,347.15544859999864,350.32155919999786,350.30604129999847,350.3097909999997,350.32155919999786,350.32155919999786,350.32155919999786,350.32155919999786,352.3217958999994,352.3217958999994,352.3217958999994,352.3217958999994,352.30613959999755,3,0.825066199999128,0.38191940000251634,None,,,,,,,,,,,,,,,,,,,,2405,1,2025-06-18_19h52.42.236,sm,2024.2.4,59.96584345508702,2025-06-18 19h52.52.563907 +0200,
30,0,30,,,,,,space,121.72490990000006,None,None,3,1.1537759000020742,0.290202500000305,None,0,0,0,0,,,,,0,0,0,0,,,,,30,0,30,0,352.3217958999994,,,,,,,,,,,,,,,,,,,,,,,,,,,,,,,,,,,,,,,,,,,,,,,,,,,,,,Sterne,3.6634,352.30664069999693,352.3072941999999,352.30739879999965,352.3217958999994,355.98858629999813,355.97228599999653,355.9756753999973,355.98858629999813,355.98858629999813,355.98858629999813,355.98858629999813,357.98816609999994,357.98816609999994,357.98816609999994,357.98816609999994,357.9726097999992,3,1.1537759000020742,0.290202500000305,None,,,,,,,,,,,,,,,,,,,,2405,1,2025-06-18_19h52.42.236,sm,2024.2.4,59.96584345508702,2025-06-18 19h52.52.563907 +0200,
31,0,31,,,,,,space,121.72490990000006,None,None,2,0.7226728999994521,0.2842104000010295,None,0,0,0,0,,,,,0,0,0,0,,,,,31,0,31,0,357.98816609999994,,,,,,,,,,,,,,,,,,,,,,,,,,,,,,,,,,,,,,,,,,,,,,,,,,,,,,Monster,2.6125,357.9731206999968,357.9736363999982,357.9737387999994,357.98816609999994,360.6043311999965,360.5887816999966,360.59251369999765,360.6043311999965,360.6043311999965,360.6043311999965,360.6043311999965,362.60455629999706,362.60455629999706,362.60455629999706,362.60455629999706,362.5888533999969,2,0.7226728999994521,0.2842104000010295,None,,,,,,,,,,,,,,,,,,,,2405,1,2025-06-18_19h52.42.236,sm,2024.2.4,59.96584345508702,2025-06-18 19h52.52.563907 +0200,
32,0,32,,,,,,space,121.72490990000006,None,None,3,1.482034399999975,0.28194499999881373,None,0,0,0,0,,,,,0,0,0,0,,,,,32,0,32,0,362.60455629999706,,,,,,,,,,,,,,,,,,,,,,,,,,,,,,,,,,,,,,,,,,,,,,,,,,,,,,Komödie,2.5391,362.58936259999973,362.5898716999982,362.58997629999794,362.60455629999706,365.1541452999991,365.138427599999,365.1416986999975,365.1541452999991,365.1541452999991,365.1541452999991,365.1541452999991,367.154277499998,367.154277499998,367.154277499998,367.154277499998,367.13875469999766,3,1.482034399999975,0.28194499999881373,None,,,,,,,,,,,,,,,,,,,,2405,1,2025-06-18_19h52.42.236,sm,2024.2.4,59.96584345508702,2025-06-18 19h52.52.563907 +0200,
33,0,33,,,,,,space,121.72490990000006,None,None,3,1.182085399999778,0.30315039999914006,None,0,0,0,0,,,,,0,0,0,0,,,,,33,0,33,0,367.154277499998,,,,,,,,,,,,,,,,,,,,,,,,,,,,,,,,,,,,,,,,,,,,,,,,,,,,,,Tee,4.8304,367.1393382999995,367.1399251999974,367.14003239999874,367.154277499998,371.9872250999979,371.9718845999996,371.9762110999982,371.9872250999979,371.9872250999979,371.9872250999979,371.9872250999979,373.98719849999907,373.98719849999907,373.98719849999907,373.98719849999907,373.9718009999997,3,1.182085399999778,0.30315039999914006,None,,,,,,,,,,,,,,,,,,,,2405,1,2025-06-18_19h52.42.236,sm,2024.2.4,59.96584345508702,2025-06-18 19h52.52.563907 +0200,
34,0,34,,,,,,space,121.72490990000006,None,None,3,1.071059800000512,0.2858157000009669,None,0,0,0,0,,,,,0,0,0,0,,,,,34,0,34,0,373.98719849999907,,,,,,,,,,,,,,,,,,,,,,,,,,,,,,,,,,,,,,,,,,,,,,,,,,,,,,Sumpf,2.9534,373.97230059999856,373.97289709999677,373.9730036999972,373.98719849999907,376.9536593999983,376.93820649999907,376.9423508,376.9536593999983,376.9536593999983,376.9536593999983,376.9536593999983,378.9540699999998,378.9540699999998,378.9540699999998,378.9540699999998,378.9381781999982,3,1.071059800000512,0.2858157000009669,None,,,,,,,,,,,,,,,,,,,,2405,1,2025-06-18_19h52.42.236,sm,2024.2.4,59.96584345508702,2025-06-18 19h52.52.563907 +0200,
35,0,35,,,,,,space,121.72490990000006,None,None,3,0.7335614000003261,0.3262993999996979,None,0,0,0,0,,,,,0,0,0,0,,,,,35,0,35,0,378.9540699999998,,,,,,,,,,,,,,,,,,,,,,,,,,,,,,,,,,,,,,,,,,,,,,,,,,,,,,Nudeln,3.9624,378.9386878999976,378.93922329999987,378.9393403999966,378.9540699999998,382.920113199998,382.9042458999975,382.90793369999665,382.920113199998,382.920113199998,382.920113199998,382.920113199998,384.9199329999974,384.9199329999974,384.9199329999974,384.9199329999974,384.9043150999969,3,0.7335614000003261,0.3262993999996979,None,,,,,,,,,,,,,,,,,,,,2405,1,2025-06-18_19h52.42.236,sm,2024.2.4,59.96584345508702,2025-06-18 19h52.52.563907 +0200,
36,0,36,,,,,,space,121.72490990000006,None,None,2,1.3431888000013714,0.3740408000012394,None,0,0,0,0,,,,,0,0,0,0,,,,,36,0,36,0,384.9199329999974,,,,,,,,,,,,,,,,,,,,,,,,,,,,,,,,,,,,,,,,,,,,,,,,,,,,,,Ei,3.2625,384.9048464999978,384.9053423999976,384.90545049999855,384.9199329999974,388.18638259999716,388.17058149999866,388.1736682999981,388.18638259999716,388.18638259999716,388.18638259999716,388.18638259999716,390.1863239999984,390.1863239999984,390.1863239999984,390.1863239999984,390.17099499999676,2,1.3431888000013714,0.3740408000012394,None,,,,,,,,,,,,,,,,,,,,2405,1,2025-06-18_19h52.42.236,sm,2024.2.4,59.96584345508702,2025-06-18 19h52.52.563907 +0200,
37,0,37,,,,,,space,121.72490990000006,None,None,None,,,None,0,0,0,0,,,,,0,0,0,0,,,,,37,0,37,0,390.1863239999984,,,,,,,,,,,,,,,,,,,,,,,,,,,,,,,,,,,,,,,,,,,,,,,,,,,,,,Gelenk,3.1416,390.17150279999987,390.172022499999,390.17212649999783,390.1863239999984,393.33622719999767,393.32085339999685,393.3245558999988,393.33622719999767,393.33622719999767,393.33622719999767,393.33622719999767,395.33617779999986,395.33617779999986,395.33617779999986,395.33617779999986,395.3205863999974,None,,,None,,,,,,,,,,,,,,,,,,,,2405,1,2025-06-18_19h52.42.236,sm,2024.2.4,59.96584345508702,2025-06-18 19h52.52.563907 +0200,
38,0,38,,,,,,space,121.72490990000006,None,None,3,0.7736302000012074,0.3111511999995855,None,0,0,0,0,,,,,0,0,0,0,,,,,38,0,38,0,395.33617779999986,,,,,,,,,,,,,,,,,,,,,,,,,,,,,,,,,,,,,,,,,,,,,,,,,,,,,,Maske,3.8827,395.3210601999999,395.3218027999974,395.32191509999757,395.33617779999986,399.2190847999991,399.20352699999785,399.20723559999897,399.2190847999991,399.2190847999991,399.2190847999991,399.2190847999991,401.2189510999997,401.2189510999997,401.2189510999997,401.2189510999997,401.2036261999965,3,0.7736302000012074,0.3111511999995855,None,,,,,,,,,,,,,,,,,,,,2405,1,2025-06-18_19h52.42.236,sm,2024.2.4,59.96584345508702,2025-06-18 19h52.52.563907 +0200,
39,0,39,,,,,,space,121.72490990000006,None,None,3,1.251811500002077,0.33642179999878863,None,0,0,0,0,,,,,0,0,0,0,,,,,39,0,39,0,401.2189510999997,,,,,,,,,,,,,,,,,,,,,,,,,,,,,,,,,,,,,,,,,,,,,,,,,,,,,,Bart,2.1664,401.2041737999971,401.2046911999969,401.2047962999968,401.2189510999997,403.38540969999667,403.3697078999976,403.3727231999983,403.38540969999667,403.38540969999667,403.38540969999667,403.38540969999667,405.38565169999856,405.38565169999856,405.38565169999856,405.38565169999856,405.36999509999805,3,1.251811500002077,0.33642179999878863,None,,,,,,,,,,,,,,,,,,,,2405,1,2025-06-18_19h52.42.236,sm,2024.2.4,59.96584345508702,2025-06-18 19h52.52.563907 +0200,
40,0,40,,,,,,space,121.72490990000006,None,None,3,0.7725931999993918,0.3423913000005996,None,0,0,0,0,,,,,0,0,0,0,,,,,40,0,40,0,405.38565169999856,,,,,,,,,,,,,,,,,,,,,,,,,,,,,,,,,,,,,,,,,,,,,,,,,,,,,,Reise,2.5886,405.37049999999726,405.3710868999988,405.37119619999794,405.38565169999856,407.9853441999985,407.96964389999994,407.9738366999991,407.9853441999985,407.9853441999985,407.9853441999985,407.9853441999985,409.9852186999997,409.9852186999997,409.9852186999997,409.9852186999997,409.9697407999993,3,0.7725931999993918,0.3423913000005996,None,,,,,,,,,,,,,,,,,,,,2405,1,2025-06-18_19h52.42.236,sm,2024.2.4,59.96584345508702,2025-06-18 19h52.52.563907 +0200,
41,0,41,,,,,,space,121.72490990000006,None,None,3,1.1998863999979221,0.35612980000223615,None,0,0,0,0,,,,,0,0,0,0,,,,,41,0,41,0,409.9852186999997,,,,,,,,,,,,,,,,,,,,,,,,,,,,,,,,,,,,,,,,,,,,,,,,,,,,,,Riechen,2.7505,409.97022749999815,409.9707271999978,409.97083179999754,409.9852186999997,412.7349988999995,412.7193397999981,412.7236088999998,412.7349988999995,412.7349988999995,412.7349988999995,412.7349988999995,414.7354103999969,414.7354103999969,414.7354103999969,414.7354103999969,414.7193109999971,3,1.1998863999979221,0.35612980000223615,None,,,,,,,,,,,,,,,,,,,,2405,1,2025-06-18_19h52.42.236,sm,2024.2.4,59.96584345508702,2025-06-18 19h52.52.563907 +0200,
42,0,42,,,,,,space,121.72490990000006,None,None,3,0.8276121000017156,0.32512909999786643,None,0,0,0,0,,,,,0,0,0,0,,,,,42,0,42,0,414.7354103999969,,,,,,,,,,,,,,,,,,,,,,,,,,,,,,,,,,,,,,,,,,,,,,,,,,,,,,Rock,2.2305,414.7198256999982,414.72047589999784,414.7205824999983,414.7354103999969,416.9681535999989,416.9522758999992,416.9555443999998,416.9681535999989,416.9681535999989,416.9681535999989,416.9681535999989,418.9680877999999,418.9680877999999,418.9680877999999,418.9680877999999,418.9523550999984,3,0.8276121000017156,0.32512909999786643,None,,,,,,,,,,,,,,,,,,,,2405,1,2025-06-18_19h52.42.236,sm,2024.2.4,59.96584345508702,2025-06-18 19h52.52.563907 +0200,
43,0,43,,,,,,space,121.72490990000006,None,None,3,1.2572572999997647,0.3232459999999264,None,0,0,0,0,,,,,0,0,0,0,,,,,43,0,43,0,418.9680877999999,,,,,,,,,,,,,,,,,,,,,,,,,,,,,,,,,,,,,,,,,,,,,,,,,,,,,,Kino,2.1855,418.9528665999969,418.95338459999766,418.95349019999776,418.9680877999999,421.1675866999976,421.1519148999978,421.1550528999978,421.1675866999976,421.1675866999976,421.1675866999976,421.1675866999976,423.16777699999875,423.16777699999875,423.16777699999875,423.16777699999875,423.1524568999994,3,1.2572572999997647,0.3232459999999264,None,,,,,,,,,,,,,,,,,,,,2405,1,2025-06-18_19h52.42.236,sm,2024.2.4,59.96584345508702,2025-06-18 19h52.52.563907 +0200,
44,0,44,,,,,,space,121.72490990000006,None,None,2,0.6148500999988755,0.2662374000028649,None,0,0,0,0,,,,,0,0,0,0,,,,,44,0,44,0,423.16777699999875,,,,,,,,,,,,,,,,,,,,,,,,,,,,,,,,,,,,,,,,,,,,,,,,,,,,,,Vogel,2.2605,423.1529860999981,423.15367479999986,423.1537879999996,423.16777699999875,425.43440649999684,425.41885249999905,425.4230779999998,425.43440649999684,425.43440649999684,425.43440649999684,425.43440649999684,427.43466719999924,427.43466719999924,427.43466719999924,427.43466719999924,427.4187897999982,2,0.6148500999988755,0.2662374000028649,None,,,,,,,,,,,,,,,,,,,,2405,1,2025-06-18_19h52.42.236,sm,2024.2.4,59.96584345508702,2025-06-18 19h52.52.563907 +0200,
45,0,45,,,,,,space,121.72490990000006,None,None,3,0.6095041000007768,0.2922183999980916,None,0,0,0,0,,,,,0,0,0,0,,,,,45,0,45,0,427.43466719999924,,,,,,,,,,,,,,,,,,,,,,,,,,,,,,,,,,,,,,,,,,,,,,,,,,,,,,Raum,2.1269,427.4192910999991,427.41981589999705,427.4199204999968,427.43466719999924,429.56737919999796,429.55193359999976,429.55574949999937,429.56737919999796,429.56737919999796,429.56737919999796,429.56737919999796,431.5673429999988,431.5673429999988,431.5673429999988,431.5673429999988,431.55170969999745,3,0.6095041000007768,0.2922183999980916,None,,,,,,,,,,,,,,,,,,,,2405,1,2025-06-18_19h52.42.236,sm,2024.2.4,59.96584345508702,2025-06-18 19h52.52.563907 +0200,
46,0,46,,,,,,space,121.72490990000006,None,None,3,1.1382180000000517,0.2758432000009634,None,0,0,0,0,,,,,0,0,0,0,,,,,46,0,46,0,431.5673429999988,,,,,,,,,,,,,,,,,,,,,,,,,,,,,,,,,,,,,,,,,,,,,,,,,,,,,,Schloss,3.2642,431.5522162999987,431.5528001999992,431.55290590000004,431.5673429999988,434.8336754999982,434.8179868999978,434.82164889999694,434.8336754999982,434.8336754999982,434.8336754999982,434.8336754999982,436.8335878999969,436.8335878999969,436.8335878999969,436.8335878999969,436.8183019999997,3,1.1382180000000517,0.2758432000009634,None,,,,,,,,,,,,,,,,,,,,2405,1,2025-06-18_19h52.42.236,sm,2024.2.4,59.96584345508702,2025-06-18 19h52.52.563907 +0200,
47,0,47,,,,,,space,121.72490990000006,None,None,3,0.8423399999992398,0.2783627000026172,None,0,0,0,0,,,,,0,0,0,0,,,,,47,0,47,0,436.8335878999969,,,,,,,,,,,,,,,,,,,,,,,,,,,,,,,,,,,,,,,,,,,,,,,,,,,,,,Zeitung,4.3608,436.8188169999994,436.8193392999965,436.81944269999804,436.8335878999969,441.20010289999846,441.18461129999923,441.1927908999969,441.20010289999846,441.20010289999846,441.20010289999846,441.20010289999846,443.20032379999975,443.20032379999975,443.20032379999975,443.20032379999975,443.1844371999978,3,0.8423399999992398,0.2783627000026172,None,,,,,,,,,,,,,,,,,,,,2405,1,2025-06-18_19h52.42.236,sm,2024.2.4,59.96584345508702,2025-06-18 19h52.52.563907 +0200,
48,0,48,,,,,,space,121.72490990000006,None,None,3,0.71321750000061,0.3019581000007747,None,0,0,0,0,,,,,0,0,0,0,,,,,48,0,48,0,443.20032379999975,,,,,,,,,,,,,,,,,,,,,,,,,,,,,,,,,,,,,,,,,,,,,,,,,,,,,,Hügel,2.1641,443.18494839999767,443.18544429999747,443.1855493999974,443.20032379999975,445.3665930999996,445.3508460999983,445.3549009999988,445.3665930999996,445.3665930999996,445.3665930999996,445.3665930999996,447.36646779999865,447.36646779999865,447.36646779999865,447.36646779999865,447.35090579999815,3,0.71321750000061,0.3019581000007747,None,,,,,,,,,,,,,,,,,,,,2405,1,2025-06-18_19h52.42.236,sm,2024.2.4,59.96584345508702,2025-06-18 19h52.52.563907 +0200,
49,0,49,,,,,,space,121.72490990000006,None,None,3,0.7107891000014206,0.2889175999989675,None,0,0,0,0,,,,,0,0,0,0,,,,,49,0,49,0,447.36646779999865,,,,,,,,,,,,,,,,,,,,,,,,,,,,,,,,,,,,,,,,,,,,,,,,,,,,,,Schreibtisch,2.2966,447.3514099999993,447.35193849999996,447.35204229999727,447.36646779999865,449.6661959999983,449.65061429999696,449.6548458999969,449.6661959999983,449.6661959999983,449.6661959999983,449.6661959999983,451.66626709999764,451.66626709999764,451.66626709999764,451.66626709999764,451.6507012999973,3,0.7107891000014206,0.2889175999989675,None,,,,,,,,,,,,,,,,,,,,2405,1,2025-06-18_19h52.42.236,sm,2024.2.4,59.96584345508702,2025-06-18 19h52.52.563907 +0200,
50,0,50,,,,,,space,121.72490990000006,None,None,2,0.7576115000010759,0.30218059999970137,None,0,0,0,0,,,,,0,0,0,0,,,,,50,0,50,0,451.66626709999764,,,,,,,,,,,,,,,,,,,,,,,,,,,,,,,,,,,,,,,,,,,,,,,,,,,,,,Schwester,3.8976,451.6512025999982,451.6517924999971,451.65189859999737,451.66626709999764,455.56619219999993,455.5503033999994,455.55464669999856,455.56619219999993,455.56619219999993,455.56619219999993,455.56619219999993,457.5659175999972,457.5659175999972,457.5659175999972,457.5659175999972,457.5502671999966,2,0.7576115000010759,0.30218059999970137,None,,,,,,,,,,,,,,,,,,,,2405,1,2025-06-18_19h52.42.236,sm,2024.2.4,59.96584345508702,2025-06-18 19h52.52.563907 +0200,
51,0,51,,,,,,space,121.72490990000006,None,None,3,1.1417441000012332,0.2702861999969173,None,0,0,0,0,,,,,0,0,0,0,,,,,51,0,51,0,457.5659175999972,,,,,,,,,,,,,,,,,,,,,,,,,,,,,,,,,,,,,,,,,,,,,,,,,,,,,,Gespräch,5.463,457.550775599997,457.55127639999773,457.5513833999976,457.5659175999972,463.0321798999976,463.0166057999995,463.0207774999981,463.0321798999976,463.0321798999976,463.0321798999976,463.0321798999976,465.0322032999975,465.0322032999975,465.0322032999975,465.0322032999975,465.01664339999843,3,1.1417441000012332,0.2702861999969173,None,,,,,,,,,,,,,,,,,,,,2405,1,2025-06-18_19h52.42.236,sm,2024.2.4,59.96584345508702,2025-06-18 19h52.52.563907 +0200,
52,0,52,,,,,,space,121.72490990000006,None,None,3,0.8155594000018027,0.28905739999754587,None,0,0,0,0,,,,,0,0,0,0,,,,,52,0,52,0,465.0322032999975,,,,,,,,,,,,,,,,,,,,,,,,,,,,,,,,,,,,,,,,,,,,,,,,,,,,,,Bücher,4.1765,465.0171432999996,465.01764809999804,465.01775479999924,465.0322032999975,469.215100399997,469.1996526999974,469.20376849999957,469.215100399997,469.215100399997,469.215100399997,469.215100399997,471.2150933999983,471.2150933999983,471.2150933999983,471.2150933999983,471.1995689999967,3,0.8155594000018027,0.28905739999754587,None,,,,,,,,,,,,,,,,,,,,2405,1,2025-06-18_19h52.42.236,sm,2024.2.4,59.96584345508702,2025-06-18 19h52.52.563907 +0200,
53,0,53,,,,,,space,121.72490990000006,None,None,3,0.8861600999989605,0.24564939999982016,None,0,0,0,0,,,,,0,0,0,0,,,,,53,0,53,0,471.2150933999983,,,,,,,,,,,,,,,,,,,,,,,,,,,,,,,,,,,,,,,,,,,,,,,,,,,,,,Kerzen,2.2365,471.2000855999977,471.20059519999995,471.2007014999981,471.2150933999983,473.46489049999946,473.44928719999734,473.45383149999907,473.46489049999946,473.46489049999946,473.46489049999946,473.46489049999946,475.46498879999854,475.46498879999854,475.46498879999854,475.46498879999854,475.4495019999995,3,0.8861600999989605,0.24564939999982016,None,,,,,,,,,,,,,,,,,,,,2405,1,2025-06-18_19h52.42.236,sm,2024.2.4,59.96584345508702,2025-06-18 19h52.52.563907 +0200,
54,0,54,,,,,,space,121.72490990000006,None,None,3,1.0182886000002327,0.28042909999931,None,0,0,0,0,,,,,0,0,0,0,,,,,54,0,54,0,475.46498879999854,,,,,,,,,,,,,,,,,,,,,,,,,,,,,,,,,,,,,,,,,,,,,,,,,,,,,,Wissen,2.2158,475.4500115999981,475.4505336999973,475.4506420999969,475.46498879999854,477.68121639999663,477.66608839999753,477.67028319999736,477.68121639999663,477.68121639999663,477.68121639999663,477.68121639999663,479.68153509999684,479.68153509999684,479.68153509999684,479.68153509999684,479.66581959999894,3,1.0182886000002327,0.28042909999931,None,,,,,,,,,,,,,,,,,,,,2405,1,2025-06-18_19h52.42.236,sm,2024.2.4,59.96584345508702,2025-06-18 19h52.52.563907 +0200,
55,0,55,,,,,,space,121.72490990000006,None,None,3,0.6617636000009952,0.2792312000019592,None,0,0,0,0,,,,,0,0,0,0,,,,,55,0,55,0,479.68153509999684,,,,,,,,,,,,,,,,,,,,,,,,,,,,,,,,,,,,,,,,,,,,,,,,,,,,,,Farbe,2.3015,479.666326999999,479.66685479999796,479.66696089999823,479.68153509999684,481.99821169999996,481.98189339999954,481.9852706999991,481.99821169999996,481.99821169999996,481.99821169999996,481.99821169999996,483.9977157999965,483.9977157999965,483.9977157999965,483.9977157999965,483.982134599999,3,0.6617636000009952,0.2792312000019592,None,,,,,,,,,,,,,,,,,,,,2405,1,2025-06-18_19h52.42.236,sm,2024.2.4,59.96584345508702,2025-06-18 19h52.52.563907 +0200,
56,0,56,,,,,,space,121.72490990000006,None,None,3,0.5696009000021149,0.26189220000014757,None,0,0,0,0,,,,,0,0,0,0,,,,,56,0,56,0,483.9977157999965,,,,,,,,,,,,,,,,,,,,,,,,,,,,,,,,,,,,,,,,,,,,,,,,,,,,,,Fernseher,2.2375,483.9826357999991,483.98328389999733,483.98338819999844,483.9977157999965,486.24810499999876,486.23179489999893,486.23545549999835,486.24810499999876,486.24810499999876,486.24810499999876,486.24810499999876,488.2476628999975,488.2476628999975,488.2476628999975,488.2476628999975,488.23222349999924,3,0.5696009000021149,0.26189220000014757,None,,,,,,,,,,,,,,,,,,,,2405,1,2025-06-18_19h52.42.236,sm,2024.2.4,59.96584345508702,2025-06-18 19h52.52.563907 +0200,
57,0,57,,,,,,space,121.72490990000006,None,None,3,0.809739799999079,0.24702539999998407,None,0,0,0,0,,,,,0,0,0,0,,,,,57,0,57,0,488.2476628999975,,,,,,,,,,,,,,,,,,,,,,,,,,,,,,,,,,,,,,,,,,,,,,,,,,,,,,Schuh,3.6463,488.232737899998,488.23330019999776,488.2334116999991,488.2476628999975,491.89722229999825,491.8815766999978,491.88551259999804,491.89722229999825,491.89722229999825,491.89722229999825,491.89722229999825,493.89734119999775,493.89734119999775,493.89734119999775,493.89734119999775,493.881633099998,3,0.809739799999079,0.24702539999998407,None,,,,,,,,,,,,,,,,,,,,2405,1,2025-06-18_19h52.42.236,sm,2024.2.4,59.96584345508702,2025-06-18 19h52.52.563907 +0200,
58,0,58,,,,,,space,121.72490990000006,None,None,3,1.2045176999999967,0.22272789999988163,None,0,0,0,0,,,,,0,0,0,0,,,,,58,0,58,0,493.89734119999775,,,,,,,,,,,,,,,,,,,,,,,,,,,,,,,,,,,,,,,,,,,,,,,,,,,,,,Klippe,2.4566,493.8821416999999,493.8826537999994,493.8827612999994,493.89734119999775,496.36369699999705,496.34819629999765,496.35220189999745,496.36369699999705,496.36369699999705,496.36369699999705,496.36369699999705,498.36378059999697,498.36378059999697,498.36378059999697,498.36378059999697,498.3480748999973,3,1.2045176999999967,0.22272789999988163,None,,,,,,,,,,,,,,,,,,,,2405,1,2025-06-18_19h52.42.236,sm,2024.2.4,59.96584345508702,2025-06-18 19h52.52.563907 +0200,
59,0,59,,,,,,space,121.72490990000006,None,None,3,0.928560500000458,0.21480960000189953,None,0,0,0,0,,,,,0,0,0,0,,,,,59,0,59,0,498.36378059999697,,,,,,,,,,,,,,,,,,,,,,,,,,,,,,,,,,,,,,,,,,,,,,,,,,,,,,Zirkus,2.0214,498.3485804999982,498.34911009999996,498.34921269999904,498.36378059999697,500.396514,500.38100399999894,500.38743639999666,500.396514,500.396514,500.396514,500.396514,502.3966384999985,502.3966384999985,502.3966384999985,502.3966384999985,502.3815068999975,3,0.928560500000458,0.21480960000189953,None,,,,,,,,,,,,,,,,,,,,2405,1,2025-06-18_19h52.42.236,sm,2024.2.4,59.96584345508702,2025-06-18 19h52.52.563907 +0200,
60,0,60,,,,,,space,121.72490990000006,None,None,2,0.8302981999986514,0.248738800000865,None,0,0,0,0,,,,,0,0,0,0,,,,,60,0,60,0,502.3966384999985,,,,,,,,,,,,,,,,,,,,,,,,,,,,,,,,,,,,,,,,,,,,,,,,,,,,,,Publikum,2.2575,502.3820093999966,502.3825214999997,502.3826302999987,502.3966384999985,504.6628603999998,504.6471883999984,504.65081349999673,504.6628603999998,504.6628603999998,504.6628603999998,504.6628603999998,506.6630903999976,506.6630903999976,506.6630903999976,506.6630903999976,506.6481485999975,2,0.8302981999986514,0.248738800000865,None,,,,,,,,,,,,,,,,,,,,2405,1,2025-06-18_19h52.42.236,sm,2024.2.4,59.96584345508702,2025-06-18 19h52.52.563907 +0200,
61,0,61,,,,,,space,121.72490990000006,None,None,3,1.0651020000004792,0.2786298999999417,None,0,0,0,0,,,,,0,0,0,0,,,,,61,0,61,0,506.6630903999976,,,,,,,,,,,,,,,,,,,,,,,,,,,,,,,,,,,,,,,,,,,,,,,,,,,,,,Lokomotive,2.7938,506.6486515999968,506.64919459999874,506.64929819999816,506.6630903999976,509.4630350999978,509.4472453999988,509.4521442999976,509.4630350999978,509.4630350999978,509.4630350999978,509.4630350999978,511.4629726999992,511.4629726999992,511.4629726999992,511.4629726999992,511.44733129999804,3,1.0651020000004792,0.2786298999999417,None,,,,,,,,,,,,,,,,,,,,2405,1,2025-06-18_19h52.42.236,sm,2024.2.4,59.96584345508702,2025-06-18 19h52.52.563907 +0200,
62,0,62,,,,,,space,121.72490990000006,None,None,3,0.9193330999987666,0.24730579999959446,None,0,0,0,0,,,,,0,0,0,0,,,,,62,0,62,0,511.4629726999992,,,,,,,,,,,,,,,,,,,,,,,,,,,,,,,,,,,,,,,,,,,,,,,,,,,,,,Küche,2.3284,511.4478343999981,511.4484881999997,511.44859240000005,511.4629726999992,513.7959811000001,513.780370299999,513.7841115999981,513.7959811000001,513.7959811000001,513.7959811000001,513.7959811000001,515.7958984999968,515.7958984999968,515.7958984999968,515.7958984999968,515.7803436999966,3,0.9193330999987666,0.24730579999959446,None,,,,,,,,,,,,,,,,,,,,2405,1,2025-06-18_19h52.42.236,sm,2024.2.4,59.96584345508702,2025-06-18 19h52.52.563907 +0200,
63,0,63,,,,,,space,121.72490990000006,None,None,3,1.1663673000002746,0.2601651999975729,None,0,0,0,0,,,,,0,0,0,0,,,,,63,0,63,0,515.7958984999968,,,,,,,,,,,,,,,,,,,,,,,,,,,,,,,,,,,,,,,,,,,,,,,,,,,,,,Beine,2.0575,515.7808569999979,515.7813722999999,515.7814764999966,515.7958984999968,517.8623333999967,517.846808899998,517.8506019999986,517.8623333999967,517.8623333999967,517.8623333999967,517.8623333999967,519.8627996999967,519.8627996999967,519.8627996999967,519.8627996999967,519.846688499998,3,1.1663673000002746,0.2601651999975729,None,,,,,,,,,,,,,,,,,,,,2405,1,2025-06-18_19h52.42.236,sm,2024.2.4,59.96584345508702,2025-06-18 19h52.52.563907 +0200,
64,0,64,,,,,,space,121.72490990000006,None,None,3,0.8385197999996308,0.29521739999836427,None,0,0,0,0,,,,,0,0,0,0,,,,,64,0,64,0,519.8627996999967,,,,,,,,,,,,,,,,,,,,,,,,,,,,,,,,,,,,,,,,,,,,,,,,,,,,,,Brief,3.8772,519.8471969999991,519.847702199997,519.8478090999997,519.8627996999967,523.7455131999996,523.7301879999977,523.7343406999971,523.7455131999996,523.7455131999996,523.7455131999996,523.7455131999996,525.7454195999999,525.7454195999999,525.7454195999999,525.7454195999999,525.730010299998,3,0.8385197999996308,0.29521739999836427,None,,,,,,,,,,,,,,,,,,,,2405,1,2025-06-18_19h52.42.236,sm,2024.2.4,59.96584345508702,2025-06-18 19h52.52.563907 +0200,
65,0,65,,,,,,space,121.72490990000006,None,None,3,0.8955047999988892,0.24320749999969848,None,0,0,0,0,,,,,0,0,0,0,,,,,65,0,65,0,525.7454195999999,,,,,,,,,,,,,,,,,,,,,,,,,,,,,,,,,,,,,,,,,,,,,,,,,,,,,,Asche,2.0929,525.7305166999977,525.7310283999977,525.7311351999997,525.7454195999999,527.8451483999997,527.829543099997,527.8339812999984,527.8451483999997,527.8451483999997,527.8451483999997,527.8451483999997,529.8453179999997,529.8453179999997,529.8453179999997,529.8453179999997,529.8294408999973,3,0.8955047999988892,0.24320749999969848,None,,,,,,,,,,,,,,,,,,,,2405,1,2025-06-18_19h52.42.236,sm,2024.2.4,59.96584345508702,2025-06-18 19h52.52.563907 +0200,
66,0,66,,,,,,space,121.72490990000006,None,None,3,1.1240240000006452,0.2858029999988503,None,0,0,0,0,,,,,0,0,0,0,,,,,66,0,66,0,529.8453179999997,,,,,,,,,,,,,,,,,,,,,,,,,,,,,,,,,,,,,,,,,,,,,,,,,,,,,,Duft,3.2242,529.8299264999987,529.8304247999986,529.8305249999976,529.8453179999997,533.0781451999974,533.0622721999971,533.0652983999971,533.0781451999974,533.0781451999974,533.0781451999974,533.0781451999974,535.0782099999997,535.0782099999997,535.0782099999997,535.0782099999997,535.0626059999995,3,1.1240240000006452,0.2858029999988503,None,,,,,,,,,,,,,,,,,,,,2405,1,2025-06-18_19h52.42.236,sm,2024.2.4,59.96584345508702,2025-06-18 19h52.52.563907 +0200,
67,0,67,,,,,,space,121.72490990000006,None,None,3,0.8324743999983184,0.30119420000119135,None,0,0,0,0,,,,,0,0,0,0,,,,,67,0,67,0,535.0782099999997,,,,,,,,,,,,,,,,,,,,,,,,,,,,,,,,,,,,,,,,,,,,,,,,,,,,,,Frieden,3.4104,535.0631126999979,535.0636315999982,535.0637387999996,535.0782099999997,538.4945656999989,538.4790663999993,538.4827855999974,538.4945656999989,538.4945656999989,538.4945656999989,538.4945656999989,540.4946198999969,540.4946198999969,540.4946198999969,540.4946198999969,540.4790149,3,0.8324743999983184,0.30119420000119135,None,,,,,,,,,,,,,,,,,,,,2405,1,2025-06-18_19h52.42.236,sm,2024.2.4,59.96584345508702,2025-06-18 19h52.52.563907 +0200,
68,0,68,,,,,,space,121.72490990000006,None,None,3,1.016781099999207,0.2872100999993563,None,0,0,0,0,,,,,0,0,0,0,,,,,68,0,68,0,540.4946198999969,,,,,,,,,,,,,,,,,,,,,,,,,,,,,,,,,,,,,,,,,,,,,,,,,,,,,,Datei,2.324,540.4795332999965,540.4800559999967,540.4801608999987,540.4946198999969,542.8284356999975,542.8120226999999,542.8161777999994,542.8284356999975,542.8284356999975,542.8284356999975,542.8284356999975,544.828043999998,544.828043999998,544.828043999998,544.828043999998,544.8120237999974,3,1.016781099999207,0.2872100999993563,None,,,,,,,,,,,,,,,,,,,,2405,1,2025-06-18_19h52.42.236,sm,2024.2.4,59.96584345508702,2025-06-18 19h52.52.563907 +0200,
69,0,69,,,,,,space,121.72490990000006,None,None,2,0.6506091999981436,0.26218969999899855,None,0,0,0,0,,,,,0,0,0,0,,,,,69,0,69,0,544.828043999998,,,,,,,,,,,,,,,,,,,,,,,,,,,,,,,,,,,,,,,,,,,,,,,,,,,,,,Hand,4.1889,544.8125330999974,544.8131919999978,544.8132991999992,544.828043999998,549.0270573999987,549.0116553999978,549.014897699999,549.0270573999987,549.0270573999987,549.0270573999987,549.0270573999987,551.0273444999984,551.0273444999984,551.0273444999984,551.0273444999984,551.0117032999988,2,0.6506091999981436,0.26218969999899855,None,,,,,,,,,,,,,,,,,,,,2405,1,2025-06-18_19h52.42.236,sm,2024.2.4,59.96584345508702,2025-06-18 19h52.52.563907 +0200,
70,0,70,,,,,,space,121.72490990000006,None,None,3,0.6596809000002395,0.29764049999721465,None,0,0,0,0,,,,,0,0,0,0,,,,,70,0,70,0,551.0273444999984,,,,,,,,,,,,,,,,,,,,,,,,,,,,,,,,,,,,,,,,,,,,,,,,,,,,,,Juwel,2.7186,551.0122086999982,551.0129548999976,551.0130600999983,551.0273444999984,553.7602341999991,553.7443737999965,553.7493951999968,553.7602341999991,553.7602341999991,553.7602341999991,553.7602341999991,555.7605876999987,555.7605876999987,555.7605876999987,555.7605876999987,555.7446586999977,3,0.6596809000002395,0.29764049999721465,None,,,,,,,,,,,,,,,,,,,,2405,1,2025-06-18_19h52.42.236,sm,2024.2.4,59.96584345508702,2025-06-18 19h52.52.563907 +0200,
71,0,71,,,,,,space,121.72490990000006,None,None,3,0.8139689999989059,0.3125904000007722,None,0,0,0,0,,,,,0,0,0,0,,,,,71,0,71,0,555.7605876999987,,,,,,,,,,,,,,,,,,,,,,,,,,,,,,,,,,,,,,,,,,,,,,,,,,,,,,Kappe,3.6503,555.7451498999981,555.7457099999992,555.7458176,555.7605876999987,559.4101795999995,559.3944841999983,559.3990465999996,559.4101795999995,559.4101795999995,559.4101795999995,559.4101795999995,561.4102525999988,561.4102525999988,561.4102525999988,561.4102525999988,561.3945366999978,3,0.8139689999989059,0.3125904000007722,None,,,,,,,,,,,,,,,,,,,,2405,1,2025-06-18_19h52.42.236,sm,2024.2.4,59.96584345508702,2025-06-18 19h52.52.563907 +0200,
72,0,72,,,,,,space,121.72490990000006,None,None,3,1.5058606000020518,0.30923450000045705,None,0,0,0,0,,,,,0,0,0,0,,,,,72,0,72,0,561.4102525999988,,,,,,,,,,,,,,,,,,,,,,,,,,,,,,,,,,,,,,,,,,,,,,,,,,,,,,Zimmer,2.4102,561.3950432999991,561.3957009999976,561.395808199999,561.4102525999988,563.826601599998,563.8107786,563.8148453999966,563.826601599998,563.826601599998,563.826601599998,563.826601599998,565.8264506999985,565.8264506999985,565.8264506999985,565.8264506999985,565.8109089999998,3,1.5058606000020518,0.30923450000045705,None,,,,,,,,,,,,,,,,,,,,2405,1,2025-06-18_19h52.42.236,sm,2024.2.4,59.96584345508702,2025-06-18 19h52.52.563907 +0200,
73,0,73,,,,,,space,121.72490990000006,None,None,3,0.5782328000022972,0.2873945999999705,None,0,0,0,0,,,,,0,0,0,0,,,,,73,0,73,0,565.8264506999985,,,,,,,,,,,,,,,,,,,,,,,,,,,,,,,,,,,,,,,,,,,,,,,,,,,,,,Beutel,2.9809,565.8114112999974,565.8119574999982,565.8120643999973,565.8264506999985,568.8096204999965,568.7942328999998,568.7981322999985,568.8096204999965,568.8096204999965,568.8096204999965,568.8096204999965,570.8095685999979,570.8095685999979,570.8095685999979,570.8095685999979,570.794135199998,3,0.5782328000022972,0.2873945999999705,None,,,,,,,,,,,,,,,,,,,,2405,1,2025-06-18_19h52.42.236,sm,2024.2.4,59.96584345508702,2025-06-18 19h52.52.563907 +0200,
74,0,74,,,,,,space,121.72490990000006,None,None,3,1.0425968000017747,0.2851321999987704,None,0,0,0,0,,,,,0,0,0,0,,,,,74,0,74,0,570.8095685999979,,,,,,,,,,,,,,,,,,,,,,,,,,,,,,,,,,,,,,,,,,,,,,,,,,,,,,Trennung,2.1082,570.7946852999994,570.7951913999968,570.7952983999967,570.8095685999979,572.9260318999986,572.9103607999969,572.9145312,572.9260318999986,572.9260318999986,572.9260318999986,572.9260318999986,574.925977699997,574.925977699997,574.925977699997,574.925977699997,574.910388799999,3,1.0425968000017747,0.2851321999987704,None,,,,,,,,,,,,,,,,,,,,2405,1,2025-06-18_19h52.42.236,sm,2024.2.4,59.96584345508702,2025-06-18 19h52.52.563907 +0200,
75,0,75,,,,,,space,121.72490990000006,None,None,3,1.0247410999982094,0.26434210000297753,None,0,0,0,0,,,,,0,0,0,0,,,,,75,0,75,0,574.925977699997,,,,,,,,,,,,,,,,,,,,,,,,,,,,,,,,,,,,,,,,,,,,,,,,,,,,,,Geschirr,3.658,574.9108897999977,574.9116478999968,574.9117504999995,574.925977699997,578.592214799999,578.5763853999997,578.580054099999,578.592214799999,578.592214799999,578.592214799999,578.592214799999,580.5927724999965,580.5927724999965,580.5927724999965,580.5927724999965,580.5771515999986,3,1.0247410999982094,0.26434210000297753,None,,,,,,,,,,,,,,,,,,,,2405,1,2025-06-18_19h52.42.236,sm,2024.2.4,59.96584345508702,2025-06-18 19h52.52.563907 +0200,
76,0,76,,,,,,space,121.72490990000006,None,None,3,1.094890000000305,0.24536520000037854,None,0,0,0,0,,,,,0,0,0,0,,,,,76,0,76,0,580.5927724999965,,,,,,,,,,,,,,,,,,,,,,,,,,,,,,,,,,,,,,,,,,,,,,,,,,,,,,Geschichte,2.0137,580.5776806999966,580.5782262999965,580.5783322999996,580.5927724999965,582.6085662999976,582.5929692999998,582.5969486999966,582.6085662999976,582.6085662999976,582.6085662999976,582.6085662999976,584.6086332999985,584.6086332999985,584.6086332999985,584.6086332999985,584.5931242999977,3,1.094890000000305,0.24536520000037854,None,,,,,,,,,,,,,,,,,,,,2405,1,2025-06-18_19h52.42.236,sm,2024.2.4,59.96584345508702,2025-06-18 19h52.52.563907 +0200,
77,0,77,,,,,,space,121.72490990000006,None,None,3,1.4899936000001617,0.36405110000123386,None,0,0,0,0,,,,,0,0,0,0,,,,,77,0,77,0,584.6086332999985,,,,,,,,,,,,,,,,,,,,,,,,,,,,,,,,,,,,,,,,,,,,,,,,,,,,,,Erde,3.3712,584.5936384999986,584.5941518,584.5942565999976,584.6086332999985,587.9920089999978,587.9768199999999,587.9813966999973,587.9920089999978,587.9920089999978,587.9920089999978,587.9920089999978,589.9918208999989,589.9918208999989,589.9918208999989,589.9918208999989,589.9761471999991,3,1.4899936000001617,0.36405110000123386,None,,,,,,,,,,,,,,,,,,,,2405,1,2025-06-18_19h52.42.236,sm,2024.2.4,59.96584345508702,2025-06-18 19h52.52.563907 +0200,
78,0,78,,,,,,space,121.72490990000006,None,None,3,1.1001040000010107,0.3794004999981553,None,0,0,0,0,,,,,0,0,0,0,,,,,78,0,78,0,589.9918208999989,,,,,,,,,,,,,,,,,,,,,,,,,,,,,,,,,,,,,,,,,,,,,,,,,,,,,,Wind,2.5218,589.9766534999981,589.9773026999974,589.9774062999968,589.9918208999989,592.5247901999974,592.509253799999,592.5121153999971,592.5247901999974,592.5247901999974,592.5247901999974,592.5247901999974,594.5249393999984,594.5249393999984,594.5249393999984,594.5249393999984,594.5094018999989,3,1.1001040000010107,0.3794004999981553,None,,,,,,,,,,,,,,,,,,,,2405,1,2025-06-18_19h52.42.236,sm,2024.2.4,59.96584345508702,2025-06-18 19h52.52.563907 +0200,
79,0,79,,,,,,space,121.72490990000006,None,None,3,1.3074029999988852,0.32820429999992484,None,0,0,0,0,,,,,0,0,0,0,,,,,79,0,79,0,594.5249393999984,,,,,,,,,,,,,,,,,,,,,,,,,,,,,,,,,,,,,,,,,,,,,,,,,,,,,,Feld,4.9116,594.5099045999996,594.5105502999977,594.510655799997,594.5249393999984,599.4412034999987,599.4254489999985,599.4289421999965,599.4412034999987,599.4412034999987,599.4412034999987,599.4412034999987,601.452876899999,601.452876899999,601.452876899999,601.452876899999,601.4258125999986,3,1.3074029999988852,0.32820429999992484,None,,,,,,,,,,,,,,,,,,,,2405,1,2025-06-18_19h52.42.236,sm,2024.2.4,59.96584345508702,2025-06-18 19h52.52.563907 +0200,
0,0,0,,,,,2.1664,space,3.461448300000484,None,None,3,1.0438372999997227,0.22397029999774531,None,0,0,0,0,,,,,1,0,1,0,0,79,79,6,0,0,0,0,649.7716774999972,,,,,,,,,,,,,,,,,,,,,,,,,,,,,,,,621.0377947999987,621.0381034999991,621.0443344999985,621.051085799998,621.051085799998,624.5248653999988,space,3.461448300000484,None,624.5250239999987,624.5400433999966,624.5400433999966,637.7405851999974,None,637.7478424999972,637.7724197999996,637.755980766666,638.9659901999985,647.7552379666633,648.766071799997,,649.7556586999999,Salz,2.1664,649.7572181999967,649.7579216999984,649.7580384999965,649.7716774999972,651.9382609999993,651.9227072999965,651.9263412999971,651.9382609999993,651.9382609999993,651.9382609999993,651.9382609999993,653.9384185999988,653.9384185999988,653.9384185999988,653.9384185999988,653.9229579999992,3,1.0438372999997227,0.22397029999774531,None,613.4407447999984,613.4408180999999,None,613.4480599999988,613.4575056999965,617.4569469999988,617.4569469999988,617.4569469999988,620.9918904999977,3,3.5220226000019466,None,,,,,,,,2405,1,2025-06-18_19h52.42.236,sm,2024.2.4,59.96584345508702,2025-06-18 19h52.52.563907 +0200,
1,0,1,,,,,,space,3.461448300000484,None,None,3,0.6260831999970833,0.27067770000212477,None,0,0,0,0,,,,,1,0,1,0,,,,,1,0,1,0,653.9384185999988,,,,,,,,,,,,,,,,,,,,,,,,,,,,,,,,,,,,,,,,,,,,,,,,,,,,,,Krone,3.8827,653.9234946999968,653.9242793999983,653.9243934999977,653.9384185999988,657.8213192999974,657.8056211999974,657.8095818999973,657.8213192999974,657.8213192999974,657.8213192999974,657.8213192999974,659.8211303999997,659.8211303999997,659.8211303999997,659.8211303999997,659.8058458999985,3,0.6260831999970833,0.27067770000212477,None,,,,,,,,,,,,,,,,,,,,2405,1,2025-06-18_19h52.42.236,sm,2024.2.4,59.96584345508702,2025-06-18 19h52.52.563907 +0200,
2,0,2,,,,,,space,3.461448300000484,None,None,3,0.7647147000025143,0.275920899999619,None,0,0,0,0,,,,,1,0,1,0,,,,,2,0,2,0,659.8211303999997,,,,,,,,,,,,,,,,,,,,,,,,,,,,,,,,,,,,,,,,,,,,,,,,,,,,,,Wahrheit,4.1889,659.8063605999996,659.8071004999983,659.8072057999998,659.8211303999997,664.0212001999971,664.0051681999976,664.009346699997,664.0212001999971,664.0212001999971,664.0212001999971,664.0212001999971,666.020868399999,666.020868399999,666.020868399999,666.020868399999,666.0057378999991,3,0.7647147000025143,0.275920899999619,None,,,,,,,,,,,,,,,,,,,,2405,1,2025-06-18_19h52.42.236,sm,2024.2.4,59.96584345508702,2025-06-18 19h52.52.563907 +0200,
3,0,3,,,,,,space,3.461448300000484,None,None,3,0.6560145000003104,0.23870929999975488,None,0,0,0,0,,,,,1,0,1,0,,,,,3,0,3,0,666.020868399999,,,,,,,,,,,,,,,,,,,,,,,,,,,,,,,,,,,,,,,,,,,,,,,,,,,,,,Bad,2.6125,666.006250399998,666.0067648999975,666.0068704999976,666.020868399999,668.6372444999979,668.6216503999967,668.6250521999973,668.6372444999979,668.6372444999979,668.6372444999979,668.6372444999979,670.6371942999976,670.6371942999976,670.6371942999976,670.6371942999976,670.6217238999998,3,0.6560145000003104,0.23870929999975488,None,,,,,,,,,,,,,,,,,,,,2405,1,2025-06-18_19h52.42.236,sm,2024.2.4,59.96584345508702,2025-06-18 19h52.52.563907 +0200,
4,0,4,,,,,,space,3.461448300000484,None,None,3,0.7996961999997438,0.25226370000018505,None,0,0,0,0,,,,,1,0,1,0,,,,,4,0,4,0,670.6371942999976,,,,,,,,,,,,,,,,,,,,,,,,,,,,,,,,,,,,,,,,,,,,,,,,,,,,,,Universität,2.0137,670.6222379999999,670.6227407999977,670.6228458999976,670.6371942999976,672.6536475999965,672.6386778999986,672.6461589999999,672.6536475999965,672.6536475999965,672.6536475999965,672.6536475999965,674.653806899998,674.653806899998,674.653806899998,674.653806899998,674.6383001999966,3,0.7996961999997438,0.25226370000018505,None,,,,,,,,,,,,,,,,,,,,2405,1,2025-06-18_19h52.42.236,sm,2024.2.4,59.96584345508702,2025-06-18 19h52.52.563907 +0200,
5,0,5,,,,,,space,3.461448300000484,None,None,3,0.6447020999985398,0.24829759999920498,None,0,0,0,0,,,,,1,0,1,0,,,,,5,0,5,0,674.653806899998,,,,,,,,,,,,,,,,,,,,,,,,,,,,,,,,,,,,,,,,,,,,,,,,,,,,,,Telefon,2.1574,674.6388133999972,674.6393386999989,674.6394432999987,674.653806899998,676.8201951999981,676.8046742999977,676.8087152999979,676.8201951999981,676.8201951999981,676.8201951999981,676.8201951999981,678.8201469999985,678.8201469999985,678.8201469999985,678.8201469999985,678.8045408999969,3,0.6447020999985398,0.24829759999920498,None,,,,,,,,,,,,,,,,,,,,2405,1,2025-06-18_19h52.42.236,sm,2024.2.4,59.96584345508702,2025-06-18 19h52.52.563907 +0200,
6,0,6,,,,,,space,3.461448300000484,None,None,3,0.666758999999729,0.22149699999863515,None,0,0,0,0,,,,,1,0,1,0,,,,,6,0,6,0,678.8201469999985,,,,,,,,,,,,,,,,,,,,,,,,,,,,,,,,,,,,,,,,,,,,,,,,,,,,,,Geheimnis,2.3015,678.8050497999975,678.8055530999991,678.8056574999973,678.8201469999985,681.1365461999994,681.1212371999973,681.1253711999998,681.1365461999994,681.1365461999994,681.1365461999994,681.1365461999994,683.1367593999967,683.1367593999967,683.1367593999967,683.1367593999967,683.1210416999966,3,0.666758999999729,0.22149699999863515,None,,,,,,,,,,,,,,,,,,,,2405,1,2025-06-18_19h52.42.236,sm,2024.2.4,59.96584345508702,2025-06-18 19h52.52.563907 +0200,
7,0,7,,,,,,space,3.461448300000484,None,None,3,0.7345921999985876,0.2862711000016134,None,0,0,0,0,,,,,1,0,1,0,,,,,7,0,7,0,683.1367593999967,,,,,,,,,,,,,,,,,,,,,,,,,,,,,,,,,,,,,,,,,,,,,,,,,,,,,,Brise,2.0917,683.1215516999982,683.1220684999971,683.1221733999992,683.1367593999967,685.2364397999991,685.2208339999997,685.2246371999972,685.2364397999991,685.2364397999991,685.2364397999991,685.2364397999991,687.2363467999967,687.2363467999967,687.2363467999967,687.2363467999967,687.220832199997,3,0.7345921999985876,0.2862711000016134,None,,,,,,,,,,,,,,,,,,,,2405,1,2025-06-18_19h52.42.236,sm,2024.2.4,59.96584345508702,2025-06-18 19h52.52.563907 +0200,
8,0,8,,,,,,space,3.461448300000484,None,None,3,0.749628900000971,0.26327909999963595,None,0,0,0,0,,,,,1,0,1,0,,,,,8,0,8,0,687.2363467999967,,,,,,,,,,,,,,,,,,,,,,,,,,,,,,,,,,,,,,,,,,,,,,,,,,,,,,Schule,2.0929,687.2213367999975,687.2218551999977,687.2219613999987,687.2363467999967,689.3367222999987,689.3207395999998,689.3249103999988,689.3367222999987,689.3367222999987,689.3367222999987,689.3367222999987,691.3361893999972,691.3361893999972,691.3361893999972,691.3361893999972,691.3201878999971,3,0.749628900000971,0.26327909999963595,None,,,,,,,,,,,,,,,,,,,,2405,1,2025-06-18_19h52.42.236,sm,2024.2.4,59.96584345508702,2025-06-18 19h52.52.563907 +0200,
9,0,9,,,,,,space,3.461448300000484,None,None,3,1.5155130999992252,0.18547770000077435,None,0,0,0,0,,,,,1,0,1,0,,,,,9,0,9,0,691.3361893999972,,,,,,,,,,,,,,,,,,,,,,,,,,,,,,,,,,,,,,,,,,,,,,,,,,,,,,Gesicht,2.9809,691.3206092999972,691.3210769999969,691.321178299997,691.3361893999972,694.3190807999999,694.3034214999971,694.3072742999975,694.3190807999999,694.3190807999999,694.3190807999999,694.3190807999999,696.319383099999,696.319383099999,696.319383099999,696.319383099999,696.3035382999988,3,1.5155130999992252,0.18547770000077435,None,,,,,,,,,,,,,,,,,,,,2405,1,2025-06-18_19h52.42.236,sm,2024.2.4,59.96584345508702,2025-06-18 19h52.52.563907 +0200,
10,0,10,,,,,,space,3.461448300000484,None,None,3,0.8363179000007221,0.25895130000208155,None,0,0,0,0,,,,,1,0,1,0,,,,,10,0,10,0,696.319383099999,,,,,,,,,,,,,,,,,,,,,,,,,,,,,,,,,,,,,,,,,,,,,,,,,,,,,,Hilfe,2.2305,696.3040450999979,696.3045453999985,696.3046521999968,696.319383099999,698.552346299999,698.5366187999971,698.5400184999999,698.552346299999,698.552346299999,698.552346299999,698.552346299999,700.5522858999975,700.5522858999975,700.5522858999975,700.5522858999975,700.5364888999975,3,0.8363179000007221,0.25895130000208155,None,,,,,,,,,,,,,,,,,,,,2405,1,2025-06-18_19h52.42.236,sm,2024.2.4,59.96584345508702,2025-06-18 19h52.52.563907 +0200,
11,0,11,,,,,,space,3.461448300000484,None,None,3,0.8717242999991868,0.26967320000039763,None,0,0,0,0,,,,,1,0,1,0,,,,,11,0,11,0,700.5522858999975,,,,,,,,,,,,,,,,,,,,,,,,,,,,,,,,,,,,,,,,,,,,,,,,,,,,,,Stein,2.3264,700.5369920999983,700.5376350999977,700.537739899999,700.5522858999975,702.8855514999996,702.8694843999983,702.8736037999988,702.8855514999996,702.8855514999996,702.8855514999996,702.8855514999996,704.8853301999989,704.8853301999989,704.8853301999989,704.8853301999989,704.8697447999984,3,0.8717242999991868,0.26967320000039763,None,,,,,,,,,,,,,,,,,,,,2405,1,2025-06-18_19h52.42.236,sm,2024.2.4,59.96584345508702,2025-06-18 19h52.52.563907 +0200,
12,0,12,,,,,,space,3.461448300000484,None,None,3,0.792316999999457,0.2460873999989417,None,0,0,0,0,,,,,1,0,1,0,,,,,12,0,12,0,704.8853301999989,,,,,,,,,,,,,,,,,,,,,,,,,,,,,,,,,,,,,,,,,,,,,,,,,,,,,,Ring,2.5116,704.870253699999,704.870751399998,704.8708598999983,704.8853301999989,707.4014800999976,707.386040399997,707.3894496999965,707.4014800999976,707.4014800999976,707.4014800999976,707.4014800999976,709.4016803999984,709.4016803999984,709.4016803999984,709.4016803999984,709.3862456999996,3,0.792316999999457,0.2460873999989417,None,,,,,,,,,,,,,,,,,,,,2405,1,2025-06-18_19h52.42.236,sm,2024.2.4,59.96584345508702,2025-06-18 19h52.52.563907 +0200,
13,0,13,,,,,,space,3.461448300000484,None,None,3,0.830623600002582,0.5594421999994665,None,0,0,0,0,,,,,1,0,1,0,,,,,13,0,13,0,709.4016803999984,,,,,,,,,,,,,,,,,,,,,,,,,,,,,,,,,,,,,,,,,,,,,,,,,,,,,,Schmerz,3.6503,709.386757799999,709.3872766999993,709.3873820999979,709.4016803999984,713.0514137999999,713.0360645000001,713.0401133999985,713.0514137999999,713.0514137999999,713.0514137999999,713.0514137999999,715.0514651999983,715.0514651999983,715.0514651999983,715.0514651999983,715.0360241999988,3,0.830623600002582,0.5594421999994665,None,,,,,,,,,,,,,,,,,,,,2405,1,2025-06-18_19h52.42.236,sm,2024.2.4,59.96584345508702,2025-06-18 19h52.52.563907 +0200,
14,0,14,,,,,,space,3.461448300000484,None,None,None,,,None,0,0,0,0,,,,,1,0,1,0,,,,,14,0,14,0,715.0514651999983,,,,,,,,,,,,,,,,,,,,,,,,,,,,,,,,,,,,,,,,,,,,,,,,,,,,,,Knie,3.5107,715.0365336999967,715.0370481999998,715.0371549999982,715.0514651999983,718.5678036999998,718.5524786999995,718.5561636999992,718.5678036999998,718.5678036999998,718.5678036999998,718.5678036999998,720.5681627999984,720.5681627999984,720.5681627999984,720.5681627999984,720.5522824999971,None,,,None,,,,,,,,,,,,,,,,,,,,2405,1,2025-06-18_19h52.42.236,sm,2024.2.4,59.96584345508702,2025-06-18 19h52.52.563907 +0200,
15,0,15,,,,,,space,3.461448300000484,None,None,3,0.7339191999999457,0.3000842000001285,None,0,0,0,0,,,,,1,0,1,0,,,,,15,0,15,0,720.5681627999984,,,,,,,,,,,,,,,,,,,,,,,,,,,,,,,,,,,,,,,,,,,,,,,,,,,,,,Glück,2.1082,720.5527559999973,720.5534054999989,720.5535111999998,720.5681627999984,722.6842937999972,722.6686887999967,722.6726963999972,722.6842937999972,722.6842937999972,722.6842937999972,722.6842937999972,724.684739999997,724.684739999997,724.684739999997,724.684739999997,724.6684051999982,3,0.7339191999999457,0.3000842000001285,None,,,,,,,,,,,,,,,,,,,,2405,1,2025-06-18_19h52.42.236,sm,2024.2.4,59.96584345508702,2025-06-18 19h52.52.563907 +0200,
16,0,16,,,,,,space,3.461448300000484,None,None,3,1.2428572999997414,0.2982159999992291,None,0,0,0,0,,,,,1,0,1,0,,,,,16,0,16,0,724.684739999997,,,,,,,,,,,,,,,,,,,,,,,,,,,,,,,,,,,,,,,,,,,,,,,,,,,,,,Musik,3.8786,724.6688846999969,724.6695259999979,724.6696293999994,724.684739999997,728.5673029999998,728.5516165999979,728.5557302999987,728.5673029999998,728.5673029999998,728.5673029999998,728.5673029999998,730.5677524999992,730.5677524999992,730.5677524999992,730.5677524999992,730.5514545999977,3,1.2428572999997414,0.2982159999992291,None,,,,,,,,,,,,,,,,,,,,2405,1,2025-06-18_19h52.42.236,sm,2024.2.4,59.96584345508702,2025-06-18 19h52.52.563907 +0200,
17,0,17,,,,,,space,3.461448300000484,None,None,3,1.3406413000011526,0.3082399999984773,None,0,0,0,0,,,,,1,0,1,0,,,,,17,0,17,0,730.5677524999992,,,,,,,,,,,,,,,,,,,,,,,,,,,,,,,,,,,,,,,,,,,,,,,,,,,,,,Gel,3.6634,730.5519315999991,730.5524232999996,730.5525211999993,730.5677524999992,734.2333220999972,734.2178529999983,734.2209802999969,734.2333220999972,734.2333220999972,734.2333220999972,734.2333220999972,736.2335084999977,736.2335084999977,736.2335084999977,736.2335084999977,736.2181064999968,3,1.3406413000011526,0.3082399999984773,None,,,,,,,,,,,,,,,,,,,,2405,1,2025-06-18_19h52.42.236,sm,2024.2.4,59.96584345508702,2025-06-18 19h52.52.563907 +0200,
18,0,18,,,,,,space,3.461448300000484,None,None,3,0.9491717999990215,0.26625249999779044,None,0,0,0,0,,,,,1,0,1,0,,,,,18,0,18,0,736.2335084999977,,,,,,,,,,,,,,,,,,,,,,,,,,,,,,,,,,,,,,,,,,,,,,,,,,,,,,Foto,2.3284,736.2186071999968,736.2191079999975,736.219216999998,736.2335084999977,738.5666343999983,738.5507636999973,738.5544109999973,738.5666343999983,738.5666343999983,738.5666343999983,738.5666343999983,740.5666240999999,740.5666240999999,740.5666240999999,740.5666240999999,740.550921099999,3,0.9491717999990215,0.26625249999779044,None,,,,,,,,,,,,,,,,,,,,2405,1,2025-06-18_19h52.42.236,sm,2024.2.4,59.96584345508702,2025-06-18 19h52.52.563907 +0200,
19,0,19,,,,,,space,3.461448300000484,None,None,3,1.0319168000023637,0.36792399999831105,None,0,0,0,0,,,,,1,0,1,0,,,,,19,0,19,0,740.5666240999999,,,,,,,,,,,,,,,,,,,,,,,,,,,,,,,,,,,,,,,,,,,,,,,,,,,,,,Liebe,3.9624,740.5514349999976,740.551946399999,740.5520535999967,740.5666240999999,744.5332080999979,744.5173136999983,744.521452099998,744.5332080999979,744.5332080999979,744.5332080999979,744.5332080999979,746.5330205999999,746.5330205999999,746.5330205999999,746.5330205999999,746.5174229999975,3,1.0319168000023637,0.36792399999831105,None,,,,,,,,,,,,,,,,,,,,2405,1,2025-06-18_19h52.42.236,sm,2024.2.4,59.96584345508702,2025-06-18 19h52.52.563907 +0200,
20,0,20,,,,,,space,3.461448300000484,None,None,3,0.8239899999971385,0.30681230000118376,None,0,0,0,0,,,,,1,0,1,0,,,,,20,0,20,0,746.5330205999999,,,,,,,,,,,,,,,,,,,,,,,,,,,,,,,,,,,,,,,,,,,,,,,,,,,,,,Postkarte,2.2375,746.5179271999987,746.5184429999972,746.5185454999992,746.5330205999999,748.7827880999976,748.7672504999973,748.7710628999994,748.7827880999976,748.7827880999976,748.7827880999976,748.7827880999976,750.7828057999977,750.7828057999977,750.7828057999977,750.7828057999977,750.7672692999986,3,0.8239899999971385,0.30681230000118376,None,,,,,,,,,,,,,,,,,,,,2405,1,2025-06-18_19h52.42.236,sm,2024.2.4,59.96584345508702,2025-06-18 19h52.52.563907 +0200,
21,0,21,,,,,,space,3.461448300000484,None,None,3,1.0653157000015199,0.3166203000000678,None,0,0,0,0,,,,,1,0,1,0,,,,,21,0,21,0,750.7828057999977,,,,,,,,,,,,,,,,,,,,,,,,,,,,,,,,,,,,,,,,,,,,,,,,,,,,,,Tisch,3.2625,750.7677767999994,750.7682935999983,750.7684032999969,750.7828057999977,754.049014199998,754.0336931999991,754.0378867,754.049014199998,754.049014199998,754.049014199998,754.049014199998,756.0492121999996,756.0492121999996,756.0492121999996,756.0492121999996,756.0336362999988,3,1.0653157000015199,0.3166203000000678,None,,,,,,,,,,,,,,,,,,,,2405,1,2025-06-18_19h52.42.236,sm,2024.2.4,59.96584345508702,2025-06-18 19h52.52.563907 +0200,
22,0,22,,,,,,space,3.461448300000484,None,None,3,1.2141393000019889,0.3203142999991542,None,0,0,0,0,,,,,1,0,1,0,,,,,22,0,22,0,756.0492121999996,,,,,,,,,,,,,,,,,,,,,,,,,,,,,,,,,,,,,,,,,,,,,,,,,,,,,,Schnorchel,4.1765,756.0341413999995,756.0347823999982,756.0348907999978,756.0492121999996,760.232157399998,760.2165543999981,760.2209685999987,760.232157399998,760.232157399998,760.232157399998,760.232157399998,762.2320430999971,762.2320430999971,762.2320430999971,762.2320430999971,762.216534799998,3,1.2141393000019889,0.3203142999991542,None,,,,,,,,,,,,,,,,,,,,2405,1,2025-06-18_19h52.42.236,sm,2024.2.4,59.96584345508702,2025-06-18 19h52.52.563907 +0200,
23,0,23,,,,,,space,3.461448300000484,None,None,3,1.2821958999993512,0.25917219999973895,None,0,0,0,0,,,,,1,0,1,0,,,,,23,0,23,0,762.2320430999971,,,,,,,,,,,,,,,,,,,,,,,,,,,,,,,,,,,,,,,,,,,,,,,,,,,,,,Auto,2.7938,762.217044699999,762.2175666999974,762.2176723999983,762.2320430999971,765.0316772999977,765.0162797999983,765.0199620999992,765.0316772999977,765.0316772999977,765.0316772999977,765.0316772999977,767.0321656999986,767.0321656999986,767.0321656999986,767.0321656999986,767.0162462999979,3,1.2821958999993512,0.25917219999973895,None,,,,,,,,,,,,,,,,,,,,2405,1,2025-06-18_19h52.42.236,sm,2024.2.4,59.96584345508702,2025-06-18 19h52.52.563907 +0200,
24,0,24,,,,,,space,3.461448300000484,None,None,2,1.212705099998857,0.31365179999920656,None,0,0,0,0,,,,,1,0,1,0,,,,,24,0,24,0,767.0321656999986,,,,,,,,,,,,,,,,,,,,,,,,,,,,,,,,,,,,,,,,,,,,,,,,,,,,,,Blut,3.6463,767.0167545999975,767.0172715999979,767.0173752999981,767.0321656999986,770.6816308999987,770.6661365,770.6696927999983,770.6816308999987,770.6816308999987,770.6816308999987,770.6816308999987,772.6814152999978,772.6814152999978,772.6814152999978,772.6814152999978,772.6659131999986,2,1.212705099998857,0.31365179999920656,None,,,,,,,,,,,,,,,,,,,,2405,1,2025-06-18_19h52.42.236,sm,2024.2.4,59.96584345508702,2025-06-18 19h52.52.563907 +0200,
25,0,25,,,,,,space,3.461448300000484,None,None,3,1.0859706999981427,0.36610099999961676,None,0,0,0,0,,,,,1,0,1,0,,,,,25,0,25,0,772.6814152999978,,,,,,,,,,,,,,,,,,,,,,,,,,,,,,,,,,,,,,,,,,,,,,,,,,,,,,Weiß,2.769,772.6664251999973,772.6669347999996,772.6670411999985,772.6814152999978,775.4648890999997,775.4490783999972,775.455114299999,775.4648890999997,775.4648890999997,775.4648890999997,775.4648890999997,777.4645948999969,777.4645948999969,777.4645948999969,777.4645948999969,777.4490243,3,1.0859706999981427,0.36610099999961676,None,,,,,,,,,,,,,,,,,,,,2405,1,2025-06-18_19h52.42.236,sm,2024.2.4,59.96584345508702,2025-06-18 19h52.52.563907 +0200,
26,0,26,,,,,,space,3.461448300000484,None,None,3,1.2899394000014581,0.32350600000063423,None,0,0,0,0,,,,,1,0,1,0,,,,,26,0,26,0,777.4645948999969,,,,,,,,,,,,,,,,,,,,,,,,,,,,,,,,,,,,,,,,,,,,,,,,,,,,,,Schleim,2.5886,777.4495280999981,777.4501750999989,777.4502795999979,777.4645948999969,780.0646209999977,780.048743299998,780.0528195999977,780.0646209999977,780.0646209999977,780.0646209999977,780.0646209999977,782.0643799999998,782.0643799999998,782.0643799999998,782.0643799999998,782.0488751999983,3,1.2899394000014581,0.32350600000063423,None,,,,,,,,,,,,,,,,,,,,2405,1,2025-06-18_19h52.42.236,sm,2024.2.4,59.96584345508702,2025-06-18 19h52.52.563907 +0200,
27,0,27,,,,,,space,3.461448300000484,None,None,3,0.7010207999992417,0.4141453999982332,None,0,0,0,0,,,,,1,0,1,0,,,,,27,0,27,0,782.0643799999998,,,,,,,,,,,,,,,,,,,,,,,,,,,,,,,,,,,,,,,,,,,,,,,,,,,,,,Applaus,2.9534,782.0493788999993,782.0499219999983,782.0500302999972,782.0643799999998,785.0306985999996,785.0152381999978,785.0195512999999,785.0306985999996,785.0306985999996,785.0306985999996,785.0306985999996,787.0308646999983,787.0308646999983,787.0308646999983,787.0308646999983,787.015207299999,3,0.7010207999992417,0.4141453999982332,None,,,,,,,,,,,,,,,,,,,,2405,1,2025-06-18_19h52.42.236,sm,2024.2.4,59.96584345508702,2025-06-18 19h52.52.563907 +0200,
28,0,28,,,,,,space,3.461448300000484,None,None,2,1.8730797000025632,None,None,0,0,0,0,,,,,1,0,1,0,,,,,28,0,28,0,787.0308646999983,,,,,,,,,,,,,,,,,,,,,,,,,,,,,,,,,,,,,,,,,,,,,,,,,,,,,,Tasche,3.1651,787.015709299998,787.016231499998,787.0163367999994,787.0308646999983,790.1973608999979,790.1816191999969,790.1859084999996,790.1973608999979,790.1973608999979,790.1973608999979,790.1973608999979,792.1970722999977,792.1970722999977,792.1970722999977,792.1970722999977,792.1814990999992,2,1.8730797000025632,None,None,,,,,,,,,,,,,,,,,,,,2405,1,2025-06-18_19h52.42.236,sm,2024.2.4,59.96584345508702,2025-06-18 19h52.52.563907 +0200,
29,0,29,,,,,,space,3.461448300000484,None,None,2,0.797425500000827,None,None,0,0,0,0,,,,,1,0,1,0,,,,,29,0,29,0,792.1970722999977,,,,,,,,,,,,,,,,,,,,,,,,,,,,,,,,,,,,,,,,,,,,,,,,,,,,,,Journalistin,2.6954,792.1820070999966,792.1825555999967,792.182665999997,792.1970722999977,794.8966162999968,794.8808436999971,794.8847828999969,794.8966162999968,794.8966162999968,794.8966162999968,794.8966162999968,796.8970238999973,796.8970238999973,796.8970238999973,796.8970238999973,796.8814310999987,2,0.797425500000827,None,None,,,,,,,,,,,,,,,,,,,,2405,1,2025-06-18_19h52.42.236,sm,2024.2.4,59.96584345508702,2025-06-18 19h52.52.563907 +0200,
30,0,30,,,,,,space,3.461448300000484,None,None,None,,,None,0,0,0,0,,,,,1,0,1,0,,,,,30,0,30,0,796.8970238999973,,,,,,,,,,,,,,,,,,,,,,,,,,,,,,,,,,,,,,,,,,,,,,,,,,,,,,Anhänger,2.2365,796.8819153999975,796.8824695999974,796.8825767999988,796.8970238999973,799.146455099999,799.1310369999992,799.1348329999964,799.146455099999,799.146455099999,799.146455099999,799.146455099999,801.1465795999975,801.1465795999975,801.1465795999975,801.1465795999975,801.131205499998,None,,,None,,,,,,,,,,,,,,,,,,,,2405,1,2025-06-18_19h52.42.236,sm,2024.2.4,59.96584345508702,2025-06-18 19h52.52.563907 +0200,
31,0,31,,,,,,space,3.461448300000484,None,None,None,,,None,0,0,0,0,,,,,1,0,1,0,,,,,31,0,31,0,801.1465795999975,,,,,,,,,,,,,,,,,,,,,,,,,,,,,,,,,,,,,,,,,,,,,,,,,,,,,,Ozean,4.1554,801.1316847999988,801.1322424999998,801.1323464999987,801.1465795999975,805.3128777999991,805.2973052999987,805.3040449,805.3128777999991,805.3128777999991,805.3128777999991,805.3128777999991,807.313113799999,807.313113799999,807.313113799999,807.313113799999,807.2974102999979,None,,,None,,,,,,,,,,,,,,,,,,,,2405,1,2025-06-18_19h52.42.236,sm,2024.2.4,59.96584345508702,2025-06-18 19h52.52.563907 +0200,
32,0,32,,,,,,space,3.461448300000484,None,None,2,0.7106122000004689,0.3407050999994681,None,0,0,0,0,,,,,1,0,1,0,,,,,32,0,32,0,807.313113799999,,,,,,,,,,,,,,,,,,,,,,,,,,,,,,,,,,,,,,,,,,,,,,,,,,,,,,Freund,2.7505,807.2978850999971,807.2984828999979,807.2985874999977,807.313113799999,810.0627393999966,810.0469897999974,810.0504486999998,810.0627393999966,810.0627393999966,810.0627393999966,810.0627393999966,812.0631611999997,812.0631611999997,812.0631611999997,812.0631611999997,812.0472706,2,0.7106122000004689,0.3407050999994681,None,,,,,,,,,,,,,,,,,,,,2405,1,2025-06-18_19h52.42.236,sm,2024.2.4,59.96584345508702,2025-06-18 19h52.52.563907 +0200,
33,0,33,,,,,,space,3.461448300000484,None,None,3,0.9771010000004026,0.29080380000232253,None,0,0,0,0,,,,,1,0,1,0,,,,,33,0,33,0,812.0631611999997,,,,,,,,,,,,,,,,,,,,,,,,,,,,,,,,,,,,,,,,,,,,,,,,,,,,,,Geschäft,2.0575,812.0477847999973,812.0483173999964,812.0484227999987,812.0631611999997,814.1290446999992,814.1135794999973,814.1171214999995,814.1290446999992,814.1290446999992,814.1290446999992,814.1290446999992,816.1291233999982,816.1291233999982,816.1291233999982,816.1291233999982,816.1138625999993,3,0.9771010000004026,0.29080380000232253,None,,,,,,,,,,,,,,,,,,,,2405,1,2025-06-18_19h52.42.236,sm,2024.2.4,59.96584345508702,2025-06-18 19h52.52.563907 +0200,
34,0,34,,,,,,space,3.461448300000484,None,None,3,0.7502182000025641,0.2702982999981032,None,0,0,0,0,,,,,1,0,1,0,,,,,34,0,34,0,816.1291233999982,,,,,,,,,,,,,,,,,,,,,,,,,,,,,,,,,,,,,,,,,,,,,,,,,,,,,,Hammer,2.2605,816.1143604999997,816.1149467999967,816.1150549999984,816.1291233999982,818.395536,818.3798650999997,818.3831292999967,818.395536,818.395536,818.395536,818.395536,820.3955641999964,820.3955641999964,820.3955641999964,820.3955641999964,820.3799617999975,3,0.7502182000025641,0.2702982999981032,None,,,,,,,,,,,,,,,,,,,,2405,1,2025-06-18_19h52.42.236,sm,2024.2.4,59.96584345508702,2025-06-18 19h52.52.563907 +0200,
35,0,35,,,,,,space,3.461448300000484,None,None,3,0.9437341999982891,0.3119540000006964,None,0,0,0,0,,,,,1,0,1,0,,,,,35,0,35,0,820.3955641999964,,,,,,,,,,,,,,,,,,,,,,,,,,,,,,,,,,,,,,,,,,,,,,,,,,,,,,Tanz,2.5335,820.3804659999987,820.3811197999967,820.3812264999979,820.3955641999964,822.928588499999,822.9128240999999,822.9161621999992,822.928588499999,822.928588499999,822.928588499999,822.928588499999,824.9286252999991,824.9286252999991,824.9286252999991,824.9286252999991,824.9129781999982,3,0.9437341999982891,0.3119540000006964,None,,,,,,,,,,,,,,,,,,,,2405,1,2025-06-18_19h52.42.236,sm,2024.2.4,59.96584345508702,2025-06-18 19h52.52.563907 +0200,
36,0,36,,,,,,space,3.461448300000484,None,None,3,1.0085092000008444,0.28724359999978333,None,0,0,0,0,,,,,1,0,1,0,,,,,36,0,36,0,824.9286252999991,,,,,,,,,,,,,,,,,,,,,,,,,,,,,,,,,,,,,,,,,,,,,,,,,,,,,,Zigarette,2.1269,824.9134921999976,824.9140741999981,824.9141786,824.9286252999991,827.0616352999969,827.0461968999989,827.0510690999981,827.0616352999969,827.0616352999969,827.0616352999969,827.0616352999969,829.0617797999985,829.0617797999985,829.0617797999985,829.0617797999985,829.0460889999995,3,1.0085092000008444,0.28724359999978333,None,,,,,,,,,,,,,,,,,,,,2405,1,2025-06-18_19h52.42.236,sm,2024.2.4,59.96584345508702,2025-06-18 19h52.52.563907 +0200,
37,0,37,,,,,,space,3.461448300000484,None,None,2,0.7202543999992486,0.25973510000039823,None,0,0,0,0,,,,,1,0,1,0,,,,,37,0,37,0,829.0617797999985,,,,,,,,,,,,,,,,,,,,,,,,,,,,,,,,,,,,,,,,,,,,,,,,,,,,,,Alligator,2.6784,829.0465962999988,829.0471128999998,829.0472162999977,829.0617797999985,831.7446234999989,831.729136599999,831.7338508999965,831.7446234999989,831.7446234999989,831.7446234999989,831.7446234999989,833.7447613999975,833.7447613999975,833.7447613999975,833.7447613999975,833.7293473999998,2,0.7202543999992486,0.25973510000039823,None,,,,,,,,,,,,,,,,,,,,2405,1,2025-06-18_19h52.42.236,sm,2024.2.4,59.96584345508702,2025-06-18 19h52.52.563907 +0200,
38,0,38,,,,,,space,3.461448300000484,None,None,2,1.0210077000010642,0.2397261999976763,None,0,0,0,0,,,,,1,0,1,0,,,,,38,0,38,0,833.7447613999975,,,,,,,,,,,,,,,,,,,,,,,,,,,,,,,,,,,,,,,,,,,,,,,,,,,,,,Anwalt,2.4566,833.7298521999983,833.7303648999987,833.730470399998,833.7447613999975,836.2110786999983,836.1958524999973,836.1999812999966,836.2110786999983,836.2110786999983,836.2110786999983,836.2110786999983,838.211084999999,838.211084999999,838.211084999999,838.211084999999,838.1956640999997,2,1.0210077000010642,0.2397261999976763,None,,,,,,,,,,,,,,,,,,,,2405,1,2025-06-18_19h52.42.236,sm,2024.2.4,59.96584345508702,2025-06-18 19h52.52.563907 +0200,
39,0,39,,,,,,space,3.461448300000484,None,None,3,0.8392095999988669,0.3240161000030639,None,0,0,0,0,,,,,1,0,1,0,,,,,39,0,39,0,838.211084999999,,,,,,,,,,,,,,,,,,,,,,,,,,,,,,,,,,,,,,,,,,,,,,,,,,,,,,Schwung,4.8304,838.1961728999995,838.1966814999978,838.1967855999974,838.211084999999,843.0443482999981,843.028539699997,843.0326564999996,843.0443482999981,843.0443482999981,843.0443482999981,843.0443482999981,845.044192399997,845.044192399997,845.044192399997,845.044192399997,845.0285435999976,3,0.8392095999988669,0.3240161000030639,None,,,,,,,,,,,,,,,,,,,,2405,1,2025-06-18_19h52.42.236,sm,2024.2.4,59.96584345508702,2025-06-18 19h52.52.563907 +0200,
40,0,40,,,,,,space,3.461448300000484,None,None,3,1.6129729999993287,None,None,0,0,0,0,,,,,1,0,1,0,,,,,40,0,40,0,845.044192399997,,,,,,,,,,,,,,,,,,,,,,,,,,,,,,,,,,,,,,,,,,,,,,,,,,,,,,Tradition,2.7186,845.0290566999975,845.0295739999965,845.0296893999985,845.044192399997,847.7773014999984,847.7611260999984,847.7648462999969,847.7773014999984,847.7773014999984,847.7773014999984,847.7773014999984,,,,,849.7614151999987,3,1.6129729999993287,None,None,,,,,,,,,,,,,,,,,,,,2405,1,2025-06-18_19h52.42.236,sm,2024.2.4,59.96584345508702,2025-06-18 19h52.52.563907 +0200,
41,0,41,,,,,,space,3.461448300000484,None,None,2,0.9282309000009263,0.2868495999973675,None,0,0,0,0,,,,,1,0,1,0,,,,,41,0,41,0,849.7773115999989,,,,,,,,,,,,,,,,,,,,,,,,,,,,,,,,,,,,,,,,,,,,,,,,,,,,,,Rose,4.24,849.7619146999969,849.7627005999966,849.7628162999972,849.7773115999989,854.0270355999965,854.011281199997,854.014603399999,854.0270355999965,854.0270355999965,854.0270355999965,854.0270355999965,856.0269060999999,856.0269060999999,856.0269060999999,856.0269060999999,856.0113263999992,2,0.9282309000009263,0.2868495999973675,None,,,,,,,,,,,,,,,,,,,,2405,1,2025-06-18_19h52.42.236,sm,2024.2.4,59.96584345508702,2025-06-18 19h52.52.563907 +0200,
42,0,42,,,,,,space,3.461448300000484,None,None,3,0.8813938999992388,0.30816009999762173,None,0,0,0,0,,,,,1,0,1,0,,,,,42,0,42,0,856.0269060999999,,,,,,,,,,,,,,,,,,,,,,,,,,,,,,,,,,,,,,,,,,,,,,,,,,,,,,Bus,4.3947,856.0118441999984,856.0123552999976,856.0124634999993,856.0269060999999,860.426673599999,860.4109777999984,860.4145249999965,860.426673599999,860.426673599999,860.426673599999,860.426673599999,862.4266771999974,862.4266771999974,862.4266771999974,862.4266771999974,862.4113696999993,3,0.8813938999992388,0.30816009999762173,None,,,,,,,,,,,,,,,,,,,,2405,1,2025-06-18_19h52.42.236,sm,2024.2.4,59.96584345508702,2025-06-18 19h52.52.563907 +0200,
43,0,43,,,,,,space,3.461448300000484,None,None,2,0.8565397999991546,0.35409810000055586,None,0,0,0,0,,,,,1,0,1,0,,,,,43,0,43,0,862.4266771999974,,,,,,,,,,,,,,,,,,,,,,,,,,,,,,,,,,,,,,,,,,,,,,,,,,,,,,Rebe,2.771,862.4118794999995,862.4123923999978,862.4125015999998,862.4266771999974,865.2095171999972,865.1937330000001,865.196770999999,865.2095171999972,865.2095171999972,865.2095171999972,865.2095171999972,867.2094909999978,867.2094909999978,867.2094909999978,867.2094909999978,867.1939822999993,2,0.8565397999991546,0.35409810000055586,None,,,,,,,,,,,,,,,,,,,,2405,1,2025-06-18_19h52.42.236,sm,2024.2.4,59.96584345508702,2025-06-18 19h52.52.563907 +0200,
44,0,44,,,,,,space,3.461448300000484,None,None,3,0.7638990999985253,0.4288900999999896,None,0,0,0,0,,,,,1,0,1,0,,,,,44,0,44,0,867.2094909999978,,,,,,,,,,,,,,,,,,,,,,,,,,,,,,,,,,,,,,,,,,,,,,,,,,,,,,Teleskop,3.2642,867.1944848999992,867.1950450999975,867.1951517999987,867.2094909999978,870.4758042999965,870.4601815999995,870.4649119999995,870.4758042999965,870.4758042999965,870.4758042999965,870.4758042999965,872.4762025999989,872.4762025999989,872.4762025999989,872.4762025999989,872.4605285999969,3,0.7638990999985253,0.4288900999999896,None,,,,,,,,,,,,,,,,,,,,2405,1,2025-06-18_19h52.42.236,sm,2024.2.4,59.96584345508702,2025-06-18 19h52.52.563907 +0200,
45,0,45,,,,,,space,3.461448300000484,None,None,None,,,None,0,0,0,0,,,,,1,0,1,0,,,,,45,0,45,0,872.4762025999989,,,,,,,,,,,,,,,,,,,,,,,,,,,,,,,,,,,,,,,,,,,,,,,,,,,,,,Skizze,3.3712,872.4609721999987,872.4614575999985,872.4615523999964,872.4762025999989,875.8587463999975,875.8431574999995,875.8466955999975,875.8587463999975,875.8587463999975,875.8587463999975,875.8587463999975,877.858836899999,877.858836899999,877.858836899999,877.858836899999,877.8435744999988,None,,,None,,,,,,,,,,,,,,,,,,,,2405,1,2025-06-18_19h52.42.236,sm,2024.2.4,59.96584345508702,2025-06-18 19h52.52.563907 +0200,
46,0,46,,,,,,space,3.461448300000484,None,None,3,0.8264248999985284,0.2891376000006858,None,0,0,0,0,,,,,1,0,1,0,,,,,46,0,46,0,877.858836899999,,,,,,,,,,,,,,,,,,,,,,,,,,,,,,,,,,,,,,,,,,,,,,,,,,,,,,Hemd,3.9147,877.8440584999989,877.8447455999994,877.8448511999995,877.858836899999,881.7755507999973,881.759725699998,881.7634898999968,881.7755507999973,881.7755507999973,881.7755507999973,881.7755507999973,883.7754028999989,883.7754028999989,883.7754028999989,883.7754028999989,883.7597229999992,3,0.8264248999985284,0.2891376000006858,None,,,,,,,,,,,,,,,,,,,,2405,1,2025-06-18_19h52.42.236,sm,2024.2.4,59.96584345508702,2025-06-18 19h52.52.563907 +0200,
47,0,47,,,,,,space,3.461448300000484,None,None,3,1.3027531000007002,0.5306629000006069,None,0,0,0,0,,,,,1,0,1,0,,,,,47,0,47,0,883.7754028999989,,,,,,,,,,,,,,,,,,,,,,,,,,,,,,,,,,,,,,,,,,,,,,,,,,,,,,Dunkelheit,2.0214,883.7602279999992,883.7608262999966,883.7609327999999,883.7754028999989,885.8085200999994,885.7927782999977,885.7973507999995,885.8085200999994,885.8085200999994,885.8085200999994,885.8085200999994,887.8084348999982,887.8084348999982,887.8084348999982,887.8084348999982,887.7928622999971,3,1.3027531000007002,0.5306629000006069,None,,,,,,,,,,,,,,,,,,,,2405,1,2025-06-18_19h52.42.236,sm,2024.2.4,59.96584345508702,2025-06-18 19h52.52.563907 +0200,
48,0,48,,,,,,space,3.461448300000484,None,None,3,0.7578878000022087,0.3021891999997024,None,0,0,0,0,,,,,1,0,1,0,,,,,48,0,48,0,887.8084348999982,,,,,,,,,,,,,,,,,,,,,,,,,,,,,,,,,,,,,,,,,,,,,,,,,,,,,,Trocken,2.2966,887.7933800999999,887.7938955999998,887.7940065999974,887.8084348999982,890.1080976999983,890.0924563999979,890.0959495999996,890.1080976999983,890.1080976999983,890.1080976999983,890.1080976999983,892.1081603999992,892.1081603999992,892.1081603999992,892.1081603999992,892.0926196,3,0.7578878000022087,0.3021891999997024,None,,,,,,,,,,,,,,,,,,,,2405,1,2025-06-18_19h52.42.236,sm,2024.2.4,59.96584345508702,2025-06-18 19h52.52.563907 +0200,
49,0,49,,,,,,space,3.461448300000484,None,None,3,1.0490668999991613,0.31601530000261846,None,0,0,0,0,,,,,1,0,1,0,,,,,49,0,49,0,892.1081603999992,,,,,,,,,,,,,,,,,,,,,,,,,,,,,,,,,,,,,,,,,,,,,,,,,,,,,,Gipfel,2.7308,892.0931321999997,892.0936425999971,892.0937530999981,892.1081603999992,894.8415754999987,894.825742099998,894.8295357999996,894.8415754999987,894.8415754999987,894.8415754999987,894.8415754999987,896.8412241999977,896.8412241999977,896.8412241999977,896.8412241999977,896.8256555999978,3,1.0490668999991613,0.31601530000261846,None,,,,,,,,,,,,,,,,,,,,2405,1,2025-06-18_19h52.42.236,sm,2024.2.4,59.96584345508702,2025-06-18 19h52.52.563907 +0200,
50,0,50,,,,,,space,3.461448300000484,None,None,2,1.6521382000028098,0.21744639999815263,None,0,0,0,0,,,,,1,0,1,0,,,,,50,0,50,0,896.8412241999977,,,,,,,,,,,,,,,,,,,,,,,,,,,,,,,,,,,,,,,,,,,,,,,,,,,,,,Spinne,3.832,896.826158099997,896.8266710999997,896.8267792999977,896.8412241999977,900.674296899997,900.6588602999982,900.6628934999972,900.674296899997,900.674296899997,900.674296899997,900.674296899997,902.6742110999985,902.6742110999985,902.6742110999985,902.6742110999985,902.6585425999983,2,1.6521382000028098,0.21744639999815263,None,,,,,,,,,,,,,,,,,,,,2405,1,2025-06-18_19h52.42.236,sm,2024.2.4,59.96584345508702,2025-06-18 19h52.52.563907 +0200,
51,0,51,,,,,,space,3.461448300000484,None,None,2,0.8087644999977783,0.2579083999989962,None,0,0,0,0,,,,,1,0,1,0,,,,,51,0,51,0,902.6742110999985,,,,,,,,,,,,,,,,,,,,,,,,,,,,,,,,,,,,,,,,,,,,,,,,,,,,,,Zunge,2.2697,902.6590554999966,902.6595788999985,902.6596856999968,902.6742110999985,904.9574442999983,904.941718799997,904.9463212999981,904.9574442999983,904.9574442999983,904.9574442999983,904.9574442999983,906.9573612999993,906.9573612999993,906.9573612999993,906.9573612999993,906.941688699997,2,0.8087644999977783,0.2579083999989962,None,,,,,,,,,,,,,,,,,,,,2405,1,2025-06-18_19h52.42.236,sm,2024.2.4,59.96584345508702,2025-06-18 19h52.52.563907 +0200,
52,0,52,,,,,,space,3.461448300000484,None,None,2,0.988202700002148,0.32396650000009686,None,0,0,0,0,,,,,1,0,1,0,,,,,52,0,52,0,906.9573612999993,,,,,,,,,,,,,,,,,,,,,,,,,,,,,,,,,,,,,,,,,,,,,,,,,,,,,,Augen,3.1416,906.942189399997,906.9426915999975,906.9427963999988,906.9573612999993,910.1072988999986,910.0913501999967,910.0950155999999,910.1072988999986,910.1072988999986,910.1072988999986,910.1072988999986,912.1070218999994,912.1070218999994,912.1070218999994,912.1070218999994,912.0914108999968,2,0.988202700002148,0.32396650000009686,None,,,,,,,,,,,,,,,,,,,,2405,1,2025-06-18_19h52.42.236,sm,2024.2.4,59.96584345508702,2025-06-18 19h52.52.563907 +0200,
53,0,53,,,,,,space,3.461448300000484,None,None,2,1.1499015999979747,0.2762027000026137,None,0,0,0,0,,,,,1,0,1,0,,,,,53,0,53,0,912.1070218999994,,,,,,,,,,,,,,,,,,,,,,,,,,,,,,,,,,,,,,,,,,,,,,,,,,,,,,Gemüse,2.2575,912.0919191999965,912.0925694999969,912.0926746999976,912.1070218999994,914.3733911999989,914.3577798999977,914.3614783999983,914.3733911999989,914.3733911999989,914.3733911999989,914.3733911999989,916.3734591999964,916.3734591999964,916.3734591999964,916.3734591999964,916.3580532999986,2,1.1499015999979747,0.2762027000026137,None,,,,,,,,,,,,,,,,,,,,2405,1,2025-06-18_19h52.42.236,sm,2024.2.4,59.96584345508702,2025-06-18 19h52.52.563907 +0200,
54,0,54,,,,,,space,3.461448300000484,None,None,3,0.8434535000014876,0.28923679999934393,None,0,0,0,0,,,,,1,0,1,0,,,,,54,0,54,0,916.3734591999964,,,,,,,,,,,,,,,,,,,,,,,,,,,,,,,,,,,,,,,,,,,,,,,,,,,,,,Spaß,2.0604,916.3585657999975,916.3590783999971,916.3591880999993,916.3734591999964,918.439657699997,918.4243358999993,918.4275305999981,918.439657699997,918.439657699997,918.439657699997,918.439657699997,920.4403964999983,920.4403964999983,920.4403964999983,920.4403964999983,920.4243270999978,3,0.8434535000014876,0.28923679999934393,None,,,,,,,,,,,,,,,,,,,,2405,1,2025-06-18_19h52.42.236,sm,2024.2.4,59.96584345508702,2025-06-18 19h52.52.563907 +0200,
55,0,55,,,,,,space,3.461448300000484,None,None,3,0.8190365999980713,0.333148000001529,None,0,0,0,0,,,,,1,0,1,0,,,,,55,0,55,0,920.4403964999983,,,,,,,,,,,,,,,,,,,,,,,,,,,,,,,,,,,,,,,,,,,,,,,,,,,,,,Stiefel,3.5248,920.4248351999995,920.4253344999997,920.4254400999998,920.4403964999983,923.9729869999974,923.9573836999989,923.961471999999,923.9729869999974,923.9729869999974,923.9729869999974,923.9729869999974,925.9730680999965,925.9730680999965,925.9730680999965,925.9730680999965,925.957395999998,3,0.8190365999980713,0.333148000001529,None,,,,,,,,,,,,,,,,,,,,2405,1,2025-06-18_19h52.42.236,sm,2024.2.4,59.96584345508702,2025-06-18 19h52.52.563907 +0200,
56,0,56,,,,,,space,3.461448300000484,None,None,None,,,None,0,0,0,0,,,,,1,0,1,0,,,,,56,0,56,0,925.9730680999965,,,,,,,,,,,,,,,,,,,,,,,,,,,,,,,,,,,,,,,,,,,,,,,,,,,,,,Gegenwart,2.5391,925.9579043999984,925.9585547999995,925.9586630999984,925.9730680999965,928.5224899999994,928.507051499997,928.5106218999972,928.5224899999994,928.5224899999994,928.5224899999994,928.5224899999994,930.522629799998,930.522629799998,930.522629799998,930.522629799998,930.5070556999999,None,,,None,,,,,,,,,,,,,,,,,,,,2405,1,2025-06-18_19h52.42.236,sm,2024.2.4,59.96584345508702,2025-06-18 19h52.52.563907 +0200,
57,0,57,,,,,,space,3.461448300000484,None,None,3,0.659116200000426,0.25234009999985574,None,0,0,0,0,,,,,1,0,1,0,,,,,57,0,57,0,930.522629799998,,,,,,,,,,,,,,,,,,,,,,,,,,,,,,,,,,,,,,,,,,,,,,,,,,,,,,Kapitel,2.2595,930.5075290999994,930.5080334999984,930.5081398999973,930.522629799998,932.7891967999967,932.7733612999982,932.7767417999967,932.7891967999967,932.7891967999967,932.7891967999967,932.7891967999967,934.7892441999975,934.7892441999975,934.7892441999975,934.7892441999975,934.7735091999966,3,0.659116200000426,0.25234009999985574,None,,,,,,,,,,,,,,,,,,,,2405,1,2025-06-18_19h52.42.236,sm,2024.2.4,59.96584345508702,2025-06-18 19h52.52.563907 +0200,
58,0,58,,,,,,space,3.461448300000484,None,None,3,1.0524297000010847,0.4049234999984037,None,0,0,0,0,,,,,1,0,1,0,,,,,58,0,58,0,934.7892441999975,,,,,,,,,,,,,,,,,,,,,,,,,,,,,,,,,,,,,,,,,,,,,,,,,,,,,,Vulkan,2.5036,934.7740177999985,934.7745270999985,934.774631799999,934.7892441999975,937.3057158999982,937.2897540999984,937.2939387999977,937.3057158999982,937.3057158999982,937.3057158999982,937.3057158999982,939.3054824999999,939.3054824999999,939.3054824999999,939.3054824999999,939.2899846999971,3,1.0524297000010847,0.4049234999984037,None,,,,,,,,,,,,,,,,,,,,2405,1,2025-06-18_19h52.42.236,sm,2024.2.4,59.96584345508702,2025-06-18 19h52.52.563907 +0200,
59,0,59,,,,,,space,3.461448300000484,None,None,3,1.4191126999976404,0.4298942999994324,None,0,0,0,0,,,,,1,0,1,0,,,,,59,0,59,0,939.3054824999999,,,,,,,,,,,,,,,,,,,,,,,,,,,,,,,,,,,,,,,,,,,,,,,,,,,,,,Zeigen,3.8976,939.290498899998,939.2910127999967,939.2911173999964,939.3054824999999,943.2052356999993,943.1897739999986,943.1942817999989,943.2052356999993,943.2052356999993,943.2052356999993,943.2052356999993,945.2052497999975,945.2052497999975,945.2052497999975,945.2052497999975,945.1897712999998,3,1.4191126999976404,0.4298942999994324,None,,,,,,,,,,,,,,,,,,,,2405,1,2025-06-18_19h52.42.236,sm,2024.2.4,59.96584345508702,2025-06-18 19h52.52.563907 +0200,
60,0,60,,,,,,space,3.461448300000484,None,None,3,0.7315495000002556,0.3356568999988667,None,0,0,0,0,,,,,1,0,1,0,,,,,60,0,60,0,945.2052497999975,,,,,,,,,,,,,,,,,,,,,,,,,,,,,,,,,,,,,,,,,,,,,,,,,,,,,,Gabel,3.181,945.1902861999988,945.1908058999979,945.1909129999985,945.2052497999975,948.3885980999985,948.3725865999986,948.3767161999967,948.3885980999985,948.3885980999985,948.3885980999985,948.3885980999985,950.3882739999972,950.3882739999972,950.3882739999972,950.3882739999972,950.3725706999976,3,0.7315495000002556,0.3356568999988667,None,,,,,,,,,,,,,,,,,,,,2405,1,2025-06-18_19h52.42.236,sm,2024.2.4,59.96584345508702,2025-06-18 19h52.52.563907 +0200,
61,0,61,,,,,,space,3.461448300000484,None,None,3,1.0650134999996226,0.4597817000030773,None,0,0,0,0,,,,,1,0,1,0,,,,,61,0,61,0,950.3882739999972,,,,,,,,,,,,,,,,,,,,,,,,,,,,,,,,,,,,,,,,,,,,,,,,,,,,,,Fliegen,3.2242,950.3730825999992,950.3736817999998,950.373796099997,950.3882739999972,953.6214840999965,953.6057402999977,953.6099131999981,953.6214840999965,953.6214840999965,953.6214840999965,953.6214840999965,955.6213278999967,955.6213278999967,955.6213278999967,955.6213278999967,955.6057890999982,3,1.0650134999996226,0.4597817000030773,None,,,,,,,,,,,,,,,,,,,,2405,1,2025-06-18_19h52.42.236,sm,2024.2.4,59.96584345508702,2025-06-18 19h52.52.563907 +0200,
62,0,62,,,,,,space,3.461448300000484,None,None,2,1.233838599997398,0.4165960000027553,None,0,0,0,0,,,,,1,0,1,0,,,,,62,0,62,0,955.6213278999967,,,,,,,,,,,,,,,,,,,,,,,,,,,,,,,,,,,,,,,,,,,,,,,,,,,,,,Ordner,2.5593,955.6063031999984,955.6068218,955.6069284999976,955.6213278999967,958.1876722999987,958.1721550999973,958.1766743999979,958.1876722999987,958.1876722999987,958.1876722999987,958.1876722999987,960.187746399999,960.187746399999,960.187746399999,960.187746399999,960.1722868999968,2,1.233838599997398,0.4165960000027553,None,,,,,,,,,,,,,,,,,,,,2405,1,2025-06-18_19h52.42.236,sm,2024.2.4,59.96584345508702,2025-06-18 19h52.52.563907 +0200,
63,0,63,,,,,,space,3.461448300000484,None,None,3,1.3155485999996017,0.2919194999994943,None,0,0,0,0,,,,,1,0,1,0,,,,,63,0,63,0,960.187746399999,,,,,,,,,,,,,,,,,,,,,,,,,,,,,,,,,,,,,,,,,,,,,,,,,,,,,,Ferien,5.463,960.1728217999989,960.173379099997,960.173498199998,960.187746399999,965.6538183999983,965.6382557999968,965.6420238999999,965.6538183999983,965.6538183999983,965.6538183999983,965.6538183999983,967.6541328999992,967.6541328999992,967.6541328999992,967.6541328999992,967.6384800999986,3,1.3155485999996017,0.2919194999994943,None,,,,,,,,,,,,,,,,,,,,2405,1,2025-06-18_19h52.42.236,sm,2024.2.4,59.96584345508702,2025-06-18 19h52.52.563907 +0200,
