thisN,thisTrialN,thisRepN,Cue,Target,Mediator1,Mediator2,iti,scanner_ready_press.keys,scanner_ready_press.rt,scanner_ready_press.duration,skip_trigger.keys,living_nonliving.keys,living_nonliving.rt,living_nonliving.duration,end_mapping.keys,blocks.thisRepN,blocks.thisTrialN,blocks.thisN,blocks.thisIndex,load_and_shuffle.thisRepN,load_and_shuffle.thisTrialN,load_and_shuffle.thisN,load_and_shuffle.thisIndex,runs.thisRepN,runs.thisTrialN,runs.thisN,runs.thisIndex,iti_loading_loop.thisRepN,iti_loading_loop.thisTrialN,iti_loading_loop.thisN,iti_loading_loop.thisIndex,semantic_mapping_run.thisRepN,semantic_mapping_run.thisTrialN,semantic_mapping_run.thisN,semantic_mapping_run.thisIndex,thisRow.t,notes,welcome.started,welcome_text.started,key_resp__welcome.started,welcome.stopped,key_resp__welcome.keys,key_resp__welcome.rt,key_resp__welcome.duration,scout.started,scout_text.started,key_resp.started,scout.stopped,key_resp.keys,key_resp.rt,key_resp.duration,instructions_semantic_mapping1.started,sm_instructions1_text.started,sm_instructions1_key.started,instructions_semantic_mapping1.stopped,sm_instructions1_key.keys,sm_instructions1_key.rt,sm_instructions1_key.duration,instructions_semantic_mapping2.started,sm_instructions2_text.started,sm_instructions2_key.started,instructions_semantic_mapping2.stopped,sm_instructions2_key.keys,sm_instructions2_key.rt,sm_instructions2_key.duration,reset_run.started,reset_run.stopped,shuffle_items.started,shuffle_items.stopped,set_up_runs.started,set_up_runs.stopped,load_iti.started,load_iti.stopped,prep_scanner.started,scanner_ready_press.started,ready_set_text.started,prep_scanner.stopped,runs.scanner_ready_press.keys,runs.scanner_ready_press.rt,runs.scanner_ready_press.duration,wait_for_trigger.started,starting_soon.started,skip_trigger.started,wait_for_trigger.stopped,runs.skip_trigger.keys,blank.started,begin_end_run_cross.started,sound_1.started,sound_1.stopped,sound_2.started,sound_2.stopped,blank.stopped,CurrentItem,CurrentITI,set_up_trial.started,set_up_trial.stopped,sm_iti.started,iti_cross.started,iti_cross.stopped,sm_iti.stopped,item.started,living_nonliving.started,end_mapping.started,living_nonliving_text.started,semantic_map_item.started,living_nonliving.stopped,end_mapping.stopped,living_nonliving_text.stopped,semantic_map_item.stopped,item.stopped,semantic_mapping_run.living_nonliving.keys,semantic_mapping_run.living_nonliving.rt,semantic_mapping_run.living_nonliving.duration,semantic_mapping_run.end_mapping.keys,fieldmap.started,fieldmap.stopped,runs.fm_key.keys,task_break.started,feeback_text.started,task_break_text.started,task_break_resp.started,feeback_text.stopped,task_break.stopped,runs.task_break_resp.keys,runs.task_break_resp.rt,runs.task_break_resp.duration,begin_end_run_cross.stopped,fm_text.started,fm_key.started,runs.fm_key.rt,runs.fm_key.duration,thanks.started,thanks_text.started,thanks_text.stopped,thanks.stopped,PID,MRI,date,expName,psychopyVersion,frameRate,expStart,
,,,,,,,,,,,,,,,,,,,,,,,,,,,,,,,,,,,,,,0.0025401000002602814,0.014624800000092364,0.014624800000092364,4.57175929999994,space,4.548739400000159,None,,,,,,,,,,,,,,,,,,,,,,,,,,,,,,,,,,,,,,,,,,,,,,,,,,,,,,,,,,,,,,,,,,,,,,,,,,,,,,,,,,,,,,,,,,,,3141,1,2025-09-18_14h33.56.945,sm,2024.2.4,60.01748909630444,2025-09-18 14h34.07.626329 +0200,
,,,,,,,,,,,,,,,,,,,,,,,,,,,,,,,,,,,,,,,,,,,,,4.571841400000267,4.581416800000625,4.581416800000625,93.21257779999996,space,88.62290649999977,None,,,,,,,,,,,,,,,,,,,,,,,,,,,,,,,,,,,,,,,,,,,,,,,,,,,,,,,,,,,,,,,,,,,,,,,,,,,,,,,,,,,,,3141,1,2025-09-18_14h33.56.945,sm,2024.2.4,60.01748909630444,2025-09-18 14h34.07.626329 +0200,
,,,,,,,,,,,,,,,,,,,,,,,,,,,,,,,,,,,,,,,,,,,,,,,,,,,,93.21269550000034,93.22749199999998,93.22749199999998,106.94265110000015,1,13.703749799999969,None,,,,,,,,,,,,,,,,,,,,,,,,,,,,,,,,,,,,,,,,,,,,,,,,,,,,,,,,,,,,,,,,,,,,,,,,,,,,,,3141,1,2025-09-18_14h33.56.945,sm,2024.2.4,60.01748909630444,2025-09-18 14h34.07.626329 +0200,
,,,,,,,,,,,,,,,,,,,,,,,,,,,,,,,,,,,,,,,,,,,,,,,,,,,,,,,,,,,106.94278200000008,106.95792930000061,106.95792930000061,128.80827690000024,1,21.848155800000313,None,,,,,,,,,,,,,,,,,,,,,,,,,,,,,,,,,,,,,,,,,,,,,,,,,,,,,,,,,,,,,,,,,,,,,,,3141,1,2025-09-18_14h33.56.945,sm,2024.2.4,60.01748909630444,2025-09-18 14h34.07.626329 +0200,
0,0,0,Rebe,Herbst,Trauben,Wein,3.9614,space,2.3345570999999836,None,None,2,1.8036540000002788,0.13187370000014198,None,0,0,0,0,0,79,79,78,0,0,0,0,0,79,79,76,0,0,0,0,189.2546213000005,,,,,,,,,,,,,,,,,,,,,,,,,,,,,,128.80918400000064,128.81001730000025,128.88515290000032,128.88543190000019,128.8899489000005,128.89026400000057,128.92195660000016,128.92215750000014,128.928672,128.93267640000067,128.93267640000067,131.27654690000054,space,2.3345570999999836,None,131.27670219999982,131.29171760000008,131.29171760000008,177.22339199999988,None,177.23221680000006,177.24087289999989,177.2388544666667,178.44667160000063,187.23822196666723,188.24671470000067,189.23837270000058,Hai,3.9614,189.23983970000063,189.24052829999982,189.24410890000036,189.2546213000005,193.2217055000001,193.2054880000005,193.21170950000032,193.2217055000001,193.2217055000001,193.2217055000001,193.2217055000001,195.22110239999984,195.22110239999984,195.22110239999984,195.22110239999984,195.20542999999998,2,1.8036540000002788,0.13187370000014198,None,,,,,,,,,,,,,,,,,,,,,,3141,1,2025-09-18_14h33.56.945,sm,2024.2.4,60.01748909630444,2025-09-18 14h34.07.626329 +0200,
1,0,1,,,,,,space,2.3345570999999836,None,None,3,1.4783121999998912,0.18558910000047035,None,0,0,0,0,,,,,0,0,0,0,,,,,1,0,1,0,195.22110239999984,,,,,,,,,,,,,,,,,,,,,,,,,,,,,,,,,,,,,,,,,,,,,,,,,,,,,,,,,Hügel,2.1741,195.20595180000055,195.20659440000054,195.20670020000034,195.22110239999984,197.40414670000064,197.3887080000004,197.3938502000001,197.40414670000064,197.40414670000064,197.40414670000064,197.40414670000064,199.4041526000001,199.4041526000001,199.4041526000001,199.4041526000001,199.3886121000005,3,1.4783121999998912,0.18558910000047035,None,,,,,,,,,,,,,,,,,,,,,,3141,1,2025-09-18_14h33.56.945,sm,2024.2.4,60.01748909630444,2025-09-18 14h34.07.626329 +0200,
2,0,2,,,,,,space,2.3345570999999836,None,None,2,1.2122727999994822,0.11516949999986537,None,0,0,0,0,,,,,0,0,0,0,,,,,2,0,2,0,199.4041526000001,,,,,,,,,,,,,,,,,,,,,,,,,,,,,,,,,,,,,,,,,,,,,,,,,,,,,,,,,Agent,2.1702,199.3891196000004,199.38964620000024,199.3897519000002,199.4041526000001,201.58719100000053,201.57151909999993,201.5748854000003,201.58719100000053,201.58719100000053,201.58719100000053,201.58719100000053,203.58726680000018,203.58726680000018,203.58726680000018,203.58726680000018,203.5714895000001,2,1.2122727999994822,0.11516949999986537,None,,,,,,,,,,,,,,,,,,,,,,3141,1,2025-09-18_14h33.56.945,sm,2024.2.4,60.01748909630444,2025-09-18 14h34.07.626329 +0200,
3,0,3,,,,,,space,2.3345570999999836,None,None,None,,,None,0,0,0,0,,,,,0,0,0,0,,,,,3,0,3,0,203.58726680000018,,,,,,,,,,,,,,,,,,,,,,,,,,,,,,,,,,,,,,,,,,,,,,,,,,,,,,,,,Film,2.5314,203.57199649999984,203.57250569999997,203.57261110000036,203.58726680000018,206.12015530000008,206.10470429999987,206.10988520000046,206.12015530000008,206.12015530000008,206.12015530000008,206.12015530000008,208.1203116000006,208.1203116000006,208.1203116000006,208.1203116000006,208.1048983999999,None,,,None,,,,,,,,,,,,,,,,,,,,,,3141,1,2025-09-18_14h33.56.945,sm,2024.2.4,60.01748909630444,2025-09-18 14h34.07.626329 +0200,
4,0,4,,,,,,space,2.3345570999999836,None,None,3,1.1438153999997667,0.17359169999963342,None,0,0,0,0,,,,,0,0,0,0,,,,,4,0,4,0,208.1203116000006,,,,,,,,,,,,,,,,,,,,,,,,,,,,,,,,,,,,,,,,,,,,,,,,,,,,,,,,,Hammer,2.4505,208.10537160000058,208.10602319999998,208.10612870000023,208.1203116000006,210.5700913999999,210.5547800000004,210.55883379999977,210.5700913999999,210.5700913999999,210.5700913999999,210.5700913999999,212.57008620000033,212.57008620000033,212.57008620000033,212.57008620000033,212.55491900000015,3,1.1438153999997667,0.17359169999963342,None,,,,,,,,,,,,,,,,,,,,,,3141,1,2025-09-18_14h33.56.945,sm,2024.2.4,60.01748909630444,2025-09-18 14h34.07.626329 +0200,
5,0,5,,,,,,space,2.3345570999999836,None,None,3,0.9500158000000738,0.1545839000000342,None,0,0,0,0,,,,,0,0,0,0,,,,,5,0,5,0,212.57008620000033,,,,,,,,,,,,,,,,,,,,,,,,,,,,,,,,,,,,,,,,,,,,,,,,,,,,,,,,,Sitzgurt,2.5494,212.5554431999999,212.55595350000021,212.5560632000006,212.57008620000033,215.1200170000002,215.10443960000066,215.10862890000044,215.1200170000002,215.1200170000002,215.1200170000002,215.1200170000002,217.1197299000005,217.1197299000005,217.1197299000005,217.1197299000005,217.1043696000006,3,0.9500158000000738,0.1545839000000342,None,,,,,,,,,,,,,,,,,,,,,,3141,1,2025-09-18_14h33.56.945,sm,2024.2.4,60.01748909630444,2025-09-18 14h34.07.626329 +0200,
6,0,6,,,,,,space,2.3345570999999836,None,None,2,1.3594295000002603,0.13519439999981842,None,0,0,0,0,,,,,0,0,0,0,,,,,6,0,6,0,217.1197299000005,,,,,,,,,,,,,,,,,,,,,,,,,,,,,,,,,,,,,,,,,,,,,,,,,,,,,,,,,Schaf,3.3321,217.1048811999999,217.10538670000005,217.10549360000005,217.1197299000005,220.45297819999996,220.43744030000016,220.4416200000005,220.45297819999996,220.45297819999996,220.45297819999996,220.45297819999996,222.45284700000047,222.45284700000047,222.45284700000047,222.45284700000047,222.43730420000065,2,1.3594295000002603,0.13519439999981842,None,,,,,,,,,,,,,,,,,,,,,,3141,1,2025-09-18_14h33.56.945,sm,2024.2.4,60.01748909630444,2025-09-18 14h34.07.626329 +0200,
7,0,7,,,,,,space,2.3345570999999836,None,None,3,1.1378715999999258,0.1738789999999426,None,0,0,0,0,,,,,0,0,0,0,,,,,7,0,7,0,222.45284700000047,,,,,,,,,,,,,,,,,,,,,,,,,,,,,,,,,,,,,,,,,,,,,,,,,,,,,,,,,Dunkelheit,3.102,222.43781540000055,222.4383398,222.43844750000062,222.45284700000047,225.5692200000003,225.55386540000018,225.5593611000004,225.5692200000003,225.5692200000003,225.5692200000003,225.5692200000003,227.56914270000016,227.56914270000016,227.56914270000016,227.56914270000016,227.55405109999992,3,1.1378715999999258,0.1738789999999426,None,,,,,,,,,,,,,,,,,,,,,,3141,1,2025-09-18_14h33.56.945,sm,2024.2.4,60.01748909630444,2025-09-18 14h34.07.626329 +0200,
8,0,8,,,,,,space,2.3345570999999836,None,None,3,0.922293499999796,0.16259700000045996,None,0,0,0,0,,,,,0,0,0,0,,,,,8,0,8,0,227.56914270000016,,,,,,,,,,,,,,,,,,,,,,,,,,,,,,,,,,,,,,,,,,,,,,,,,,,,,,,,,Schwarz,3.6249,227.5545701000001,227.55508540000028,227.5551918000001,227.56914270000016,231.20238010000048,231.18682100000024,231.19096160000026,231.20238010000048,231.20238010000048,231.20238010000048,231.20238010000048,233.2022004999999,233.2022004999999,233.2022004999999,233.2022004999999,233.18661090000023,3,0.922293499999796,0.16259700000045996,None,,,,,,,,,,,,,,,,,,,,,,3141,1,2025-09-18_14h33.56.945,sm,2024.2.4,60.01748909630444,2025-09-18 14h34.07.626329 +0200,
9,0,9,,,,,,space,2.3345570999999836,None,None,3,1.5103539000001547,0.19645579999996698,None,0,0,0,0,,,,,0,0,0,0,,,,,9,0,9,0,233.2022004999999,,,,,,,,,,,,,,,,,,,,,,,,,,,,,,,,,,,,,,,,,,,,,,,,,,,,,,,,,Sterne,2.62,233.18710740000006,233.18774519999988,233.1878526999999,233.2022004999999,235.8353361999998,235.8198465000005,235.82390130000022,235.8353361999998,235.8353361999998,235.8353361999998,235.8353361999998,237.83567350000067,237.83567350000067,237.83567350000067,237.83567350000067,237.81983970000056,3,1.5103539000001547,0.19645579999996698,None,,,,,,,,,,,,,,,,,,,,,,3141,1,2025-09-18_14h33.56.945,sm,2024.2.4,60.01748909630444,2025-09-18 14h34.07.626329 +0200,
10,0,10,,,,,,space,2.3345570999999836,None,None,2,1.6729069999992134,0.14418790000036097,None,0,0,0,0,,,,,0,0,0,0,,,,,10,0,10,0,237.83567350000067,,,,,,,,,,,,,,,,,,,,,,,,,,,,,,,,,,,,,,,,,,,,,,,,,,,,,,,,,Tanne,2.5142,237.82035460000043,237.82086419999996,237.82097410000006,237.83567350000067,240.35199150000062,240.33628970000063,240.34037810000063,240.35199150000062,240.35199150000062,240.35199150000062,240.35199150000062,242.35173699999996,242.35173699999996,242.35173699999996,242.35173699999996,242.33611250000013,2,1.6729069999992134,0.14418790000036097,None,,,,,,,,,,,,,,,,,,,,,,3141,1,2025-09-18_14h33.56.945,sm,2024.2.4,60.01748909630444,2025-09-18 14h34.07.626329 +0200,
11,0,11,,,,,,space,2.3345570999999836,None,None,3,0.8306629999997313,0.1761341999999786,None,0,0,0,0,,,,,0,0,0,0,,,,,11,0,11,0,242.35173699999996,,,,,,,,,,,,,,,,,,,,,,,,,,,,,,,,,,,,,,,,,,,,,,,,,,,,,,,,,Stein,2.0629,242.33662960000038,242.33721590000005,242.33732680000048,242.35173699999996,244.41800700000022,244.40215650000027,244.40553929999987,244.41800700000022,244.41800700000022,244.41800700000022,244.41800700000022,246.41810669999995,246.41810669999995,246.41810669999995,246.41810669999995,246.40287010000065,3,0.8306629999997313,0.1761341999999786,None,,,,,,,,,,,,,,,,,,,,,,3141,1,2025-09-18_14h33.56.945,sm,2024.2.4,60.01748909630444,2025-09-18 14h34.07.626329 +0200,
12,0,12,,,,,,space,2.3345570999999836,None,None,3,0.7918724000001021,0.20544340000014927,None,0,0,0,0,,,,,0,0,0,0,,,,,12,0,12,0,246.41810669999995,,,,,,,,,,,,,,,,,,,,,,,,,,,,,,,,,,,,,,,,,,,,,,,,,,,,,,,,,Medaille,3.0719,246.4034032999998,246.40407620000042,246.40418910000062,246.41810669999995,249.50207190000037,249.4855376000005,249.4892991000006,249.50207190000037,249.50207190000037,249.50207190000037,249.50207190000037,251.50122980000015,251.50122980000015,251.50122980000015,251.50122980000015,251.48550720000003,3,0.7918724000001021,0.20544340000014927,None,,,,,,,,,,,,,,,,,,,,,,3141,1,2025-09-18_14h33.56.945,sm,2024.2.4,60.01748909630444,2025-09-18 14h34.07.626329 +0200,
13,0,13,,,,,,space,2.3345570999999836,None,None,3,1.1860593999999764,0.17196049999984098,None,0,0,0,0,,,,,0,0,0,0,,,,,13,0,13,0,251.50122980000015,,,,,,,,,,,,,,,,,,,,,,,,,,,,,,,,,,,,,,,,,,,,,,,,,,,,,,,,,Lava,3.9591,251.4859961000002,251.48656840000058,251.48667579999983,251.50122980000015,255.4674888999998,255.45170890000009,255.45468690000052,255.4674888999998,255.4674888999998,255.4674888999998,255.4674888999998,257.4676218000004,257.4676218000004,257.4676218000004,257.4676218000004,257.45188700000017,3,1.1860593999999764,0.17196049999984098,None,,,,,,,,,,,,,,,,,,,,,,3141,1,2025-09-18_14h33.56.945,sm,2024.2.4,60.01748909630444,2025-09-18 14h34.07.626329 +0200,
14,0,14,,,,,,space,2.3345570999999836,None,None,2,1.089964400000099,0.13668150000012247,None,0,0,0,0,,,,,0,0,0,0,,,,,14,0,14,0,257.4676218000004,,,,,,,,,,,,,,,,,,,,,,,,,,,,,,,,,,,,,,,,,,,,,,,,,,,,,,,,,Familie,2.5632,257.45239800000036,257.4530177000006,257.4531340000003,257.4676218000004,260.03389980000065,260.01789740000004,260.0219465,260.03389980000065,260.03389980000065,260.03389980000065,260.03389980000065,262.03371890000017,262.03371890000017,262.03371890000017,262.03371890000017,262.0180535999998,2,1.089964400000099,0.13668150000012247,None,,,,,,,,,,,,,,,,,,,,,,3141,1,2025-09-18_14h33.56.945,sm,2024.2.4,60.01748909630444,2025-09-18 14h34.07.626329 +0200,
15,0,15,,,,,,space,2.3345570999999836,None,None,3,1.3472672999996576,0.21127919999980804,None,0,0,0,0,,,,,0,0,0,0,,,,,15,0,15,0,262.03371890000017,,,,,,,,,,,,,,,,,,,,,,,,,,,,,,,,,,,,,,,,,,,,,,,,,,,,,,,,,Service,3.1826,262.0185271999999,262.0194095000006,262.0195875999998,262.03371890000017,265.2169144999998,265.2012153000005,265.2050127000002,265.2169144999998,265.2169144999998,265.2169144999998,265.2169144999998,267.21713160000036,267.21713160000036,267.21713160000036,267.21713160000036,267.2012822000006,3,1.3472672999996576,0.21127919999980804,None,,,,,,,,,,,,,,,,,,,,,,3141,1,2025-09-18_14h33.56.945,sm,2024.2.4,60.01748909630444,2025-09-18 14h34.07.626329 +0200,
16,0,16,,,,,,space,2.3345570999999836,None,None,3,1.3694336999997176,0.15594880000026023,None,0,0,0,0,,,,,0,0,0,0,,,,,16,0,16,0,267.21713160000036,,,,,,,,,,,,,,,,,,,,,,,,,,,,,,,,,,,,,,,,,,,,,,,,,,,,,,,,,Schuh,3.0938,267.2017654000001,267.2022678000003,267.2023686000002,267.21713160000036,270.3166019,270.30096800000047,270.30457470000056,270.3166019,270.3166019,270.3166019,270.3166019,272.3164563999999,272.3164563999999,272.3164563999999,272.3164563999999,272.3011395000003,3,1.3694336999997176,0.15594880000026023,None,,,,,,,,,,,,,,,,,,,,,,3141,1,2025-09-18_14h33.56.945,sm,2024.2.4,60.01748909630444,2025-09-18 14h34.07.626329 +0200,
17,0,17,,,,,,space,2.3345570999999836,None,None,None,,,None,0,0,0,0,,,,,0,0,0,0,,,,,17,0,17,0,272.3164563999999,,,,,,,,,,,,,,,,,,,,,,,,,,,,,,,,,,,,,,,,,,,,,,,,,,,,,,,,,Frieden,5.5483,272.3016397000001,272.3022256000004,272.3023348000006,272.3164563999999,277.8660982000001,277.8504182000006,277.85395340000014,277.8660982000001,277.8660982000001,277.8660982000001,277.8660982000001,279.86635490000026,279.86635490000026,279.86635490000026,279.86635490000026,279.8508489000005,None,,,None,,,,,,,,,,,,,,,,,,,,,,3141,1,2025-09-18_14h33.56.945,sm,2024.2.4,60.01748909630444,2025-09-18 14h34.07.626329 +0200,
18,0,18,,,,,,space,2.3345570999999836,None,None,3,1.369746700000178,0.19847269999991113,None,0,0,0,0,,,,,0,0,0,0,,,,,18,0,18,0,279.86635490000026,,,,,,,,,,,,,,,,,,,,,,,,,,,,,,,,,,,,,,,,,,,,,,,,,,,,,,,,,Lied,2.4732,279.85136200000034,279.85203340000044,279.8521494000006,279.86635490000026,282.34911980000015,282.3336108000003,282.3367871999999,282.34911980000015,282.34911980000015,282.34911980000015,282.34911980000015,284.34916430000067,284.34916430000067,284.34916430000067,284.34916430000067,284.3336398000001,3,1.369746700000178,0.19847269999991113,None,,,,,,,,,,,,,,,,,,,,,,3141,1,2025-09-18_14h33.56.945,sm,2024.2.4,60.01748909630444,2025-09-18 14h34.07.626329 +0200,
19,0,19,,,,,,space,2.3345570999999836,None,None,2,1.2377348999998503,0.14892460000010033,None,0,0,0,0,,,,,0,0,0,0,,,,,19,0,19,0,284.34916430000067,,,,,,,,,,,,,,,,,,,,,,,,,,,,,,,,,,,,,,,,,,,,,,,,,,,,,,,,,Publikum,2.3085,284.3341878000001,284.33485139999993,284.3349562000003,284.34916430000067,286.6657599,286.65003010000055,286.6564113000004,286.6657599,286.6657599,286.6657599,286.6657599,288.6658752000003,288.6658752000003,288.6658752000003,288.6658752000003,288.64981160000025,2,1.2377348999998503,0.14892460000010033,None,,,,,,,,,,,,,,,,,,,,,,3141,1,2025-09-18_14h33.56.945,sm,2024.2.4,60.01748909630444,2025-09-18 14h34.07.626329 +0200,
20,0,20,,,,,,space,2.3345570999999836,None,None,3,0.8457349999998769,0.22495590000016819,None,0,0,0,0,,,,,0,0,0,0,,,,,20,0,20,0,288.6658752000003,,,,,,,,,,,,,,,,,,,,,,,,,,,,,,,,,,,,,,,,,,,,,,,,,,,,,,,,,Sack,2.2306,288.65024690000064,288.6507184000002,288.6508082999999,288.6658752000003,290.8987304000002,290.88307710000026,290.88753129999986,290.8987304000002,290.8987304000002,290.8987304000002,290.8987304000002,292.8986824000003,292.8986824000003,292.8986824000003,292.8986824000003,292.8832001999999,3,0.8457349999998769,0.22495590000016819,None,,,,,,,,,,,,,,,,,,,,,,3141,1,2025-09-18_14h33.56.945,sm,2024.2.4,60.01748909630444,2025-09-18 14h34.07.626329 +0200,
21,0,21,,,,,,space,2.3345570999999836,None,None,3,1.3298256999996738,0.19008120000034978,None,0,0,0,0,,,,,0,0,0,0,,,,,21,0,21,0,292.8986824000003,,,,,,,,,,,,,,,,,,,,,,,,,,,,,,,,,,,,,,,,,,,,,,,,,,,,,,,,,Lokomotive,2.7465,292.8837432999999,292.88425559999996,292.8843606999999,292.8986824000003,295.6494233000003,295.6329893000002,295.6373671000001,295.6494233000003,295.6494233000003,295.6494233000003,295.6494233000003,297.64849289999984,297.64849289999984,297.64849289999984,297.64849289999984,297.63289050000003,3,1.3298256999996738,0.19008120000034978,None,,,,,,,,,,,,,,,,,,,,,,3141,1,2025-09-18_14h33.56.945,sm,2024.2.4,60.01748909630444,2025-09-18 14h34.07.626329 +0200,
22,0,22,,,,,,space,2.3345570999999836,None,None,3,1.0459278000007544,0.17413619999933871,None,0,0,0,0,,,,,0,0,0,0,,,,,22,0,22,0,297.64849289999984,,,,,,,,,,,,,,,,,,,,,,,,,,,,,,,,,,,,,,,,,,,,,,,,,,,,,,,,,Nebel,4.1805,297.63339710000037,297.6340041000003,297.63410999999996,297.64849289999984,301.83141220000016,301.815928,301.8200002000003,301.83141220000016,301.83141220000016,301.83141220000016,301.83141220000016,303.83141539999997,303.83141539999997,303.83141539999997,303.83141539999997,303.81593040000007,3,1.0459278000007544,0.17413619999933871,None,,,,,,,,,,,,,,,,,,,,,,3141,1,2025-09-18_14h33.56.945,sm,2024.2.4,60.01748909630444,2025-09-18 14h34.07.626329 +0200,
23,0,23,,,,,,space,2.3345570999999836,None,None,3,1.091383599999972,0.1873252000004868,None,0,0,0,0,,,,,0,0,0,0,,,,,23,0,23,0,303.83141539999997,,,,,,,,,,,,,,,,,,,,,,,,,,,,,,,,,,,,,,,,,,,,,,,,,,,,,,,,,Kante,3.5845,303.81644010000036,303.8171017000004,303.81720920000043,303.83141539999997,307.43118700000014,307.4153178000006,307.4208342000002,307.43118700000014,307.43118700000014,307.43118700000014,307.43118700000014,309.43133730000045,309.43133730000045,309.43133730000045,309.43133730000045,309.4155257000002,3,1.091383599999972,0.1873252000004868,None,,,,,,,,,,,,,,,,,,,,,,3141,1,2025-09-18_14h33.56.945,sm,2024.2.4,60.01748909630444,2025-09-18 14h34.07.626329 +0200,
24,0,24,,,,,,space,2.3345570999999836,None,None,3,1.0150532999996358,0.24449470000035944,None,0,0,0,0,,,,,0,0,0,0,,,,,24,0,24,0,309.43133730000045,,,,,,,,,,,,,,,,,,,,,,,,,,,,,,,,,,,,,,,,,,,,,,,,,,,,,,,,,Blut,3.8189,309.41602760000023,309.41667550000057,309.41677919999984,309.43133730000045,313.2640183000003,313.24889429999985,313.2522818000007,313.2640183000003,313.2640183000003,313.2640183000003,313.2640183000003,315.2643456000005,315.2643456000005,315.2643456000005,315.2643456000005,315.2489604000002,3,1.0150532999996358,0.24449470000035944,None,,,,,,,,,,,,,,,,,,,,,,3141,1,2025-09-18_14h33.56.945,sm,2024.2.4,60.01748909630444,2025-09-18 14h34.07.626329 +0200,
25,0,25,,,,,,space,2.3345570999999836,None,None,3,1.2204714999998032,0.13222469999982422,None,0,0,0,0,,,,,0,0,0,0,,,,,25,0,25,0,315.2643456000005,,,,,,,,,,,,,,,,,,,,,,,,,,,,,,,,,,,,,,,,,,,,,,,,,,,,,,,,,Trauben,2.0507,315.2494754999998,315.2500020000007,315.2501093000001,315.2643456000005,317.31385950000004,317.29845730000034,317.30213319999984,317.31385950000004,317.31385950000004,317.31385950000004,317.31385950000004,319.3140149999999,319.3140149999999,319.3140149999999,319.3140149999999,319.29856440000003,3,1.2204714999998032,0.13222469999982422,None,,,,,,,,,,,,,,,,,,,,,,3141,1,2025-09-18_14h33.56.945,sm,2024.2.4,60.01748909630444,2025-09-18 14h34.07.626329 +0200,
26,0,26,,,,,,space,2.3345570999999836,None,None,3,0.8157791000003272,0.1487888000001476,None,0,0,0,0,,,,,0,0,0,0,,,,,26,0,26,0,319.3140149999999,,,,,,,,,,,,,,,,,,,,,,,,,,,,,,,,,,,,,,,,,,,,,,,,,,,,,,,,,Bücher,2.3949,319.2990971999998,319.2999335000004,319.30004700000063,319.3140149999999,321.7135966000005,321.6978917000006,321.7027108000002,321.7135966000005,321.7135966000005,321.7135966000005,321.7135966000005,323.71372539999993,323.71372539999993,323.71372539999993,323.71372539999993,323.69804999999997,3,0.8157791000003272,0.1487888000001476,None,,,,,,,,,,,,,,,,,,,,,,3141,1,2025-09-18_14h33.56.945,sm,2024.2.4,60.01748909630444,2025-09-18 14h34.07.626329 +0200,
27,0,27,,,,,,space,2.3345570999999836,None,None,3,1.0283954000005906,0.16463589999966644,None,0,0,0,0,,,,,0,0,0,0,,,,,27,0,27,0,323.71372539999993,,,,,,,,,,,,,,,,,,,,,,,,,,,,,,,,,,,,,,,,,,,,,,,,,,,,,,,,,Scheidung,3.1408,323.6985633000004,323.69907690000036,323.69918490000055,323.71372539999993,326.8633069000007,326.8479698000001,326.85241420000057,326.8633069000007,326.8633069000007,326.8633069000007,326.8633069000007,328.8635946000004,328.8635946000004,328.8635946000004,328.8635946000004,328.84764450000057,3,1.0283954000005906,0.16463589999966644,None,,,,,,,,,,,,,,,,,,,,,,3141,1,2025-09-18_14h33.56.945,sm,2024.2.4,60.01748909630444,2025-09-18 14h34.07.626329 +0200,
28,0,28,,,,,,space,2.3345570999999836,None,None,3,1.070482300000549,0.17032529999960389,None,0,0,0,0,,,,,0,0,0,0,,,,,28,0,28,0,328.8635946000004,,,,,,,,,,,,,,,,,,,,,,,,,,,,,,,,,,,,,,,,,,,,,,,,,,,,,,,,,Postkarte,4.4444,328.84815680000065,328.8488060999998,328.84891190000053,328.8635946000004,333.31288740000036,333.2973084000005,333.3012626999998,333.31288740000036,333.31288740000036,333.31288740000036,333.31288740000036,335.31293259999984,335.31293259999984,335.31293259999984,335.31293259999984,335.2974027,3,1.070482300000549,0.17032529999960389,None,,,,,,,,,,,,,,,,,,,,,,3141,1,2025-09-18_14h33.56.945,sm,2024.2.4,60.01748909630444,2025-09-18 14h34.07.626329 +0200,
29,0,29,,,,,,space,2.3345570999999836,None,None,3,1.0561192000004667,0.1170150999996622,None,0,0,0,0,,,,,0,0,0,0,,,,,29,0,29,0,335.31293259999984,,,,,,,,,,,,,,,,,,,,,,,,,,,,,,,,,,,,,,,,,,,,,,,,,,,,,,,,,Schulter,2.928,335.2979071,335.2985534999998,335.29866070000026,335.31293259999984,338.2459681,338.23058649999984,338.2347255000004,338.2459681,338.2459681,338.2459681,338.2459681,340.2458677000004,340.2458677000004,340.2458677000004,340.2458677000004,340.23031640000045,3,1.0561192000004667,0.1170150999996622,None,,,,,,,,,,,,,,,,,,,,,,3141,1,2025-09-18_14h33.56.945,sm,2024.2.4,60.01748909630444,2025-09-18 14h34.07.626329 +0200,
30,0,30,,,,,,space,2.3345570999999836,None,None,2,1.0812441999996736,0.16759430000001885,None,0,0,0,0,,,,,0,0,0,0,,,,,30,0,30,0,340.2458677000004,,,,,,,,,,,,,,,,,,,,,,,,,,,,,,,,,,,,,,,,,,,,,,,,,,,,,,,,,Löwe,3.575,340.23076180000044,340.23125020000043,340.23134410000057,340.2458677000004,343.8289117000004,343.8132757000003,343.8169447999999,343.8289117000004,343.8289117000004,343.8289117000004,343.8289117000004,345.8290093000005,345.8290093000005,345.8290093000005,345.8290093000005,345.8134555000006,2,1.0812441999996736,0.16759430000001885,None,,,,,,,,,,,,,,,,,,,,,,3141,1,2025-09-18_14h33.56.945,sm,2024.2.4,60.01748909630444,2025-09-18 14h34.07.626329 +0200,
31,0,31,,,,,,space,2.3345570999999836,None,None,2,1.4549888000001374,0.16428280000036466,None,0,0,0,0,,,,,0,0,0,0,,,,,31,0,31,0,345.8290093000005,,,,,,,,,,,,,,,,,,,,,,,,,,,,,,,,,,,,,,,,,,,,,,,,,,,,,,,,,Koch,2.0485,345.81395299999986,345.8144680000005,345.8145738000003,345.8290093000005,347.8788312000006,347.8630584000002,347.8660434000003,347.8788312000006,347.8788312000006,347.8788312000006,347.8788312000006,349.87868960000014,349.87868960000014,349.87868960000014,349.87868960000014,349.86318910000045,2,1.4549888000001374,0.16428280000036466,None,,,,,,,,,,,,,,,,,,,,,,3141,1,2025-09-18_14h33.56.945,sm,2024.2.4,60.01748909630444,2025-09-18 14h34.07.626329 +0200,
32,0,32,,,,,,space,2.3345570999999836,None,None,3,1.1321657999997115,0.2831365000001824,None,0,0,0,0,,,,,0,0,0,0,,,,,32,0,32,0,349.87868960000014,,,,,,,,,,,,,,,,,,,,,,,,,,,,,,,,,,,,,,,,,,,,,,,,,,,,,,,,,Fliegen,3.2951,349.86369379999996,349.86420590000034,349.8643135000002,349.87868960000014,353.1783991000002,353.1630581999998,353.1672054999999,353.1783991000002,353.1783991000002,353.1783991000002,353.1783991000002,355.17819360000067,355.17819360000067,355.17819360000067,355.17819360000067,355.1629909000003,3,1.1321657999997115,0.2831365000001824,None,,,,,,,,,,,,,,,,,,,,,,3141,1,2025-09-18_14h33.56.945,sm,2024.2.4,60.01748909630444,2025-09-18 14h34.07.626329 +0200,
33,0,33,,,,,,space,2.3345570999999836,None,None,3,0.959255600000688,0.1495995999994193,None,0,0,0,0,,,,,0,0,0,0,,,,,33,0,33,0,355.17819360000067,,,,,,,,,,,,,,,,,,,,,,,,,,,,,,,,,,,,,,,,,,,,,,,,,,,,,,,,,Kamera,4.7082,355.1634472000005,355.16402220000055,355.16412149999996,355.17819360000067,359.89511949999996,359.8790981000002,359.8838510000005,359.89511949999996,359.89511949999996,359.89511949999996,359.89511949999996,361.8948693000002,361.8948693000002,361.8948693000002,361.8948693000002,361.8792701000002,3,0.959255600000688,0.1495995999994193,None,,,,,,,,,,,,,,,,,,,,,,3141,1,2025-09-18_14h33.56.945,sm,2024.2.4,60.01748909630444,2025-09-18 14h34.07.626329 +0200,
34,0,34,,,,,,space,2.3345570999999836,None,None,3,0.9747010999999475,0.17238580000048387,None,0,0,0,0,,,,,0,0,0,0,,,,,34,0,34,0,361.8948693000002,,,,,,,,,,,,,,,,,,,,,,,,,,,,,,,,,,,,,,,,,,,,,,,,,,,,,,,,,Glück,2.7809,361.87977730000057,361.88028639999993,361.88039200000003,361.8948693000002,364.6774985000002,364.66206950000014,364.66569250000066,364.6774985000002,364.6774985000002,364.6774985000002,364.6774985000002,366.67764780000016,366.67764780000016,366.67764780000016,366.67764780000016,366.66218650000064,3,0.9747010999999475,0.17238580000048387,None,,,,,,,,,,,,,,,,,,,,,,3141,1,2025-09-18_14h33.56.945,sm,2024.2.4,60.01748909630444,2025-09-18 14h34.07.626329 +0200,
35,0,35,,,,,,space,2.3345570999999836,None,None,3,1.2595479000001433,0.18609120000019175,None,0,0,0,0,,,,,0,0,0,0,,,,,35,0,35,0,366.67764780000016,,,,,,,,,,,,,,,,,,,,,,,,,,,,,,,,,,,,,,,,,,,,,,,,,,,,,,,,,Fahrrad,2.1899,366.6626952000006,366.6632017000002,366.6633126000006,366.67764780000016,368.8782719999999,368.86233770000035,368.86643809999987,368.8782719999999,368.8782719999999,368.8782719999999,368.8782719999999,370.8776852000001,370.8776852000001,370.8776852000001,370.8776852000001,370.8618666000002,3,1.2595479000001433,0.18609120000019175,None,,,,,,,,,,,,,,,,,,,,,,3141,1,2025-09-18_14h33.56.945,sm,2024.2.4,60.01748909630444,2025-09-18 14h34.07.626329 +0200,
36,0,36,,,,,,space,2.3345570999999836,None,None,3,1.1190112000003865,0.17056510000020353,None,0,0,0,0,,,,,0,0,0,0,,,,,36,0,36,0,370.8776852000001,,,,,,,,,,,,,,,,,,,,,,,,,,,,,,,,,,,,,,,,,,,,,,,,,,,,,,,,,Platz,3.9843,370.86237710000023,370.8630296000001,370.8631365000001,370.8776852000001,374.87735880000037,374.8615759000004,374.86551039999995,374.87735880000037,374.87735880000037,374.87735880000037,374.87735880000037,376.8772626,376.8772626,376.8772626,376.8772626,376.8617347999998,3,1.1190112000003865,0.17056510000020353,None,,,,,,,,,,,,,,,,,,,,,,3141,1,2025-09-18_14h33.56.945,sm,2024.2.4,60.01748909630444,2025-09-18 14h34.07.626329 +0200,
37,0,37,,,,,,space,2.3345570999999836,None,None,3,1.0069045999998707,0.15065400000003137,None,0,0,0,0,,,,,0,0,0,0,,,,,37,0,37,0,376.8772626,,,,,,,,,,,,,,,,,,,,,,,,,,,,,,,,,,,,,,,,,,,,,,,,,,,,,,,,,Hose,2.1554,376.8622366999998,376.86289470000065,376.86300370000026,376.8772626,379.0434670000004,379.0282704000001,379.03198410000005,379.0434670000004,379.0434670000004,379.0434670000004,379.0434670000004,381.04354800000056,381.04354800000056,381.04354800000056,381.04354800000056,381.0279807000006,3,1.0069045999998707,0.15065400000003137,None,,,,,,,,,,,,,,,,,,,,,,3141,1,2025-09-18_14h33.56.945,sm,2024.2.4,60.01748909630444,2025-09-18 14h34.07.626329 +0200,
38,0,38,,,,,,space,2.3345570999999836,None,None,3,1.0161356999997224,0.16877819999990606,None,0,0,0,0,,,,,0,0,0,0,,,,,38,0,38,0,381.04354800000056,,,,,,,,,,,,,,,,,,,,,,,,,,,,,,,,,,,,,,,,,,,,,,,,,,,,,,,,,Radio,4.1781,381.0284876000005,381.0291476000002,381.0292580000005,381.04354800000056,385.22655510000004,385.2111296000003,385.21524190000036,385.22655510000004,385.22655510000004,385.22655510000004,385.22655510000004,387.22655470000063,387.22655470000063,387.22655470000063,387.22655470000063,387.2109943000005,3,1.0161356999997224,0.16877819999990606,None,,,,,,,,,,,,,,,,,,,,,,3141,1,2025-09-18_14h33.56.945,sm,2024.2.4,60.01748909630444,2025-09-18 14h34.07.626329 +0200,
39,0,39,,,,,,space,2.3345570999999836,None,None,3,1.219243099999403,0.22479120000025432,None,0,0,0,0,,,,,0,0,0,0,,,,,39,0,39,0,387.22655470000063,,,,,,,,,,,,,,,,,,,,,,,,,,,,,,,,,,,,,,,,,,,,,,,,,,,,,,,,,Universität,5.9447,387.21149610000066,387.2119935999999,387.2120967999999,387.22655470000063,393.1761213,393.1607195000006,393.1682528000001,393.1761213,393.1761213,393.1761213,393.1761213,395.17623920000005,395.17623920000005,395.17623920000005,395.17623920000005,395.1607244000006,3,1.219243099999403,0.22479120000025432,None,,,,,,,,,,,,,,,,,,,,,,3141,1,2025-09-18_14h33.56.945,sm,2024.2.4,60.01748909630444,2025-09-18 14h34.07.626329 +0200,
40,0,40,,,,,,space,2.3345570999999836,None,None,3,1.6542716000003566,0.18410859999949025,None,0,0,0,0,,,,,0,0,0,0,,,,,40,0,40,0,395.17623920000005,,,,,,,,,,,,,,,,,,,,,,,,,,,,,,,,,,,,,,,,,,,,,,,,,,,,,,,,,Mäher,2.0075,395.1612300000006,395.1617433000001,395.1618527999999,395.17623920000005,397.19221689999995,397.1766015000003,397.17950550000023,397.19221689999995,397.19221689999995,397.19221689999995,397.19221689999995,399.19291410000005,399.19291410000005,399.19291410000005,399.19291410000005,399.1771253000006,3,1.6542716000003566,0.18410859999949025,None,,,,,,,,,,,,,,,,,,,,,,3141,1,2025-09-18_14h33.56.945,sm,2024.2.4,60.01748909630444,2025-09-18 14h34.07.626329 +0200,
41,0,41,,,,,,space,2.3345570999999836,None,None,3,0.7303921000002447,0.17567109999981767,None,0,0,0,0,,,,,0,0,0,0,,,,,41,0,41,0,399.19291410000005,,,,,,,,,,,,,,,,,,,,,,,,,,,,,,,,,,,,,,,,,,,,,,,,,,,,,,,,,Schlamm,2.0054,399.1776346000006,399.1781461999999,399.1782516000003,399.19291410000005,401.20901500000036,401.19325449999997,401.19650439999987,401.20901500000036,401.20901500000036,401.20901500000036,401.20901500000036,403.2090668999999,403.2090668999999,403.2090668999999,403.2090668999999,403.1935013000002,3,0.7303921000002447,0.17567109999981767,None,,,,,,,,,,,,,,,,,,,,,,3141,1,2025-09-18_14h33.56.945,sm,2024.2.4,60.01748909630444,2025-09-18 14h34.07.626329 +0200,
42,0,42,,,,,,space,2.3345570999999836,None,None,3,1.5043584000004557,0.15466560000004392,None,0,0,0,0,,,,,0,0,0,0,,,,,42,0,42,0,403.2090668999999,,,,,,,,,,,,,,,,,,,,,,,,,,,,,,,,,,,,,,,,,,,,,,,,,,,,,,,,,Rot,2.0138,403.19404980000036,403.19457220000004,403.19468060000054,403.2090668999999,405.2255062000004,405.2098068000005,405.2128293000005,405.2255062000004,405.2255062000004,405.2255062000004,405.2255062000004,407.2253007999998,407.2253007999998,407.2253007999998,407.2253007999998,407.2098259000004,3,1.5043584000004557,0.15466560000004392,None,,,,,,,,,,,,,,,,,,,,,,3141,1,2025-09-18_14h33.56.945,sm,2024.2.4,60.01748909630444,2025-09-18 14h34.07.626329 +0200,
43,0,43,,,,,,space,2.3345570999999836,None,None,2,1.1377925999995568,0.16517490000023827,None,0,0,0,0,,,,,0,0,0,0,,,,,43,0,43,0,407.2253007999998,,,,,,,,,,,,,,,,,,,,,,,,,,,,,,,,,,,,,,,,,,,,,,,,,,,,,,,,,Autorin,3.2772,407.2103345000005,407.21083499999986,407.2109410000003,407.2253007999998,410.5084099000005,410.49292849999983,410.4969898999998,410.5084099000005,410.5084099000005,410.5084099000005,410.5084099000005,412.50830510000014,412.50830510000014,412.50830510000014,412.50830510000014,412.4928318000002,2,1.1377925999995568,0.16517490000023827,None,,,,,,,,,,,,,,,,,,,,,,3141,1,2025-09-18_14h33.56.945,sm,2024.2.4,60.01748909630444,2025-09-18 14h34.07.626329 +0200,
44,0,44,,,,,,space,2.3345570999999836,None,None,3,0.8674915999999939,0.22761520000040036,None,0,0,0,0,,,,,0,0,0,0,,,,,44,0,44,0,412.50830510000014,,,,,,,,,,,,,,,,,,,,,,,,,,,,,,,,,,,,,,,,,,,,,,,,,,,,,,,,,Bürste,2.4552,412.49330310000005,412.4937789000005,412.49387079999997,412.50830510000014,414.9749341000006,414.95914059999996,414.96335069999986,414.9749341000006,414.9749341000006,414.9749341000006,414.9749341000006,416.9750731000004,416.9750731000004,416.9750731000004,416.9750731000004,416.9593691,3,0.8674915999999939,0.22761520000040036,None,,,,,,,,,,,,,,,,,,,,,,3141,1,2025-09-18_14h33.56.945,sm,2024.2.4,60.01748909630444,2025-09-18 14h34.07.626329 +0200,
45,0,45,,,,,,space,2.3345570999999836,None,None,3,1.224356099999568,0.1801581999998234,None,0,0,0,0,,,,,0,0,0,0,,,,,45,0,45,0,416.9750731000004,,,,,,,,,,,,,,,,,,,,,,,,,,,,,,,,,,,,,,,,,,,,,,,,,,,,,,,,,Knöchel,2.2922,416.95988110000053,416.9604018,416.9605056999999,416.9750731000004,419.2747137000006,419.2592351000003,419.2632426,419.2747137000006,419.2747137000006,419.2747137000006,419.2747137000006,421.27458360000037,421.27458360000037,421.27458360000037,421.27458360000037,421.25903130000006,3,1.224356099999568,0.1801581999998234,None,,,,,,,,,,,,,,,,,,,,,,3141,1,2025-09-18_14h33.56.945,sm,2024.2.4,60.01748909630444,2025-09-18 14h34.07.626329 +0200,
46,0,46,,,,,,space,2.3345570999999836,None,None,3,0.8908117999999376,0.19044860000030894,None,0,0,0,0,,,,,0,0,0,0,,,,,46,0,46,0,421.27458360000037,,,,,,,,,,,,,,,,,,,,,,,,,,,,,,,,,,,,,,,,,,,,,,,,,,,,,,,,,Rolle,2.6982,421.25954340000044,421.2601973999999,421.2603048000001,421.27458360000037,423.97436370000014,423.95873200000005,423.96283029999995,423.97436370000014,423.97436370000014,423.97436370000014,423.97436370000014,425.9744077000005,425.9744077000005,425.9744077000005,425.9744077000005,425.9591082000006,3,0.8908117999999376,0.19044860000030894,None,,,,,,,,,,,,,,,,,,,,,,3141,1,2025-09-18_14h33.56.945,sm,2024.2.4,60.01748909630444,2025-09-18 14h34.07.626329 +0200,
47,0,47,,,,,,space,2.3345570999999836,None,None,3,1.3200268000000506,0.18550330000016402,None,0,0,0,0,,,,,0,0,0,0,,,,,47,0,47,0,425.9744077000005,,,,,,,,,,,,,,,,,,,,,,,,,,,,,,,,,,,,,,,,,,,,,,,,,,,,,,,,,Karton,2.8624,425.95961290000014,425.96016510000027,425.9602697,425.9744077000005,428.8407821999999,428.8250377000004,428.8287545000003,428.8407821999999,428.8407821999999,428.8407821999999,428.8407821999999,430.8406801000001,430.8406801000001,430.8406801000001,430.8406801000001,430.8252521000004,3,1.3200268000000506,0.18550330000016402,None,,,,,,,,,,,,,,,,,,,,,,3141,1,2025-09-18_14h33.56.945,sm,2024.2.4,60.01748909630444,2025-09-18 14h34.07.626329 +0200,
48,0,48,,,,,,space,2.3345570999999836,None,None,2,1.8463218000006236,0.11747980000018288,None,0,0,0,0,,,,,0,0,0,0,,,,,48,0,48,0,430.8406801000001,,,,,,,,,,,,,,,,,,,,,,,,,,,,,,,,,,,,,,,,,,,,,,,,,,,,,,,,,Kunst,3.0829,430.8257289000003,430.82623310000054,430.82633460000034,430.8406801000001,433.9238720000003,433.9080058999998,433.91129940000064,433.9238720000003,433.9238720000003,433.9238720000003,433.9238720000003,435.9238602000005,435.9238602000005,435.9238602000005,435.9238602000005,435.9084499999999,2,1.8463218000006236,0.11747980000018288,None,,,,,,,,,,,,,,,,,,,,,,3141,1,2025-09-18_14h33.56.945,sm,2024.2.4,60.01748909630444,2025-09-18 14h34.07.626329 +0200,
49,0,49,,,,,,space,2.3345570999999836,None,None,3,1.2339718000002904,0.1855054999996355,None,0,0,0,0,,,,,0,0,0,0,,,,,49,0,49,0,435.9238602000005,,,,,,,,,,,,,,,,,,,,,,,,,,,,,,,,,,,,,,,,,,,,,,,,,,,,,,,,,Nacht,3.3824,435.9089531999998,435.90944690000015,435.9095541000006,435.9238602000005,439.3068466000004,439.2911436000004,439.2944965000006,439.3068466000004,439.3068466000004,439.3068466000004,439.3068466000004,441.3069624999998,441.3069624999998,441.3069624999998,441.3069624999998,441.2911831000001,3,1.2339718000002904,0.1855054999996355,None,,,,,,,,,,,,,,,,,,,,,,3141,1,2025-09-18_14h33.56.945,sm,2024.2.4,60.01748909630444,2025-09-18 14h34.07.626329 +0200,
50,0,50,,,,,,space,2.3345570999999836,None,None,3,1.642940499999895,0.16198140000051353,None,0,0,0,0,,,,,0,0,0,0,,,,,50,0,50,0,441.3069624999998,,,,,,,,,,,,,,,,,,,,,,,,,,,,,,,,,,,,,,,,,,,,,,,,,,,,,,,,,Anhänger,3.402,441.2916812000003,441.2922034000003,441.29231620000064,441.3069624999998,444.7232638000005,444.70743310000034,444.7109479999999,444.7232638000005,444.7232638000005,444.7232638000005,444.7232638000005,446.7231163000006,446.7231163000006,446.7231163000006,446.7231163000006,446.70782920000056,3,1.642940499999895,0.16198140000051353,None,,,,,,,,,,,,,,,,,,,,,,3141,1,2025-09-18_14h33.56.945,sm,2024.2.4,60.01748909630444,2025-09-18 14h34.07.626329 +0200,
51,0,51,,,,,,space,2.3345570999999836,None,None,2,1.388655600000675,0.1674459999994724,None,0,0,0,0,,,,,0,0,0,0,,,,,51,0,51,0,446.7231163000006,,,,,,,,,,,,,,,,,,,,,,,,,,,,,,,,,,,,,,,,,,,,,,,,,,,,,,,,,Geschichte,2.4832,446.70833649999986,446.7088539000006,446.7089611000001,446.7231163000006,449.2060701999999,449.19080550000035,449.1947332999998,449.2060701999999,449.2060701999999,449.2060701999999,449.2060701999999,451.20626080000056,451.20626080000056,451.20626080000056,451.20626080000056,451.1905800000004,2,1.388655600000675,0.1674459999994724,None,,,,,,,,,,,,,,,,,,,,,,3141,1,2025-09-18_14h33.56.945,sm,2024.2.4,60.01748909630444,2025-09-18 14h34.07.626329 +0200,
52,0,52,,,,,,space,2.3345570999999836,None,None,2,1.2778953000006368,0.1782337999993615,None,0,0,0,0,,,,,0,0,0,0,,,,,52,0,52,0,451.20626080000056,,,,,,,,,,,,,,,,,,,,,,,,,,,,,,,,,,,,,,,,,,,,,,,,,,,,,,,,,Essen,3.027,451.1910834,451.1917414999998,451.19184660000064,451.20626080000056,454.2390185000004,454.22358580000036,454.2271885,454.2390185000004,454.2390185000004,454.2390185000004,454.2390185000004,456.2393796000006,456.2393796000006,456.2393796000006,456.2393796000006,456.2237021000001,2,1.2778953000006368,0.1782337999993615,None,,,,,,,,,,,,,,,,,,,,,,3141,1,2025-09-18_14h33.56.945,sm,2024.2.4,60.01748909630444,2025-09-18 14h34.07.626329 +0200,
53,0,53,,,,,,space,2.3345570999999836,None,None,None,,,None,0,0,0,0,,,,,0,0,0,0,,,,,53,0,53,0,456.2393796000006,,,,,,,,,,,,,,,,,,,,,,,,,,,,,,,,,,,,,,,,,,,,,,,,,,,,,,,,,Anruf,2.0136,456.2242182,456.2247246000006,456.2248298000004,456.2393796000006,458.2557182999999,458.24018669999987,458.2452090000006,458.2557182999999,458.2557182999999,458.2557182999999,458.2557182999999,460.25581969999985,460.25581969999985,460.25581969999985,460.25581969999985,460.24018330000035,None,,,None,,,,,,,,,,,,,,,,,,,,,,3141,1,2025-09-18_14h33.56.945,sm,2024.2.4,60.01748909630444,2025-09-18 14h34.07.626329 +0200,
54,0,54,,,,,,space,2.3345570999999836,None,None,3,1.3553778000004968,0.15694729999995616,None,0,0,0,0,,,,,0,0,0,0,,,,,54,0,54,0,460.25581969999985,,,,,,,,,,,,,,,,,,,,,,,,,,,,,,,,,,,,,,,,,,,,,,,,,,,,,,,,,Schnee,2.1531,460.24066120000043,460.2411611000007,460.24126909999995,460.25581969999985,462.4230981999999,462.4064894000003,462.41056050000043,462.4230981999999,462.4230981999999,462.4230981999999,462.4230981999999,464.42207620000045,464.42207620000045,464.42207620000045,464.42207620000045,464.40649759999997,3,1.3553778000004968,0.15694729999995616,None,,,,,,,,,,,,,,,,,,,,,,3141,1,2025-09-18_14h33.56.945,sm,2024.2.4,60.01748909630444,2025-09-18 14h34.07.626329 +0200,
55,0,55,,,,,,space,2.3345570999999836,None,None,3,0.8492492000004859,0.14593859999968117,None,0,0,0,0,,,,,0,0,0,0,,,,,55,0,55,0,464.42207620000045,,,,,,,,,,,,,,,,,,,,,,,,,,,,,,,,,,,,,,,,,,,,,,,,,,,,,,,,,Mappe,2.0819,464.40700280000055,464.4076429000006,464.4077490999998,464.42207620000045,466.5052203000005,466.4894148000003,466.49279560000014,466.5052203000005,466.5052203000005,466.5052203000005,466.5052203000005,468.5054366000004,468.5054366000004,468.5054366000004,468.5054366000004,468.4901101000005,3,0.8492492000004859,0.14593859999968117,None,,,,,,,,,,,,,,,,,,,,,,3141,1,2025-09-18_14h33.56.945,sm,2024.2.4,60.01748909630444,2025-09-18 14h34.07.626329 +0200,
56,0,56,,,,,,space,2.3345570999999836,None,None,2,1.1236032000006162,0.14468889999989187,None,0,0,0,0,,,,,0,0,0,0,,,,,56,0,56,0,468.5054366000004,,,,,,,,,,,,,,,,,,,,,,,,,,,,,,,,,,,,,,,,,,,,,,,,,,,,,,,,,Hand,2.9443,468.4906130999998,468.4912002000001,468.49130700000023,468.5054366000004,471.45504130000063,471.43933350000043,471.44238399999995,471.45504130000063,471.45504130000063,471.45504130000063,471.45504130000063,473.45530959999996,473.45530959999996,473.45530959999996,473.45530959999996,473.43886790000033,2,1.1236032000006162,0.14468889999989187,None,,,,,,,,,,,,,,,,,,,,,,3141,1,2025-09-18_14h33.56.945,sm,2024.2.4,60.01748909630444,2025-09-18 14h34.07.626329 +0200,
57,0,57,,,,,,space,2.3345570999999836,None,None,3,0.8703476000000592,0.19448990000000776,None,0,0,0,0,,,,,0,0,0,0,,,,,57,0,57,0,473.45530959999996,,,,,,,,,,,,,,,,,,,,,,,,,,,,,,,,,,,,,,,,,,,,,,,,,,,,,,,,,Schläger,2.9377,473.43927239999994,473.4397181000004,473.43980420000025,473.45530959999996,476.4048806999999,476.3890599000006,476.3928111000005,476.4048806999999,476.4048806999999,476.4048806999999,476.4048806999999,478.4051300000001,478.4051300000001,478.4051300000001,478.4051300000001,478.38898960000006,3,0.8703476000000592,0.19448990000000776,None,,,,,,,,,,,,,,,,,,,,,,3141,1,2025-09-18_14h33.56.945,sm,2024.2.4,60.01748909630444,2025-09-18 14h34.07.626329 +0200,
58,0,58,,,,,,space,2.3345570999999836,None,None,2,1.3096470999998928,0.12525280000045313,None,0,0,0,0,,,,,0,0,0,0,,,,,58,0,58,0,478.4051300000001,,,,,,,,,,,,,,,,,,,,,,,,,,,,,,,,,,,,,,,,,,,,,,,,,,,,,,,,,Wind,2.0258,478.38950170000044,478.3900867000002,478.3902050000006,478.4051300000001,480.43780980000065,480.42231020000054,480.4258525000005,480.43780980000065,480.43780980000065,480.43780980000065,480.43780980000065,482.4376791000004,482.4376791000004,482.4376791000004,482.4376791000004,482.42211940000016,2,1.3096470999998928,0.12525280000045313,None,,,,,,,,,,,,,,,,,,,,,,3141,1,2025-09-18_14h33.56.945,sm,2024.2.4,60.01748909630444,2025-09-18 14h34.07.626329 +0200,
59,0,59,,,,,,space,2.3345570999999836,None,None,3,1.4109218999992663,0.1636078000001362,None,0,0,0,0,,,,,0,0,0,0,,,,,59,0,59,0,482.4376791000004,,,,,,,,,,,,,,,,,,,,,,,,,,,,,,,,,,,,,,,,,,,,,,,,,,,,,,,,,Schnorchel,2.8467,482.4226156000004,482.4231227,482.4232302999999,482.4376791000004,485.2875702000001,485.27165310000055,485.27520689999983,485.2875702000001,485.2875702000001,485.2875702000001,485.2875702000001,487.2874335000006,487.2874335000006,487.2874335000006,487.2874335000006,487.2718372999998,3,1.4109218999992663,0.1636078000001362,None,,,,,,,,,,,,,,,,,,,,,,3141,1,2025-09-18_14h33.56.945,sm,2024.2.4,60.01748909630444,2025-09-18 14h34.07.626329 +0200,
60,0,60,,,,,,space,2.3345570999999836,None,None,2,0.9658515000000989,0.17874870000014198,None,0,0,0,0,,,,,0,0,0,0,,,,,60,0,60,0,487.2874335000006,,,,,,,,,,,,,,,,,,,,,,,,,,,,,,,,,,,,,,,,,,,,,,,,,,,,,,,,,Wurm,3.8182,487.27234060000046,487.27297980000003,487.2730867999999,487.2874335000006,491.12053879999985,491.10493039999983,491.10850389999996,491.12053879999985,491.12053879999985,491.12053879999985,491.12053879999985,493.1204638999998,493.1204638999998,493.1204638999998,493.1204638999998,493.1050221000005,2,0.9658515000000989,0.17874870000014198,None,,,,,,,,,,,,,,,,,,,,,,3141,1,2025-09-18_14h33.56.945,sm,2024.2.4,60.01748909630444,2025-09-18 14h34.07.626329 +0200,
61,0,61,,,,,,space,2.3345570999999836,None,None,2,0.9574525999996695,0.13691120000021328,None,0,0,0,0,,,,,0,0,0,0,,,,,61,0,61,0,493.1204638999998,,,,,,,,,,,,,,,,,,,,,,,,,,,,,,,,,,,,,,,,,,,,,,,,,,,,,,,,,Hase,2.3565,493.1055231999999,493.1061737,493.10628090000046,493.1204638999998,495.4869442999998,495.47108410000055,495.47435829999995,495.4869442999998,495.4869442999998,495.4869442999998,495.4869442999998,497.48733450000054,497.48733450000054,497.48733450000054,497.48733450000054,497.47161700000015,2,0.9574525999996695,0.13691120000021328,None,,,,,,,,,,,,,,,,,,,,,,3141,1,2025-09-18_14h33.56.945,sm,2024.2.4,60.01748909630444,2025-09-18 14h34.07.626329 +0200,
62,0,62,,,,,,space,2.3345570999999836,None,None,2,1.2773631000000023,0.14903080000021873,None,0,0,0,0,,,,,0,0,0,0,,,,,62,0,62,0,497.48733450000054,,,,,,,,,,,,,,,,,,,,,,,,,,,,,,,,,,,,,,,,,,,,,,,,,,,,,,,,,Gesicht,2.0256,497.4721368999999,497.4726838000006,497.4727923999999,497.48733450000054,499.5197840999999,499.50422440000057,499.5076798,499.5197840999999,499.5197840999999,499.5197840999999,499.5197840999999,501.52006940000047,501.52006940000047,501.52006940000047,501.52006940000047,501.5043869000001,2,1.2773631000000023,0.14903080000021873,None,,,,,,,,,,,,,,,,,,,,,,3141,1,2025-09-18_14h33.56.945,sm,2024.2.4,60.01748909630444,2025-09-18 14h34.07.626329 +0200,
63,0,63,,,,,,space,2.3345570999999836,None,None,3,1.2107089999999516,0.17434469999989233,None,0,0,0,0,,,,,0,0,0,0,,,,,63,0,63,0,501.52006940000047,,,,,,,,,,,,,,,,,,,,,,,,,,,,,,,,,,,,,,,,,,,,,,,,,,,,,,,,,Haare,5.2303,501.5049005000001,501.5054226000002,501.5055295000002,501.52006940000047,506.7530086000006,506.73758439999983,506.74163920000046,506.7530086000006,506.7530086000006,506.7530086000006,506.7530086000006,508.7531716000003,508.7531716000003,508.7531716000003,508.7531716000003,508.73742850000053,3,1.2107089999999516,0.17434469999989233,None,,,,,,,,,,,,,,,,,,,,,,3141,1,2025-09-18_14h33.56.945,sm,2024.2.4,60.01748909630444,2025-09-18 14h34.07.626329 +0200,
64,0,64,,,,,,space,2.3345570999999836,None,None,3,1.315548200000194,0.18920989999969606,None,0,0,0,0,,,,,0,0,0,0,,,,,64,0,64,0,508.7531716000003,,,,,,,,,,,,,,,,,,,,,,,,,,,,,,,,,,,,,,,,,,,,,,,,,,,,,,,,,Bad,3.9565,508.7379338999999,508.73845640000036,508.73856479999995,508.7531716000003,512.7193254000003,512.7037209,512.7066892000003,512.7193254000003,512.7193254000003,512.7193254000003,512.7193254000003,514.7191763999999,514.7191763999999,514.7191763999999,514.7191763999999,514.7039034,3,1.315548200000194,0.18920989999969606,None,,,,,,,,,,,,,,,,,,,,,,3141,1,2025-09-18_14h33.56.945,sm,2024.2.4,60.01748909630444,2025-09-18 14h34.07.626329 +0200,
65,0,65,,,,,,space,2.3345570999999836,None,None,2,0.974981299999854,0.17296500000065862,None,0,0,0,0,,,,,0,0,0,0,,,,,65,0,65,0,514.7191763999999,,,,,,,,,,,,,,,,,,,,,,,,,,,,,,,,,,,,,,,,,,,,,,,,,,,,,,,,,Besucher,3.3888,514.7044166000005,514.7049371000003,514.7050402000004,514.7191763999999,518.1190370000004,518.1032626000006,518.1065709000004,518.1190370000004,518.1190370000004,518.1190370000004,518.1190370000004,520.1188272999998,520.1188272999998,520.1188272999998,520.1188272999998,520.1035422000004,2,0.974981299999854,0.17296500000065862,None,,,,,,,,,,,,,,,,,,,,,,3141,1,2025-09-18_14h33.56.945,sm,2024.2.4,60.01748909630444,2025-09-18 14h34.07.626329 +0200,
66,0,66,,,,,,space,2.3345570999999836,None,None,3,0.870023499999661,0.20231370000055904,None,0,0,0,0,,,,,0,0,0,0,,,,,66,0,66,0,520.1188272999998,,,,,,,,,,,,,,,,,,,,,,,,,,,,,,,,,,,,,,,,,,,,,,,,,,,,,,,,,Spaghetti,2.207,520.1040497000004,520.1045619000006,520.1046686,520.1188272999998,522.3349965000007,522.3196002000004,522.3232783000003,522.3349965000007,522.3349965000007,522.3349965000007,522.3349965000007,524.3353322000003,524.3353322000003,524.3353322000003,524.3353322000003,524.3199273999999,3,0.870023499999661,0.20231370000055904,None,,,,,,,,,,,,,,,,,,,,,,3141,1,2025-09-18_14h33.56.945,sm,2024.2.4,60.01748909630444,2025-09-18 14h34.07.626329 +0200,
67,0,67,,,,,,space,2.3345570999999836,None,None,3,1.223268000000644,0.21500039999955334,None,0,0,0,0,,,,,0,0,0,0,,,,,67,0,67,0,524.3353322000003,,,,,,,,,,,,,,,,,,,,,,,,,,,,,,,,,,,,,,,,,,,,,,,,,,,,,,,,,Garten,2.4935,524.3204329,524.3209453999998,524.3210513000004,524.3353322000003,526.8349640000006,526.8192242000005,526.8247409000005,526.8349640000006,526.8349640000006,526.8349640000006,526.8349640000006,528.8353731000007,528.8353731000007,528.8353731000007,528.8353731000007,528.8197217000006,3,1.223268000000644,0.21500039999955334,None,,,,,,,,,,,,,,,,,,,,,,3141,1,2025-09-18_14h33.56.945,sm,2024.2.4,60.01748909630444,2025-09-18 14h34.07.626329 +0200,
68,0,68,,,,,,space,2.3345570999999836,None,None,2,0.9334711000001334,0.1605795000004946,None,0,0,0,0,,,,,0,0,0,0,,,,,68,0,68,0,528.8353731000007,,,,,,,,,,,,,,,,,,,,,,,,,,,,,,,,,,,,,,,,,,,,,,,,,,,,,,,,,Geschwister,2.1785,528.8202258000001,528.8207452000006,528.8208511000003,528.8353731000007,531.0180619000002,531.0024874999999,531.0069084000006,531.0180619000002,531.0180619000002,531.0180619000002,531.0180619000002,533.0180688,533.0180688,533.0180688,533.0180688,533.0029259000003,2,0.9334711000001334,0.1605795000004946,None,,,,,,,,,,,,,,,,,,,,,,3141,1,2025-09-18_14h33.56.945,sm,2024.2.4,60.01748909630444,2025-09-18 14h34.07.626329 +0200,
69,0,69,,,,,,space,2.3345570999999836,None,None,3,1.63812549999966,0.166584800000237,None,0,0,0,0,,,,,0,0,0,0,,,,,69,0,69,0,533.0180688,,,,,,,,,,,,,,,,,,,,,,,,,,,,,,,,,,,,,,,,,,,,,,,,,,,,,,,,,Kartoffel,2.3398,533.0034750000004,533.0039910000005,533.0041003000006,533.0180688,535.3680228000003,535.3525005000001,535.3567228000002,535.3680228000003,535.3680228000003,535.3680228000003,535.3680228000003,537.3678900000004,537.3678900000004,537.3678900000004,537.3678900000004,537.3520830000007,3,1.63812549999966,0.166584800000237,None,,,,,,,,,,,,,,,,,,,,,,3141,1,2025-09-18_14h33.56.945,sm,2024.2.4,60.01748909630444,2025-09-18 14h34.07.626329 +0200,
70,0,70,,,,,,space,2.3345570999999836,None,None,3,0.9385921000002782,0.19051719999970373,None,0,0,0,0,,,,,0,0,0,0,,,,,70,0,70,0,537.3678900000004,,,,,,,,,,,,,,,,,,,,,,,,,,,,,,,,,,,,,,,,,,,,,,,,,,,,,,,,,Kerzen,2.1304,537.3525364000006,537.3530196000002,537.3531112999999,537.3678900000004,539.5010235,539.4856844000005,539.4898932000006,539.5010235,539.5010235,539.5010235,539.5010235,541.5012899000003,541.5012899000003,541.5012899000003,541.5012899000003,541.485592,3,0.9385921000002782,0.19051719999970373,None,,,,,,,,,,,,,,,,,,,,,,3141,1,2025-09-18_14h33.56.945,sm,2024.2.4,60.01748909630444,2025-09-18 14h34.07.626329 +0200,
71,0,71,,,,,,space,2.3345570999999836,None,None,3,1.0290514999996958,0.1846160000004602,None,0,0,0,0,,,,,0,0,0,0,,,,,71,0,71,0,541.5012899000003,,,,,,,,,,,,,,,,,,,,,,,,,,,,,,,,,,,,,,,,,,,,,,,,,,,,,,,,,Tasse,2.2202,541.4860958999998,541.4866805000001,541.4867895000007,541.5012899000003,543.7343197999999,543.7183834000007,543.7230261000004,543.7343197999999,543.7343197999999,543.7343197999999,543.7343197999999,545.7341550000001,545.7341550000001,545.7341550000001,545.7341550000001,545.7186265999999,3,1.0290514999996958,0.1846160000004602,None,,,,,,,,,,,,,,,,,,,,,,3141,1,2025-09-18_14h33.56.945,sm,2024.2.4,60.01748909630444,2025-09-18 14h34.07.626329 +0200,
72,0,72,,,,,,space,2.3345570999999836,None,None,3,1.2667267999995602,0.20670289999998204,None,0,0,0,0,,,,,0,0,0,0,,,,,72,0,72,0,545.7341550000001,,,,,,,,,,,,,,,,,,,,,,,,,,,,,,,,,,,,,,,,,,,,,,,,,,,,,,,,,Fiktion,4.0992,545.7191349000004,545.7197270000006,545.7198303000005,545.7341550000001,549.8338597000002,549.8181132,549.8216298000007,549.8338597000002,549.8338597000002,549.8338597000002,549.8338597000002,551.8337479000002,551.8337479000002,551.8337479000002,551.8337479000002,551.8180732000001,3,1.2667267999995602,0.20670289999998204,None,,,,,,,,,,,,,,,,,,,,,,3141,1,2025-09-18_14h33.56.945,sm,2024.2.4,60.01748909630444,2025-09-18 14h34.07.626329 +0200,
73,0,73,,,,,,space,2.3345570999999836,None,None,2,1.495273300000008,0.15479190000041854,None,0,0,0,0,,,,,0,0,0,0,,,,,73,0,73,0,551.8337479000002,,,,,,,,,,,,,,,,,,,,,,,,,,,,,,,,,,,,,,,,,,,,,,,,,,,,,,,,,Zunge,2.4845,551.8185884000004,551.8192392000001,551.8193483000005,551.8337479000002,554.3337462,554.3185555,554.3266135000003,554.3337462,554.3337462,554.3337462,554.3337462,556.3336667000003,556.3336667000003,556.3336667000003,556.3336667000003,556.3182342,2,1.495273300000008,0.15479190000041854,None,,,,,,,,,,,,,,,,,,,,,,3141,1,2025-09-18_14h33.56.945,sm,2024.2.4,60.01748909630444,2025-09-18 14h34.07.626329 +0200,
74,0,74,,,,,,space,2.3345570999999836,None,None,3,1.1354156000006697,0.2213237999994817,None,0,0,0,0,,,,,0,0,0,0,,,,,74,0,74,0,556.3336667000003,,,,,,,,,,,,,,,,,,,,,,,,,,,,,,,,,,,,,,,,,,,,,,,,,,,,,,,,,Wüste,2.636,556.3187423999998,556.3192638,556.3193730000003,556.3336667000003,558.9832244999998,558.9676693000001,558.9716635000004,558.9832244999998,558.9832244999998,558.9832244999998,558.9832244999998,560.9837742,560.9837742,560.9837742,560.9837742,560.9678705000006,3,1.1354156000006697,0.2213237999994817,None,,,,,,,,,,,,,,,,,,,,,,3141,1,2025-09-18_14h33.56.945,sm,2024.2.4,60.01748909630444,2025-09-18 14h34.07.626329 +0200,
75,0,75,,,,,,space,2.3345570999999836,None,None,3,1.5746711000001596,0.15692720000060945,None,0,0,0,0,,,,,0,0,0,0,,,,,75,0,75,0,560.9837742,,,,,,,,,,,,,,,,,,,,,,,,,,,,,,,,,,,,,,,,,,,,,,,,,,,,,,,,,Spaß,2.8652,560.9683824000003,560.9690299000004,560.9691352999998,560.9837742,563.8495468000001,563.8342388000001,563.8379623000001,563.8495468000001,563.8495468000001,563.8495468000001,563.8495468000001,565.8498970999999,565.8498970999999,565.8498970999999,565.8498970999999,565.8341653000007,3,1.5746711000001596,0.15692720000060945,None,,,,,,,,,,,,,,,,,,,,,,3141,1,2025-09-18_14h33.56.945,sm,2024.2.4,60.01748909630444,2025-09-18 14h34.07.626329 +0200,
76,0,76,,,,,,space,2.3345570999999836,None,None,3,1.0878751999998713,0.15693819999978587,None,0,0,0,0,,,,,0,0,0,0,,,,,76,0,76,0,565.8498970999999,,,,,,,,,,,,,,,,,,,,,,,,,,,,,,,,,,,,,,,,,,,,,,,,,,,,,,,,,Tür,5.5187,565.8346744999999,565.8351727999998,565.8352783999999,565.8498970999999,571.3824306000006,571.3670610999998,571.3702886000001,571.3824306000006,571.3824306000006,571.3824306000006,571.3824306000006,573.3824715999999,573.3824715999999,573.3824715999999,573.3824715999999,573.3669797000002,3,1.0878751999998713,0.15693819999978587,None,,,,,,,,,,,,,,,,,,,,,,3141,1,2025-09-18_14h33.56.945,sm,2024.2.4,60.01748909630444,2025-09-18 14h34.07.626329 +0200,
77,0,77,,,,,,space,2.3345570999999836,None,None,2,1.5451671000000715,0.17746829999941838,None,0,0,0,0,,,,,0,0,0,0,,,,,77,0,77,0,573.3824715999999,,,,,,,,,,,,,,,,,,,,,,,,,,,,,,,,,,,,,,,,,,,,,,,,,,,,,,,,,Arbeit,3.488,573.3674915000001,573.3679997999998,573.3681063000004,573.3824715999999,576.8829064000001,576.8669544000004,576.8705973000006,576.8829064000001,576.8829064000001,576.8829064000001,576.8829064000001,578.8822491999999,578.8822491999999,578.8822491999999,578.8822491999999,578.8667243999998,2,1.5451671000000715,0.17746829999941838,None,,,,,,,,,,,,,,,,,,,,,,3141,1,2025-09-18_14h33.56.945,sm,2024.2.4,60.01748909630444,2025-09-18 14h34.07.626329 +0200,
78,0,78,,,,,,space,2.3345570999999836,None,None,2,1.8181119000000763,None,None,0,0,0,0,,,,,0,0,0,0,,,,,78,0,78,0,578.8822491999999,,,,,,,,,,,,,,,,,,,,,,,,,,,,,,,,,,,,,,,,,,,,,,,,,,,,,,,,,Party,3.6355,578.8672100000003,578.8677443000006,578.8678528,578.8822491999999,582.5319674000002,582.5162458000004,582.5221025999999,582.5319674000002,582.5319674000002,582.5319674000002,582.5319674000002,584.5318808000002,584.5318808000002,584.5318808000002,584.5318808000002,584.5164410000007,2,1.8181119000000763,None,None,,,,,,,,,,,,,,,,,,,,,,3141,1,2025-09-18_14h33.56.945,sm,2024.2.4,60.01748909630444,2025-09-18 14h34.07.626329 +0200,
79,0,79,,,,,,space,2.3345570999999836,None,None,3,0.833042000000205,0.19466410000040923,None,0,0,0,0,,,,,0,0,0,0,,,,,79,0,79,0,584.5318808000002,,,,,,,,,,,,,,,,,,,,,,,,,,,,,,,,,,,,,,,,,,,,,,,,,,,,,,,,,Krone,2.4153,584.5169461000005,584.5175109000002,584.5176161999998,584.5318808000002,586.9485236,586.9326612000004,586.9373234000004,586.9485236,586.9485236,586.9485236,586.9485236,588.9606601000005,588.9606601000005,588.9606601000005,588.9606601000005,588.9326977999999,3,0.833042000000205,0.19466410000040923,None,,,,,,,,,,,,,,,,,,,,,,3141,1,2025-09-18_14h33.56.945,sm,2024.2.4,60.01748909630444,2025-09-18 14h34.07.626329 +0200,
0,0,0,,,,,3.0719,space,2.4170102999996743,None,None,3,1.1847045000004073,0.13651729999946838,None,0,0,0,0,,,,,1,0,1,0,0,79,79,11,0,0,0,0,633.9790429000004,,,,,,,,,,,,,,,,,,,,,,,,,,,,,,,,,,,,606.2948614000006,606.2951025000002,606.3013159000002,606.3058848999999,606.3058848999999,608.7322441000006,space,2.4170102999996743,None,608.7323958000006,608.7471964000006,608.7471964000006,621.9629057000002,None,621.9705847000005,621.9800357000004,621.9779813666667,623.186592,631.9625131666664,632.9664206000007,633.9632750000001,Zigarette,3.0719,633.9646699000004,633.9653167000006,633.9654257000002,633.9790429000004,637.0619826000002,637.0464061000002,637.0505549,637.0619826000002,637.0619826000002,637.0619826000002,637.0619826000002,639.0623106000003,639.0623106000003,639.0623106000003,639.0623106000003,639.0463760000002,3,1.1847045000004073,0.13651729999946838,None,600.9478556000004,600.9479265,None,600.9550686000002,600.9636814000005,604.9640079000001,604.9640079000001,604.9640079000001,606.2494819000003,1,1.2674958999996306,None,633.9790429000004,,,,,,,,,3141,1,2025-09-18_14h33.56.945,sm,2024.2.4,60.01748909630444,2025-09-18 14h34.07.626329 +0200,
1,0,1,,,,,,space,2.4170102999996743,None,None,2,0.9709465000005366,0.10491729999921517,None,0,0,0,0,,,,,1,0,1,0,,,,,1,0,1,0,639.0623106000003,,,,,,,,,,,,,,,,,,,,,,,,,,,,,,,,,,,,,,,,,,,,,,,,,,,,,,,,,Leute,2.0138,639.0468012000001,639.0473299000005,639.0474202000005,639.0623106000003,641.0782409000003,641.0628277000005,641.0667060000005,641.0782409000003,641.0782409000003,641.0782409000003,641.0782409000003,643.0785722,643.0785722,643.0785722,643.0785722,643.0629626999998,2,0.9709465000005366,0.10491729999921517,None,,,,,,,,,,,,,,,,,,,,,,3141,1,2025-09-18_14h33.56.945,sm,2024.2.4,60.01748909630444,2025-09-18 14h34.07.626329 +0200,
2,0,2,,,,,,space,2.4170102999996743,None,None,3,0.8564440999998624,0.1675137000001996,None,0,0,0,0,,,,,1,0,1,0,,,,,2,0,2,0,643.0785722,,,,,,,,,,,,,,,,,,,,,,,,,,,,,,,,,,,,,,,,,,,,,,,,,,,,,,,,,Knie,2.8652,643.0634424999998,643.0640749000004,643.0641759999999,643.0785722,645.9452226000003,645.9297499000004,645.9333721000003,645.9452226000003,645.9452226000003,645.9452226000003,645.9452226000003,647.9449929000002,647.9449929000002,647.9449929000002,647.9449929000002,647.9293416999999,3,0.8564440999998624,0.1675137000001996,None,,,,,,,,,,,,,,,,,,,,,,3141,1,2025-09-18_14h33.56.945,sm,2024.2.4,60.01748909630444,2025-09-18 14h34.07.626329 +0200,
3,0,3,,,,,,space,2.4170102999996743,None,None,2,1.3445959000000585,0.12634309999975812,None,0,0,0,0,,,,,1,0,1,0,,,,,3,0,3,0,647.9449929000002,,,,,,,,,,,,,,,,,,,,,,,,,,,,,,,,,,,,,,,,,,,,,,,,,,,,,,,,,Vulkan,3.6355,647.9298470000003,647.9305064,647.9306121,647.9449929000002,651.5943167000005,651.5787939000002,651.5821460000006,651.5943167000005,651.5943167000005,651.5943167000005,651.5943167000005,653.5946187,653.5946187,653.5946187,653.5946187,653.5789251000006,2,1.3445959000000585,0.12634309999975812,None,,,,,,,,,,,,,,,,,,,,,,3141,1,2025-09-18_14h33.56.945,sm,2024.2.4,60.01748909630444,2025-09-18 14h34.07.626329 +0200,
4,0,4,,,,,,space,2.4170102999996743,None,None,3,1.1650733999995282,0.20070140000007086,None,0,0,0,0,,,,,1,0,1,0,,,,,4,0,4,0,653.5946187,,,,,,,,,,,,,,,,,,,,,,,,,,,,,,,,,,,,,,,,,,,,,,,,,,,,,,,,,Monument,3.027,653.5794053999998,653.5798998999999,653.5799998000002,653.5946187,656.6277181000005,656.6118465,656.6161479000002,656.6277181000005,656.6277181000005,656.6277181000005,656.6277181000005,658.6275102999998,658.6275102999998,658.6275102999998,658.6275102999998,658.6118895,3,1.1650733999995282,0.20070140000007086,None,,,,,,,,,,,,,,,,,,,,,,3141,1,2025-09-18_14h33.56.945,sm,2024.2.4,60.01748909630444,2025-09-18 14h34.07.626329 +0200,
5,0,5,,,,,,space,2.4170102999996743,None,None,2,1.2112349999997605,0.12649010000041017,None,0,0,0,0,,,,,1,0,1,0,,,,,5,0,5,0,658.6275102999998,,,,,,,,,,,,,,,,,,,,,,,,,,,,,,,,,,,,,,,,,,,,,,,,,,,,,,,,,Anführer,2.8624,658.6124128000001,658.6129170000004,658.6130252000003,658.6275102999998,661.4949072999998,661.4787328000002,661.4819881000003,661.4949072999998,661.4949072999998,661.4949072999998,661.4949072999998,663.4938682000002,663.4938682000002,663.4938682000002,663.4938682000002,663.4785404000004,2,1.2112349999997605,0.12649010000041017,None,,,,,,,,,,,,,,,,,,,,,,3141,1,2025-09-18_14h33.56.945,sm,2024.2.4,60.01748909630444,2025-09-18 14h34.07.626329 +0200,
6,0,6,,,,,,space,2.4170102999996743,None,None,2,0.8383570999994845,0.11516140000003361,None,0,0,0,0,,,,,1,0,1,0,,,,,6,0,6,0,663.4938682000002,,,,,,,,,,,,,,,,,,,,,,,,,,,,,,,,,,,,,,,,,,,,,,,,,,,,,,,,,Alligator,2.0507,663.4790176000006,663.4795912,663.4796897000006,663.4938682000002,665.5433964000003,665.5277298999999,665.5309120000002,665.5433964000003,665.5433964000003,665.5433964000003,665.5433964000003,667.5435913000001,667.5435913000001,667.5435913000001,667.5435913000001,667.5285220000005,2,0.8383570999994845,0.11516140000003361,None,,,,,,,,,,,,,,,,,,,,,,3141,1,2025-09-18_14h33.56.945,sm,2024.2.4,60.01748909630444,2025-09-18 14h34.07.626329 +0200,
7,0,7,,,,,,space,2.4170102999996743,None,None,2,1.1885855999998967,0.19144480000068143,None,0,0,0,0,,,,,1,0,1,0,,,,,7,0,7,0,667.5435913000001,,,,,,,,,,,,,,,,,,,,,,,,,,,,,,,,,,,,,,,,,,,,,,,,,,,,,,,,,Klempner,2.1554,667.5290836000004,667.5295901999998,667.5296999000002,667.5435913000001,669.7099687,669.6942726000007,669.6975861000001,669.7099687,669.7099687,669.7099687,669.7099687,671.7103324999998,671.7103324999998,671.7103324999998,671.7103324999998,671.6946011999999,2,1.1885855999998967,0.19144480000068143,None,,,,,,,,,,,,,,,,,,,,,,3141,1,2025-09-18_14h33.56.945,sm,2024.2.4,60.01748909630444,2025-09-18 14h34.07.626329 +0200,
8,0,8,,,,,,space,2.4170102999996743,None,None,3,1.355837199999769,0.1927716000000146,None,0,0,0,0,,,,,1,0,1,0,,,,,8,0,8,0,671.7103324999998,,,,,,,,,,,,,,,,,,,,,,,,,,,,,,,,,,,,,,,,,,,,,,,,,,,,,,,,,Bett,2.62,671.6951092999998,671.6956332,671.6957404000004,671.7103324999998,674.3432358999999,674.3276512000002,674.3306413999999,674.3432358999999,674.3432358999999,674.3432358999999,674.3432358999999,676.3432827000006,676.3432827000006,676.3432827000006,676.3432827000006,676.3277999000002,3,1.355837199999769,0.1927716000000146,None,,,,,,,,,,,,,,,,,,,,,,3141,1,2025-09-18_14h33.56.945,sm,2024.2.4,60.01748909630444,2025-09-18 14h34.07.626329 +0200,
9,0,9,,,,,,space,2.4170102999996743,None,None,2,1.2438044999998965,0.1614811000008558,None,0,0,0,0,,,,,1,0,1,0,,,,,9,0,9,0,676.3432827000006,,,,,,,,,,,,,,,,,,,,,,,,,,,,,,,,,,,,,,,,,,,,,,,,,,,,,,,,,Freund,3.3888,676.3283040000006,676.3288111000002,676.3289187,676.3432827000006,679.7431575999999,679.7273593,679.7309584000004,679.7431575999999,679.7431575999999,679.7431575999999,679.7431575999999,681.7430227000004,681.7430227000004,681.7430227000004,681.7430227000004,681.7272805000002,2,1.2438044999998965,0.1614811000008558,None,,,,,,,,,,,,,,,,,,,,,,3141,1,2025-09-18_14h33.56.945,sm,2024.2.4,60.01748909630444,2025-09-18 14h34.07.626329 +0200,
10,0,10,,,,,,space,2.4170102999996743,None,None,2,1.824119900000369,None,None,0,0,0,0,,,,,1,0,1,0,,,,,10,0,10,0,681.7430227000004,,,,,,,,,,,,,,,,,,,,,,,,,,,,,,,,,,,,,,,,,,,,,,,,,,,,,,,,,Rose,3.3824,681.7277886000002,681.7282961999999,681.7284037999998,681.7430227000004,685.1260600000005,685.1105435999998,685.1141950000001,685.1260600000005,685.1260600000005,685.1260600000005,685.1260600000005,687.1261181,687.1261181,687.1261181,687.1261181,687.1106123999998,2,1.824119900000369,None,None,,,,,,,,,,,,,,,,,,,,,,3141,1,2025-09-18_14h33.56.945,sm,2024.2.4,60.01748909630444,2025-09-18 14h34.07.626329 +0200,
11,0,11,,,,,,space,2.4170102999996743,None,None,3,1.4936037999996188,0.15002640000057,None,0,0,0,0,,,,,1,0,1,0,,,,,11,0,11,0,687.1261181,,,,,,,,,,,,,,,,,,,,,,,,,,,,,,,,,,,,,,,,,,,,,,,,,,,,,,,,,Kapitel,2.1741,687.1111461,687.1116913000005,687.1118024000007,687.1261181,689.3088520000001,689.2931862000005,689.2971685000002,689.3088520000001,689.3088520000001,689.3088520000001,689.3088520000001,691.3088891000007,691.3088891000007,691.3088891000007,691.3088891000007,691.2936454000001,3,1.4936037999996188,0.15002640000057,None,,,,,,,,,,,,,,,,,,,,,,3141,1,2025-09-18_14h33.56.945,sm,2024.2.4,60.01748909630444,2025-09-18 14h34.07.626329 +0200,
12,0,12,,,,,,space,2.4170102999996743,None,None,3,1.2997265000003608,0.205360699999801,None,0,0,0,0,,,,,1,0,1,0,,,,,12,0,12,0,691.3088891000007,,,,,,,,,,,,,,,,,,,,,,,,,,,,,,,,,,,,,,,,,,,,,,,,,,,,,,,,,Gel,3.9565,691.2941469000007,691.2947279,691.2948309000003,691.3088891000007,695.2753815000005,695.2596573999999,695.2628162999999,695.2753815000005,695.2753815000005,695.2753815000005,695.2753815000005,697.2755011999998,697.2755011999998,697.2755011999998,697.2755011999998,697.2600790000006,3,1.2997265000003608,0.205360699999801,None,,,,,,,,,,,,,,,,,,,,,,3141,1,2025-09-18_14h33.56.945,sm,2024.2.4,60.01748909630444,2025-09-18 14h34.07.626329 +0200,
13,0,13,,,,,,space,2.4170102999996743,None,None,2,1.4251999000007345,0.14230319999933272,None,0,0,0,0,,,,,1,0,1,0,,,,,13,0,13,0,697.2755011999998,,,,,,,,,,,,,,,,,,,,,,,,,,,,,,,,,,,,,,,,,,,,,,,,,,,,,,,,,Kopf,2.9377,697.2605840000006,697.2613296,697.2614333000001,697.2755011999998,700.2248600000003,700.2096818999999,700.2130422,700.2248600000003,700.2248600000003,700.2248600000003,700.2248600000003,702.2250990000002,702.2250990000002,702.2250990000002,702.2250990000002,702.2100300000002,2,1.4251999000007345,0.14230319999933272,None,,,,,,,,,,,,,,,,,,,,,,3141,1,2025-09-18_14h33.56.945,sm,2024.2.4,60.01748909630444,2025-09-18 14h34.07.626329 +0200,
14,0,14,,,,,,space,2.4170102999996743,None,None,3,1.1322428000003129,0.16756230000009964,None,0,0,0,0,,,,,1,0,1,0,,,,,14,0,14,0,702.2250990000002,,,,,,,,,,,,,,,,,,,,,,,,,,,,,,,,,,,,,,,,,,,,,,,,,,,,,,,,,Ferien,2.3565,702.2105308999999,702.2110612000006,702.2111667999998,702.2250990000002,704.5913641000006,704.5760181000005,704.5798315000002,704.5913641000006,704.5913641000006,704.5913641000006,704.5913641000006,706.5914591000001,706.5914591000001,706.5914591000001,706.5914591000001,706.5759146999999,3,1.1322428000003129,0.16756230000009964,None,,,,,,,,,,,,,,,,,,,,,,3141,1,2025-09-18_14h33.56.945,sm,2024.2.4,60.01748909630444,2025-09-18 14h34.07.626329 +0200,
15,0,15,,,,,,space,2.4170102999996743,None,None,2,1.0974396000001434,0.1694614999996702,None,0,0,0,0,,,,,1,0,1,0,,,,,15,0,15,0,706.5914591000001,,,,,,,,,,,,,,,,,,,,,,,,,,,,,,,,,,,,,,,,,,,,,,,,,,,,,,,,,Akrobatin,2.1899,706.5763874000004,706.5770241,706.5771246000004,706.5914591000001,708.7911752999998,708.7756699000001,708.7798418000002,708.7911752999998,708.7911752999998,708.7911752999998,708.7911752999998,710.7912590000005,710.7912590000005,710.7912590000005,710.7912590000005,710.7758095999998,2,1.0974396000001434,0.1694614999996702,None,,,,,,,,,,,,,,,,,,,,,,3141,1,2025-09-18_14h33.56.945,sm,2024.2.4,60.01748909630444,2025-09-18 14h34.07.626329 +0200,
16,0,16,,,,,,space,2.4170102999996743,None,None,3,0.8724537999996755,0.17753999999968073,None,0,0,0,0,,,,,1,0,1,0,,,,,16,0,16,0,710.7912590000005,,,,,,,,,,,,,,,,,,,,,,,,,,,,,,,,,,,,,,,,,,,,,,,,,,,,,,,,,Schreibtisch,2.4153,710.7763132999999,710.7769607,710.7770673000005,710.7912590000005,713.2076790000001,713.1921157000006,713.1960405999998,713.2076790000001,713.2076790000001,713.2076790000001,713.2076790000001,715.2079068000003,715.2079068000003,715.2079068000003,715.2079068000003,715.1923598000003,3,0.8724537999996755,0.17753999999968073,None,,,,,,,,,,,,,,,,,,,,,,3141,1,2025-09-18_14h33.56.945,sm,2024.2.4,60.01748909630444,2025-09-18 14h34.07.626329 +0200,
17,0,17,,,,,,space,2.4170102999996743,None,None,2,0.9695948000007775,0.17189669999970647,None,0,0,0,0,,,,,1,0,1,0,,,,,17,0,17,0,715.2079068000003,,,,,,,,,,,,,,,,,,,,,,,,,,,,,,,,,,,,,,,,,,,,,,,,,,,,,,,,,Fledermaus,3.0829,715.1928447,715.1933611000004,715.1934615999999,715.2079068000003,718.2905695,718.2755057000004,718.2787693,718.2905695,718.2905695,718.2905695,718.2905695,720.2910293000004,720.2910293000004,720.2910293000004,720.2910293000004,720.2752015000005,2,0.9695948000007775,0.17189669999970647,None,,,,,,,,,,,,,,,,,,,,,,3141,1,2025-09-18_14h33.56.945,sm,2024.2.4,60.01748909630444,2025-09-18 14h34.07.626329 +0200,
18,0,18,,,,,,space,2.4170102999996743,None,None,3,0.9200552000002062,0.17055009999967297,None,0,0,0,0,,,,,1,0,1,0,,,,,18,0,18,0,720.2910293000004,,,,,,,,,,,,,,,,,,,,,,,,,,,,,,,,,,,,,,,,,,,,,,,,,,,,,,,,,Schlüssel,2.3398,720.2757093999999,720.2762469999998,720.2763523000003,720.2910293000004,722.6402820000003,722.6249421000002,722.6294181000003,722.6402820000003,722.6402820000003,722.6402820000003,722.6402820000003,724.6407755,724.6407755,724.6407755,724.6407755,724.6248709000001,3,0.9200552000002062,0.17055009999967297,None,,,,,,,,,,,,,,,,,,,,,,3141,1,2025-09-18_14h33.56.945,sm,2024.2.4,60.01748909630444,2025-09-18 14h34.07.626329 +0200,
19,0,19,,,,,,space,2.4170102999996743,None,None,3,1.1322720000007394,0.26923139999962586,None,0,0,0,0,,,,,1,0,1,0,,,,,19,0,19,0,724.6407755,,,,,,,,,,,,,,,,,,,,,,,,,,,,,,,,,,,,,,,,,,,,,,,,,,,,,,,,,Vergangenheit,3.2951,724.6253815999999,724.6258994999998,724.6260100999998,724.6407755,727.9399379000006,727.9247636999999,727.9288895,727.9399379000006,727.9399379000006,727.9399379000006,727.9399379000006,729.9401272000005,729.9401272000005,729.9401272000005,729.9401272000005,729.9247138000001,3,1.1322720000007394,0.26923139999962586,None,,,,,,,,,,,,,,,,,,,,,,3141,1,2025-09-18_14h33.56.945,sm,2024.2.4,60.01748909630444,2025-09-18 14h34.07.626329 +0200,
20,0,20,,,,,,space,2.4170102999996743,None,None,3,1.0435725000006641,0.2722751999999673,None,0,0,0,0,,,,,1,0,1,0,,,,,20,0,20,0,729.9401272000005,,,,,,,,,,,,,,,,,,,,,,,,,,,,,,,,,,,,,,,,,,,,,,,,,,,,,,,,,Luft,2.5494,729.9252176,729.9257338000007,729.9258399999999,729.9401272000005,732.4899743000005,732.4742783000002,732.4777485000004,732.4899743000005,732.4899743000005,732.4899743000005,732.4899743000005,734.4898189000005,734.4898189000005,734.4898189000005,734.4898189000005,734.4745941000001,3,1.0435725000006641,0.2722751999999673,None,,,,,,,,,,,,,,,,,,,,,,3141,1,2025-09-18_14h33.56.945,sm,2024.2.4,60.01748909630444,2025-09-18 14h34.07.626329 +0200,
21,0,21,,,,,,space,2.4170102999996743,None,None,2,0.8755362000001696,0.15957450000041717,None,0,0,0,0,,,,,1,0,1,0,,,,,21,0,21,0,734.4898189000005,,,,,,,,,,,,,,,,,,,,,,,,,,,,,,,,,,,,,,,,,,,,,,,,,,,,,,,,,Spinne,2.1702,734.4750690999999,734.4757973000005,734.4758964000002,734.4898189000005,736.6730126000002,736.6576642,736.6612214000006,736.6730126000002,736.6730126000002,736.6730126000002,736.6730126000002,738.6730676000006,738.6730676000006,738.6730676000006,738.6730676000006,738.6575136000001,2,0.8755362000001696,0.15957450000041717,None,,,,,,,,,,,,,,,,,,,,,,3141,1,2025-09-18_14h33.56.945,sm,2024.2.4,60.01748909630444,2025-09-18 14h34.07.626329 +0200,
22,0,22,,,,,,space,2.4170102999996743,None,None,2,0.8612284000000727,0.1551790000003166,None,0,0,0,0,,,,,1,0,1,0,,,,,22,0,22,0,738.6730676000006,,,,,,,,,,,,,,,,,,,,,,,,,,,,,,,,,,,,,,,,,,,,,,,,,,,,,,,,,Eltern,5.5187,738.6580187999998,738.6587604000006,738.6588652999999,738.6730676000006,744.2059373000002,744.1906704000003,744.1946869000003,744.2059373000002,744.2059373000002,744.2059373000002,744.2059373000002,746.2058184000007,746.2058184000007,746.2058184000007,746.2058184000007,746.1901969,2,0.8612284000000727,0.1551790000003166,None,,,,,,,,,,,,,,,,,,,,,,3141,1,2025-09-18_14h33.56.945,sm,2024.2.4,60.01748909630444,2025-09-18 14h34.07.626329 +0200,
23,0,23,,,,,,space,2.4170102999996743,None,None,2,1.71568920000027,0.15349179999975604,None,0,0,0,0,,,,,1,0,1,0,,,,,23,0,23,0,746.2058184000007,,,,,,,,,,,,,,,,,,,,,,,,,,,,,,,,,,,,,,,,,,,,,,,,,,,,,,,,,Hilfe,4.7082,746.1907162000007,746.1913012000005,746.1914040000001,746.2058184000007,750.9221809999999,750.9066349000004,750.9107291999999,750.9221809999999,750.9221809999999,750.9221809999999,750.9221809999999,752.9224008000001,752.9224008000001,752.9224008000001,752.9224008000001,752.9065018000001,2,1.71568920000027,0.15349179999975604,None,,,,,,,,,,,,,,,,,,,,,,3141,1,2025-09-18_14h33.56.945,sm,2024.2.4,60.01748909630444,2025-09-18 14h34.07.626329 +0200,
24,0,24,,,,,,space,2.4170102999996743,None,None,3,1.1971245999993698,0.19305870000061987,None,0,0,0,0,,,,,1,0,1,0,,,,,24,0,24,0,752.9224008000001,,,,,,,,,,,,,,,,,,,,,,,,,,,,,,,,,,,,,,,,,,,,,,,,,,,,,,,,,Geheimnis,3.8189,752.9070122000003,752.9075947000001,752.9077008000004,752.9224008000001,756.7551465000006,756.7396420000005,756.7436203000007,756.7551465000006,756.7551465000006,756.7551465000006,756.7551465000006,758.7552200999999,758.7552200999999,758.7552200999999,758.7552200999999,758.7395574000002,3,1.1971245999993698,0.19305870000061987,None,,,,,,,,,,,,,,,,,,,,,,3141,1,2025-09-18_14h33.56.945,sm,2024.2.4,60.01748909630444,2025-09-18 14h34.07.626329 +0200,
25,0,25,,,,,,space,2.4170102999996743,None,None,3,1.0826963999998043,0.20587130000058096,None,0,0,0,0,,,,,1,0,1,0,,,,,25,0,25,0,758.7552200999999,,,,,,,,,,,,,,,,,,,,,,,,,,,,,,,,,,,,,,,,,,,,,,,,,,,,,,,,,Zimt,2.5314,758.7400658000006,758.7405755999998,758.7406830999998,758.7552200999999,761.2883978999998,761.2727040999998,761.2777741999998,761.2883978999998,761.2883978999998,761.2883978999998,761.2883978999998,763.2885338000006,763.2885338000006,763.2885338000006,763.2885338000006,763.2726251000004,3,1.0826963999998043,0.20587130000058096,None,,,,,,,,,,,,,,,,,,,,,,3141,1,2025-09-18_14h33.56.945,sm,2024.2.4,60.01748909630444,2025-09-18 14h34.07.626329 +0200,
26,0,26,,,,,,space,2.4170102999996743,None,None,3,1.5572400999999445,0.18788230000063777,None,0,0,0,0,,,,,1,0,1,0,,,,,26,0,26,0,763.2885338000006,,,,,,,,,,,,,,,,,,,,,,,,,,,,,,,,,,,,,,,,,,,,,,,,,,,,,,,,,Sicherheit,2.1531,763.2731268000007,763.2736453000007,763.2737513000002,763.2885338000006,765.4548046,765.439386,765.4437968000002,765.4548046,765.4548046,765.4548046,765.4548046,767.4550128000001,767.4550128000001,767.4550128000001,767.4550128000001,767.4389680000004,3,1.5572400999999445,0.18788230000063777,None,,,,,,,,,,,,,,,,,,,,,,3141,1,2025-09-18_14h33.56.945,sm,2024.2.4,60.01748909630444,2025-09-18 14h34.07.626329 +0200,
27,0,27,,,,,,space,2.4170102999996743,None,None,3,1.294898000000103,0.19601799999963987,None,0,0,0,0,,,,,1,0,1,0,,,,,27,0,27,0,767.4550128000001,,,,,,,,,,,,,,,,,,,,,,,,,,,,,,,,,,,,,,,,,,,,,,,,,,,,,,,,,Golf,2.0256,767.4394858000005,767.4399868999999,767.4400946000005,767.4550128000001,769.4879771000005,769.4723641,769.4760342999998,769.4879771000005,769.4879771000005,769.4879771000005,769.4879771000005,771.4880072000005,771.4880072000005,771.4880072000005,771.4880072000005,771.4727201000005,3,1.294898000000103,0.19601799999963987,None,,,,,,,,,,,,,,,,,,,,,,3141,1,2025-09-18_14h33.56.945,sm,2024.2.4,60.01748909630444,2025-09-18 14h34.07.626329 +0200,
28,0,28,,,,,,space,2.4170102999996743,None,None,3,0.8728727000006984,0.15724209999916638,None,0,0,0,0,,,,,1,0,1,0,,,,,28,0,28,0,771.4880072000005,,,,,,,,,,,,,,,,,,,,,,,,,,,,,,,,,,,,,,,,,,,,,,,,,,,,,,,,,Sendung,2.207,771.4732672,771.4737959000004,771.4739055999999,771.4880072000005,773.7046113000006,773.6890939000004,773.6932418000006,773.7046113000006,773.7046113000006,773.7046113000006,773.7046113000006,775.7042752000007,775.7042752000007,775.7042752000007,775.7042752000007,775.688537,3,0.8728727000006984,0.15724209999916638,None,,,,,,,,,,,,,,,,,,,,,,3141,1,2025-09-18_14h33.56.945,sm,2024.2.4,60.01748909630444,2025-09-18 14h34.07.626329 +0200,
29,0,29,,,,,,space,2.4170102999996743,None,None,3,0.801561700000093,0.16851880000012898,None,0,0,0,0,,,,,1,0,1,0,,,,,29,0,29,0,775.7042752000007,,,,,,,,,,,,,,,,,,,,,,,,,,,,,,,,,,,,,,,,,,,,,,,,,,,,,,,,,Erde,3.9843,775.6890455000002,775.6895615000003,775.6896713000006,775.7042752000007,779.7037982000002,779.6880633000001,779.6914668999998,779.7037982000002,779.7037982000002,779.7037982000002,779.7037982000002,781.7038760000005,781.7038760000005,781.7038760000005,781.7038760000005,781.6882431000004,3,0.801561700000093,0.16851880000012898,None,,,,,,,,,,,,,,,,,,,,,,3141,1,2025-09-18_14h33.56.945,sm,2024.2.4,60.01748909630444,2025-09-18 14h34.07.626329 +0200,
30,0,30,,,,,,space,2.4170102999996743,None,None,3,1.1828984000003402,0.20146829999976035,None,0,0,0,0,,,,,1,0,1,0,,,,,30,0,30,0,781.7038760000005,,,,,,,,,,,,,,,,,,,,,,,,,,,,,,,,,,,,,,,,,,,,,,,,,,,,,,,,,Zähne,2.928,781.6887528000007,781.6892681999998,781.6893750999998,781.7038760000005,784.6369777,784.6213050000006,784.6252628000002,784.6369777,784.6369777,784.6369777,784.6369777,786.6370033000003,786.6370033000003,786.6370033000003,786.6370033000003,786.6211371999998,3,1.1828984000003402,0.20146829999976035,None,,,,,,,,,,,,,,,,,,,,,,3141,1,2025-09-18_14h33.56.945,sm,2024.2.4,60.01748909630444,2025-09-18 14h34.07.626329 +0200,
31,0,31,,,,,,space,2.4170102999996743,None,None,3,1.2512896999996883,0.35507249999955093,None,0,0,0,0,,,,,1,0,1,0,,,,,31,0,31,0,786.6370033000003,,,,,,,,,,,,,,,,,,,,,,,,,,,,,,,,,,,,,,,,,,,,,,,,,,,,,,,,,Tradition,2.2306,786.6216486000003,786.6221615000004,786.6222705999999,786.6370033000003,788.8700143000005,788.8542779999998,788.8603036000004,788.8700143000005,788.8700143000005,788.8700143000005,788.8700143000005,790.8700527999999,790.8700527999999,790.8700527999999,790.8700527999999,790.8544197000001,3,1.2512896999996883,0.35507249999955093,None,,,,,,,,,,,,,,,,,,,,,,3141,1,2025-09-18_14h33.56.945,sm,2024.2.4,60.01748909630444,2025-09-18 14h34.07.626329 +0200,
32,0,32,,,,,,space,2.4170102999996743,None,None,3,1.272387400000298,0.15359040000021196,None,0,0,0,0,,,,,1,0,1,0,,,,,32,0,32,0,790.8700527999999,,,,,,,,,,,,,,,,,,,,,,,,,,,,,,,,,,,,,,,,,,,,,,,,,,,,,,,,,Klinge,2.0485,790.8548866000001,790.8554930999999,790.8555907,790.8700527999999,792.9197367000006,792.9041797,792.9082195000001,792.9197367000006,792.9197367000006,792.9197367000006,792.9197367000006,794.9200050999998,794.9200050999998,794.9200050999998,794.9200050999998,794.9044321000001,3,1.272387400000298,0.15359040000021196,None,,,,,,,,,,,,,,,,,,,,,,3141,1,2025-09-18_14h33.56.945,sm,2024.2.4,60.01748909630444,2025-09-18 14h34.07.626329 +0200,
33,0,33,,,,,,space,2.4170102999996743,None,None,3,1.6955720000005385,0.20003659999929368,None,0,0,0,0,,,,,1,0,1,0,,,,,33,0,33,0,794.9200050999998,,,,,,,,,,,,,,,,,,,,,,,,,,,,,,,,,,,,,,,,,,,,,,,,,,,,,,,,,Sprache,2.6982,794.9049355000006,794.9055861000006,794.9056962000004,794.9200050999998,797.6197283000001,797.604182,797.6085453000005,797.6197283000001,797.6197283000001,797.6197283000001,797.6197283000001,799.6197707000001,799.6197707000001,799.6197707000001,799.6197707000001,799.6037482000002,3,1.6955720000005385,0.20003659999929368,None,,,,,,,,,,,,,,,,,,,,,,3141,1,2025-09-18_14h33.56.945,sm,2024.2.4,60.01748909630444,2025-09-18 14h34.07.626329 +0200,
34,0,34,,,,,,space,2.4170102999996743,None,None,2,1.6701935999999478,0.15202969999972993,None,0,0,0,0,,,,,1,0,1,0,,,,,34,0,34,0,799.6197707000001,,,,,,,,,,,,,,,,,,,,,,,,,,,,,,,,,,,,,,,,,,,,,,,,,,,,,,,,,Winter,4.0992,799.6041934000004,799.6048185999998,799.6049145000006,799.6197707000001,803.7195075999998,803.7037673000004,803.7078749000002,803.7195075999998,803.7195075999998,803.7195075999998,803.7195075999998,805.7192690000002,805.7192690000002,805.7192690000002,805.7192690000002,805.7036413000005,2,1.6701935999999478,0.15202969999972993,None,,,,,,,,,,,,,,,,,,,,,,3141,1,2025-09-18_14h33.56.945,sm,2024.2.4,60.01748909630444,2025-09-18 14h34.07.626329 +0200,
35,0,35,,,,,,space,2.4170102999996743,None,None,3,0.9544638999996096,0.1546183000000383,None,0,0,0,0,,,,,1,0,1,0,,,,,35,0,35,0,805.7192690000002,,,,,,,,,,,,,,,,,,,,,,,,,,,,,,,,,,,,,,,,,,,,,,,,,,,,,,,,,Juwel,2.636,805.7041430999998,805.7047982000004,805.7049031000006,805.7192690000002,808.3689252000004,808.3533198000005,808.3599936999999,808.3689252000004,808.3689252000004,808.3689252000004,808.3689252000004,810.3689078000007,810.3689078000007,810.3689078000007,810.3689078000007,810.3534927999999,3,0.9544638999996096,0.1546183000000383,None,,,,,,,,,,,,,,,,,,,,,,3141,1,2025-09-18_14h33.56.945,sm,2024.2.4,60.01748909630444,2025-09-18 14h34.07.626329 +0200,
36,0,36,,,,,,space,2.4170102999996743,None,None,3,1.1440032999998948,0.13926339999943593,None,0,0,0,0,,,,,1,0,1,0,,,,,36,0,36,0,810.3689078000007,,,,,,,,,,,,,,,,,,,,,,,,,,,,,,,,,,,,,,,,,,,,,,,,,,,,,,,,,Schmerz,2.0819,810.3540437000001,810.3545613000006,810.3546734000001,810.3689078000007,812.4519918000005,812.4364870999998,812.4406625000001,812.4519918000005,812.4519918000005,812.4519918000005,812.4519918000005,814.4521427999998,814.4521427999998,814.4521427999998,814.4521427999998,814.4365328000004,3,1.1440032999998948,0.13926339999943593,None,,,,,,,,,,,,,,,,,,,,,,3141,1,2025-09-18_14h33.56.945,sm,2024.2.4,60.01748909630444,2025-09-18 14h34.07.626329 +0200,
37,0,37,,,,,,space,2.4170102999996743,None,None,3,1.154818900000464,0.18370479999975942,None,0,0,0,0,,,,,1,0,1,0,,,,,37,0,37,0,814.4521427999998,,,,,,,,,,,,,,,,,,,,,,,,,,,,,,,,,,,,,,,,,,,,,,,,,,,,,,,,,Foto,3.402,814.4370398000001,814.4375383000006,814.4376419999999,814.4521427999998,817.8683345,817.8527287000006,817.8564068000005,817.8683345,817.8683345,817.8683345,817.8683345,819.8682421000003,819.8682421000003,819.8682421000003,819.8682421000003,819.8526105999999,3,1.154818900000464,0.18370479999975942,None,,,,,,,,,,,,,,,,,,,,,,3141,1,2025-09-18_14h33.56.945,sm,2024.2.4,60.01748909630444,2025-09-18 14h34.07.626329 +0200,
38,0,38,,,,,,space,2.4170102999996743,None,None,3,0.7474277000001166,0.15258080000057817,None,0,0,0,0,,,,,1,0,1,0,,,,,38,0,38,0,819.8682421000003,,,,,,,,,,,,,,,,,,,,,,,,,,,,,,,,,,,,,,,,,,,,,,,,,,,,,,,,,Geschirr,3.1826,819.8531133000006,819.8537523000005,819.8538551000001,819.8682421000003,823.0518357000001,823.0359529000007,823.0401993000005,823.0518357000001,823.0518357000001,823.0518357000001,823.0518357000001,825.0516452000002,825.0516452000002,825.0516452000002,825.0516452000002,825.0359844000004,3,0.7474277000001166,0.15258080000057817,None,,,,,,,,,,,,,,,,,,,,,,3141,1,2025-09-18_14h33.56.945,sm,2024.2.4,60.01748909630444,2025-09-18 14h34.07.626329 +0200,
39,0,39,,,,,,space,2.4170102999996743,None,None,None,,,None,0,0,0,0,,,,,1,0,1,0,,,,,39,0,39,0,825.0516452000002,,,,,,,,,,,,,,,,,,,,,,,,,,,,,,,,,,,,,,,,,,,,,,,,,,,,,,,,,Weltraum,2.8467,825.036494,825.0369962000004,825.0371040999999,825.0516452000002,827.9010617000004,827.8855057999999,827.8895331000003,827.9010617000004,827.9010617000004,827.9010617000004,827.9010617000004,829.9011497000001,829.9011497000001,829.9011497000001,829.9011497000001,829.8858266000007,None,,,None,,,,,,,,,,,,,,,,,,,,,,3141,1,2025-09-18_14h33.56.945,sm,2024.2.4,60.01748909630444,2025-09-18 14h34.07.626329 +0200,
40,0,40,,,,,,space,2.4170102999996743,None,None,2,0.9241814999995768,0.17054210000060266,None,0,0,0,0,,,,,1,0,1,0,,,,,40,0,40,0,829.9011497000001,,,,,,,,,,,,,,,,,,,,,,,,,,,,,,,,,,,,,,,,,,,,,,,,,,,,,,,,,Elephant,2.4832,829.8863393000001,829.8869992,829.8871147,829.9011497000001,832.3844249000003,832.368684,832.3729987000006,832.3844249000003,832.3844249000003,832.3844249000003,832.3844249000003,834.3841158000005,834.3841158000005,834.3841158000005,834.3841158000005,834.3686204000005,2,0.9241814999995768,0.17054210000060266,None,,,,,,,,,,,,,,,,,,,,,,3141,1,2025-09-18_14h33.56.945,sm,2024.2.4,60.01748909630444,2025-09-18 14h34.07.626329 +0200,
41,0,41,,,,,,space,2.4170102999996743,None,None,3,0.8950082000001203,0.18548980000014126,None,0,0,0,0,,,,,1,0,1,0,,,,,41,0,41,0,834.3841158000005,,,,,,,,,,,,,,,,,,,,,,,,,,,,,,,,,,,,,,,,,,,,,,,,,,,,,,,,,Geburtstag,4.4444,834.3691276999998,834.3697046000007,834.3698101,834.3841158000005,838.8337639000001,838.8181005000006,838.8217125000001,838.8337639000001,838.8337639000001,838.8337639000001,838.8337639000001,840.8339655,840.8339655,840.8339655,840.8339655,840.8179347000005,3,0.8950082000001203,0.18548980000014126,None,,,,,,,,,,,,,,,,,,,,,,3141,1,2025-09-18_14h33.56.945,sm,2024.2.4,60.01748909630444,2025-09-18 14h34.07.626329 +0200,
42,0,42,,,,,,space,2.4170102999996743,None,None,3,1.3128161000004184,0.15717099999983475,None,0,0,0,0,,,,,1,0,1,0,,,,,42,0,42,0,840.8339655,,,,,,,,,,,,,,,,,,,,,,,,,,,,,,,,,,,,,,,,,,,,,,,,,,,,,,,,,Trocken,3.0938,840.8184123000001,840.8191373999998,840.8192425000007,840.8339655,843.9335564000003,843.9181181000004,843.9215685999998,843.9335564000003,843.9335564000003,843.9335564000003,843.9335564000003,845.9335597999998,845.9335597999998,845.9335597999998,845.9335597999998,845.9177416000002,3,1.3128161000004184,0.15717099999983475,None,,,,,,,,,,,,,,,,,,,,,,3141,1,2025-09-18_14h33.56.945,sm,2024.2.4,60.01748909630444,2025-09-18 14h34.07.626329 +0200,
43,0,43,,,,,,space,2.4170102999996743,None,None,3,0.6805913000007422,0.17891729999973904,None,0,0,0,0,,,,,1,0,1,0,,,,,43,0,43,0,845.9335597999998,,,,,,,,,,,,,,,,,,,,,,,,,,,,,,,,,,,,,,,,,,,,,,,,,,,,,,,,,Ringe,2.2202,845.9182498,845.9189126000001,845.9190218000003,845.9335597999998,848.1666114999998,848.1505901,848.1533852000002,848.1666114999998,848.1666114999998,848.1666114999998,848.1666114999998,850.1668178,850.1668178,850.1668178,850.1668178,850.1510777000003,3,0.6805913000007422,0.17891729999973904,None,,,,,,,,,,,,,,,,,,,,,,3141,1,2025-09-18_14h33.56.945,sm,2024.2.4,60.01748909630444,2025-09-18 14h34.07.626329 +0200,
44,0,44,,,,,,space,2.4170102999996743,None,None,3,0.8113614000003508,0.17612239999925805,None,0,0,0,0,,,,,1,0,1,0,,,,,44,0,44,0,850.1668178,,,,,,,,,,,,,,,,,,,,,,,,,,,,,,,,,,,,,,,,,,,,,,,,,,,,,,,,,Tee,2.0258,850.1515540999999,850.1520447000003,850.1521425999999,850.1668178,852.1997399000002,852.1841924999999,852.1885493,852.1997399000002,852.1997399000002,852.1997399000002,852.1997399000002,854.1997399000002,854.1997399000002,854.1997399000002,854.1997399000002,854.1839533000002,3,0.8113614000003508,0.17612239999925805,None,,,,,,,,,,,,,,,,,,,,,,3141,1,2025-09-18_14h33.56.945,sm,2024.2.4,60.01748909630444,2025-09-18 14h34.07.626329 +0200,
45,0,45,,,,,,space,2.4170102999996743,None,None,2,1.5212056999998822,0.1380524999995032,None,0,0,0,0,,,,,1,0,1,0,,,,,45,0,45,0,854.1997399000002,,,,,,,,,,,,,,,,,,,,,,,,,,,,,,,,,,,,,,,,,,,,,,,,,,,,,,,,,Theater,3.102,854.1844560999998,854.1851130000005,854.1852201000002,854.1997399000002,857.3159426000002,857.3005440000006,857.3046413000002,857.3159426000002,857.3159426000002,857.3159426000002,857.3159426000002,859.3160206000002,859.3160206000002,859.3160206000002,859.3160206000002,859.3004533000003,2,1.5212056999998822,0.1380524999995032,None,,,,,,,,,,,,,,,,,,,,,,3141,1,2025-09-18_14h33.56.945,sm,2024.2.4,60.01748909630444,2025-09-18 14h34.07.626329 +0200,
46,0,46,,,,,,space,2.4170102999996743,None,None,2,0.8292276000001948,0.18568219999997382,None,0,0,0,0,,,,,1,0,1,0,,,,,46,0,46,0,859.3160206000002,,,,,,,,,,,,,,,,,,,,,,,,,,,,,,,,,,,,,,,,,,,,,,,,,,,,,,,,,Ziege,3.2772,859.3009601000003,859.3016237000002,859.3017367000002,859.3160206000002,862.5992770000003,862.5838783999998,862.5878622,862.5992770000003,862.5992770000003,862.5992770000003,862.5992770000003,864.5992589000007,864.5992589000007,864.5992589000007,864.5992589000007,864.5835105000006,2,0.8292276000001948,0.18568219999997382,None,,,,,,,,,,,,,,,,,,,,,,3141,1,2025-09-18_14h33.56.945,sm,2024.2.4,60.01748909630444,2025-09-18 14h34.07.626329 +0200,
47,0,47,,,,,,space,2.4170102999996743,None,None,3,1.4104418999995687,0.22245590000056836,None,0,0,0,0,,,,,1,0,1,0,,,,,47,0,47,0,864.5992589000007,,,,,,,,,,,,,,,,,,,,,,,,,,,,,,,,,,,,,,,,,,,,,,,,,,,,,,,,,Orange,2.5632,864.5839876999999,864.5844818000005,864.5845808000004,864.5992589000007,867.1664043000001,867.1496164999999,867.1549816000006,867.1664043000001,867.1664043000001,867.1664043000001,867.1664043000001,869.1654917000005,869.1654917000005,869.1654917000005,869.1654917000005,869.1501212000003,3,1.4104418999995687,0.22245590000056836,None,,,,,,,,,,,,,,,,,,,,,,3141,1,2025-09-18_14h33.56.945,sm,2024.2.4,60.01748909630444,2025-09-18 14h34.07.626329 +0200,
48,0,48,,,,,,space,2.4170102999996743,None,None,3,1.454701099999511,0.20539690000077826,None,0,0,0,0,,,,,1,0,1,0,,,,,48,0,48,0,869.1654917000005,,,,,,,,,,,,,,,,,,,,,,,,,,,,,,,,,,,,,,,,,,,,,,,,,,,,,,,,,Lernen,2.1785,869.1506258,869.1512657000003,869.1513696000002,869.1654917000005,871.3485249000005,871.3324627000002,871.3358262000002,871.3485249000005,871.3485249000005,871.3485249000005,871.3485249000005,873.3486465000005,873.3486465000005,873.3486465000005,873.3486465000005,873.3330480000004,3,1.454701099999511,0.20539690000077826,None,,,,,,,,,,,,,,,,,,,,,,3141,1,2025-09-18_14h33.56.945,sm,2024.2.4,60.01748909630444,2025-09-18 14h34.07.626329 +0200,
49,0,49,,,,,,space,2.4170102999996743,None,None,3,1.662716800000453,0.16353609999987384,None,0,0,0,0,,,,,1,0,1,0,,,,,49,0,49,0,873.3486465000005,,,,,,,,,,,,,,,,,,,,,,,,,,,,,,,,,,,,,,,,,,,,,,,,,,,,,,,,,Gipfel,2.4505,873.3335617000002,873.3340684000004,873.3341709000006,873.3486465000005,875.7991386000003,875.7827093000005,875.7866826999998,875.7991386000003,875.7991386000003,875.7991386000003,875.7991386000003,877.7981942000006,877.7981942000006,877.7981942000006,877.7981942000006,877.7828428000003,3,1.662716800000453,0.16353609999987384,None,,,,,,,,,,,,,,,,,,,,,,3141,1,2025-09-18_14h33.56.945,sm,2024.2.4,60.01748909630444,2025-09-18 14h34.07.626329 +0200,
50,0,50,,,,,,space,2.4170102999996743,None,None,3,1.3000357999999324,0.16195329999936803,None,0,0,0,0,,,,,1,0,1,0,,,,,50,0,50,0,877.7981942000006,,,,,,,,,,,,,,,,,,,,,,,,,,,,,,,,,,,,,,,,,,,,,,,,,,,,,,,,,Rasen,3.9591,877.7833489000004,877.7840655,877.7841782000005,877.7981942000006,881.7645840000005,881.7489192000003,881.7533066000005,881.7645840000005,881.7645840000005,881.7645840000005,881.7645840000005,883.764717,883.764717,883.764717,883.764717,883.7491903999999,3,1.3000357999999324,0.16195329999936803,None,,,,,,,,,,,,,,,,,,,,,,3141,1,2025-09-18_14h33.56.945,sm,2024.2.4,60.01748909630444,2025-09-18 14h34.07.626329 +0200,
51,0,51,,,,,,space,2.4170102999996743,None,None,3,1.2322448000004442,0.19058069999937288,None,0,0,0,0,,,,,1,0,1,0,,,,,51,0,51,0,883.764717,,,,,,,,,,,,,,,,,,,,,,,,,,,,,,,,,,,,,,,,,,,,,,,,,,,,,,,,,Nummer,2.3085,883.7496982000002,883.7503476000002,883.7504520000002,883.764717,886.0808625999998,886.0653582000004,886.0693710000005,886.0808625999998,886.0808625999998,886.0808625999998,886.0808625999998,888.0809924000005,888.0809924000005,888.0809924000005,888.0809924000005,888.0655022999999,3,1.2322448000004442,0.19058069999937288,None,,,,,,,,,,,,,,,,,,,,,,3141,1,2025-09-18_14h33.56.945,sm,2024.2.4,60.01748909630444,2025-09-18 14h34.07.626329 +0200,
52,0,52,,,,,,space,2.4170102999996743,None,None,3,1.23987710000074,0.17940249999992375,None,0,0,0,0,,,,,1,0,1,0,,,,,52,0,52,0,888.0809924000005,,,,,,,,,,,,,,,,,,,,,,,,,,,,,,,,,,,,,,,,,,,,,,,,,,,,,,,,,Chips,2.2922,888.0660127000001,888.0665297000005,888.0666437,888.0809924000005,890.3807126000002,890.3653979999999,890.3719175000006,890.3807126000002,890.3807126000002,890.3807126000002,890.3807126000002,892.3810100000001,892.3810100000001,892.3810100000001,892.3810100000001,892.3654480000005,3,1.23987710000074,0.17940249999992375,None,,,,,,,,,,,,,,,,,,,,,,3141,1,2025-09-18_14h33.56.945,sm,2024.2.4,60.01748909630444,2025-09-18 14h34.07.626329 +0200,
53,0,53,,,,,,space,2.4170102999996743,None,None,3,1.2501145000005636,0.2979537999999593,None,0,0,0,0,,,,,1,0,1,0,,,,,53,0,53,0,892.3810100000001,,,,,,,,,,,,,,,,,,,,,,,,,,,,,,,,,,,,,,,,,,,,,,,,,,,,,,,,,Puppe,2.7465,892.3659656999998,892.3664782000005,892.3665818,892.3810100000001,895.1306227000005,895.1148096000006,895.1178255000004,895.1306227000005,895.1306227000005,895.1306227000005,895.1306227000005,897.1303807000004,897.1303807000004,897.1303807000004,897.1303807000004,897.1148387000003,3,1.2501145000005636,0.2979537999999593,None,,,,,,,,,,,,,,,,,,,,,,3141,1,2025-09-18_14h33.56.945,sm,2024.2.4,60.01748909630444,2025-09-18 14h34.07.626329 +0200,
54,0,54,,,,,,space,2.4170102999996743,None,None,2,1.5454045000005863,0.1555806999995184,None,0,0,0,0,,,,,1,0,1,0,,,,,54,0,54,0,897.1303807000004,,,,,,,,,,,,,,,,,,,,,,,,,,,,,,,,,,,,,,,,,,,,,,,,,,,,,,,,,Gruppe,3.575,897.1152933000003,897.1157735000006,897.1158693000007,897.1303807000004,900.7135041000001,900.6978312000001,900.7014229000006,900.7135041000001,900.7135041000001,900.7135041000001,900.7135041000001,902.7136822000002,902.7136822000002,902.7136822000002,902.7136822000002,902.6979116000002,2,1.5454045000005863,0.1555806999995184,None,,,,,,,,,,,,,,,,,,,,,,3141,1,2025-09-18_14h33.56.945,sm,2024.2.4,60.01748909630444,2025-09-18 14h34.07.626329 +0200,
55,0,55,,,,,,space,2.4170102999996743,None,None,3,0.6968423999996958,0.19338340000012977,None,0,0,0,0,,,,,1,0,1,0,,,,,55,0,55,0,902.7136822000002,,,,,,,,,,,,,,,,,,,,,,,,,,,,,,,,,,,,,,,,,,,,,,,,,,,,,,,,,Küche,2.5142,902.6984282000003,902.6989328,902.6990409,902.7136822000002,905.2299662000005,905.2144145000002,905.2177196000002,905.2299662000005,905.2299662000005,905.2299662000005,905.2299662000005,907.2299091000004,907.2299091000004,907.2299091000004,907.2299091000004,907.2143987999998,3,0.6968423999996958,0.19338340000012977,None,,,,,,,,,,,,,,,,,,,,,,3141,1,2025-09-18_14h33.56.945,sm,2024.2.4,60.01748909630444,2025-09-18 14h34.07.626329 +0200,
56,0,56,,,,,,space,2.4170102999996743,None,None,3,1.199392199999238,0.16196230000059586,None,0,0,0,0,,,,,1,0,1,0,,,,,56,0,56,0,907.2299091000004,,,,,,,,,,,,,,,,,,,,,,,,,,,,,,,,,,,,,,,,,,,,,,,,,,,,,,,,,Klee,2.0629,907.2149078000002,907.2154237000004,907.2155283000002,907.2299091000004,909.2969075000001,909.2812192000001,909.2857951000005,909.2969075000001,909.2969075000001,909.2969075000001,909.2969075000001,911.2964141000002,911.2964141000002,911.2964141000002,911.2964141000002,911.2808838000001,3,1.199392199999238,0.16196230000059586,None,,,,,,,,,,,,,,,,,,,,,,3141,1,2025-09-18_14h33.56.945,sm,2024.2.4,60.01748909630444,2025-09-18 14h34.07.626329 +0200,
57,0,57,,,,,,space,2.4170102999996743,None,None,3,0.8672619999997551,0.13337229999979172,None,0,0,0,0,,,,,1,0,1,0,,,,,57,0,57,0,911.2964141000002,,,,,,,,,,,,,,,,,,,,,,,,,,,,,,,,,,,,,,,,,,,,,,,,,,,,,,,,,Rock,3.488,911.2813833999999,911.2821264000004,911.2822311999998,911.2964141000002,914.7964701000001,914.7805839000002,914.7843380000004,914.7964701000001,914.7964701000001,914.7964701000001,914.7964701000001,916.7960311000006,916.7960311000006,916.7960311000006,916.7960311000006,916.7806337000002,3,0.8672619999997551,0.13337229999979172,None,,,,,,,,,,,,,,,,,,,,,,3141,1,2025-09-18_14h33.56.945,sm,2024.2.4,60.01748909630444,2025-09-18 14h34.07.626329 +0200,
58,0,58,,,,,,space,2.4170102999996743,None,None,3,1.261037899999792,0.20400169999993523,None,0,0,0,0,,,,,1,0,1,0,,,,,58,0,58,0,916.7960311000006,,,,,,,,,,,,,,,,,,,,,,,,,,,,,,,,,,,,,,,,,,,,,,,,,,,,,,,,,Riechen,5.5483,916.7811391000005,916.7816662000005,916.7817701000004,916.7960311000006,922.3456864999998,922.3305079000002,922.3345866,922.3456864999998,922.3456864999998,922.3456864999998,922.3456864999998,924.3461655000001,924.3461655000001,924.3461655000001,924.3461655000001,924.3303138000001,3,1.261037899999792,0.20400169999993523,None,,,,,,,,,,,,,,,,,,,,,,3141,1,2025-09-18_14h33.56.945,sm,2024.2.4,60.01748909630444,2025-09-18 14h34.07.626329 +0200,
59,0,59,,,,,,space,2.4170102999996743,None,None,3,0.7687519000000975,0.29357230000005075,None,0,0,0,0,,,,,1,0,1,0,,,,,59,0,59,0,924.3461655000001,,,,,,,,,,,,,,,,,,,,,,,,,,,,,,,,,,,,,,,,,,,,,,,,,,,,,,,,,Tasche,2.4935,924.3308259000005,924.3314203999998,924.3315921000003,924.3461655000001,926.8454185,926.8298361000006,926.8335636000002,926.8454185,926.8454185,926.8454185,926.8454185,928.8452324,928.8452324,928.8452324,928.8452324,928.8298236999999,3,0.7687519000000975,0.29357230000005075,None,,,,,,,,,,,,,,,,,,,,,,3141,1,2025-09-18_14h33.56.945,sm,2024.2.4,60.01748909630444,2025-09-18 14h34.07.626329 +0200,
60,0,60,,,,,,space,2.4170102999996743,None,None,None,,,None,0,0,0,0,,,,,1,0,1,0,,,,,60,0,60,0,928.8452324,,,,,,,,,,,,,,,,,,,,,,,,,,,,,,,,,,,,,,,,,,,,,,,,,,,,,,,,,Wahrheit,2.9443,928.8303384999999,928.8310738999999,928.8311795,928.8452324,931.7951366000007,931.7795280999999,931.7830430000004,931.7951366000007,931.7951366000007,931.7951366000007,931.7951366000007,933.7951743000003,933.7951743000003,933.7951743000003,933.7951743000003,933.7794867000002,None,,,None,,,,,,,,,,,,,,,,,,,,,,3141,1,2025-09-18_14h33.56.945,sm,2024.2.4,60.01748909630444,2025-09-18 14h34.07.626329 +0200,
61,0,61,,,,,,space,2.4170102999996743,None,None,3,0.7176159999999072,0.13864669999929902,None,0,0,0,0,,,,,1,0,1,0,,,,,61,0,61,0,933.7951743000003,,,,,,,,,,,,,,,,,,,,,,,,,,,,,,,,,,,,,,,,,,,,,,,,,,,,,,,,,Gleis,2.0054,933.779955,933.7805985000005,933.7807048000004,933.7951743000003,935.8115945,935.7962354000001,935.7995043999999,935.8115945,935.8115945,935.8115945,935.8115945,937.8115158,937.8115158,937.8115158,937.8115158,937.7960131,3,0.7176159999999072,0.13864669999929902,None,,,,,,,,,,,,,,,,,,,,,,3141,1,2025-09-18_14h33.56.945,sm,2024.2.4,60.01748909630444,2025-09-18 14h34.07.626329 +0200,
62,0,62,,,,,,space,2.4170102999996743,None,None,3,0.9336294000004273,0.16265719999955763,None,0,0,0,0,,,,,1,0,1,0,,,,,62,0,62,0,937.8115158,,,,,,,,,,,,,,,,,,,,,,,,,,,,,,,,,,,,,,,,,,,,,,,,,,,,,,,,,Urlaub,4.1781,937.7965226000006,937.7970349000007,937.7971459999999,937.8115158,941.9954882000002,941.9789184000001,941.9829993000003,941.9954882000002,941.9954882000002,941.9954882000002,941.9954882000002,943.9949758000002,943.9949758000002,943.9949758000002,943.9949758000002,943.9790143999999,3,0.9336294000004273,0.16265719999955763,None,,,,,,,,,,,,,,,,,,,,,,3141,1,2025-09-18_14h33.56.945,sm,2024.2.4,60.01748909630444,2025-09-18 14h34.07.626329 +0200,
63,0,63,,,,,,space,2.4170102999996743,None,None,3,0.7146541000001889,0.14030619999994087,None,0,0,0,0,,,,,1,0,1,0,,,,,63,0,63,0,943.9949758000002,,,,,,,,,,,,,,,,,,,,,,,,,,,,,,,,,,,,,,,,,,,,,,,,,,,,,,,,,Brille,2.7809,943.9795236999998,943.9801722000002,943.9802774999998,943.9949758000002,946.7776840000006,946.7624225999998,946.7669892000004,946.7776840000006,946.7776840000006,946.7776840000006,946.7776840000006,948.7778349999999,948.7778349999999,948.7778349999999,948.7778349999999,948.7625466999998,3,0.7146541000001889,0.14030619999994087,None,,,,,,,,,,,,,,,,,,,,,,3141,1,2025-09-18_14h33.56.945,sm,2024.2.4,60.01748909630444,2025-09-18 14h34.07.626329 +0200,
