thisN,thisTrialN,thisRepN,Cue,Target,Mediator1,Mediator2,iti,scanner_ready_press.keys,scanner_ready_press.rt,scanner_ready_press.duration,skip_trigger.keys,living_nonliving.keys,living_nonliving.rt,living_nonliving.duration,end_mapping.keys,blocks.thisRepN,blocks.thisTrialN,blocks.thisN,blocks.thisIndex,load_and_shuffle.thisRepN,load_and_shuffle.thisTrialN,load_and_shuffle.thisN,load_and_shuffle.thisIndex,runs.thisRepN,runs.thisTrialN,runs.thisN,runs.thisIndex,iti_loading_loop.thisRepN,iti_loading_loop.thisTrialN,iti_loading_loop.thisN,iti_loading_loop.thisIndex,semantic_mapping_run.thisRepN,semantic_mapping_run.thisTrialN,semantic_mapping_run.thisN,semantic_mapping_run.thisIndex,thisRow.t,notes,welcome.started,welcome_text.started,key_resp__welcome.started,welcome.stopped,key_resp__welcome.keys,key_resp__welcome.rt,key_resp__welcome.duration,scout.started,scout_text.started,key_resp.started,scout.stopped,key_resp.keys,key_resp.rt,key_resp.duration,instructions_semantic_mapping1.started,sm_instructions1_text.started,sm_instructions1_key.started,instructions_semantic_mapping1.stopped,sm_instructions1_key.keys,sm_instructions1_key.rt,sm_instructions1_key.duration,instructions_semantic_mapping2.started,sm_instructions2_text.started,sm_instructions2_key.started,instructions_semantic_mapping2.stopped,sm_instructions2_key.keys,sm_instructions2_key.rt,sm_instructions2_key.duration,reset_run.started,reset_run.stopped,shuffle_items.started,shuffle_items.stopped,set_up_runs.started,set_up_runs.stopped,load_iti.started,load_iti.stopped,prep_scanner.started,scanner_ready_press.started,ready_set_text.started,prep_scanner.stopped,runs.scanner_ready_press.keys,runs.scanner_ready_press.rt,runs.scanner_ready_press.duration,wait_for_trigger.started,starting_soon.started,skip_trigger.started,wait_for_trigger.stopped,runs.skip_trigger.keys,blank.started,begin_end_run_cross.started,sound_1.started,sound_1.stopped,sound_2.started,sound_2.stopped,blank.stopped,CurrentItem,CurrentITI,set_up_trial.started,set_up_trial.stopped,sm_iti.started,iti_cross.started,iti_cross.stopped,sm_iti.stopped,item.started,living_nonliving.started,end_mapping.started,living_nonliving_text.started,semantic_map_item.started,living_nonliving.stopped,end_mapping.stopped,living_nonliving_text.stopped,semantic_map_item.stopped,item.stopped,semantic_mapping_run.living_nonliving.keys,semantic_mapping_run.living_nonliving.rt,semantic_mapping_run.living_nonliving.duration,semantic_mapping_run.end_mapping.keys,fieldmap.started,fieldmap.stopped,runs.fm_key.keys,task_break.started,feeback_text.started,task_break_text.started,task_break_resp.started,feeback_text.stopped,task_break.stopped,runs.task_break_resp.keys,runs.task_break_resp.rt,runs.task_break_resp.duration,begin_end_run_cross.stopped,fm_text.started,fm_key.started,runs.fm_key.rt,runs.fm_key.duration,thanks.started,thanks_text.started,thanks_text.stopped,thanks.stopped,PID,MRI,date,expName,psychopyVersion,frameRate,expStart,
,,,,,,,,,,,,,,,,,,,,,,,,,,,,,,,,,,,,,,0.004557599999316153,0.013426199999230448,0.013426199999230448,132.7721062999999,space,132.74689300000045,None,,,,,,,,,,,,,,,,,,,,,,,,,,,,,,,,,,,,,,,,,,,,,,,,,,,,,,,,,,,,,,,,,,,,,,,,,,,,,,,,,,,,,,,,,,,,1029,1,2025-09-22_12h58.39.487,sm,2024.2.4,59.97130972535801,2025-09-22 12h58.49.613032 +0200,
,,,,,,,,,,,,,,,,,,,,,,,,,,,,,,,,,,,,,,,,,,,,,132.7722423999994,132.78071029999955,132.78071029999955,232.9099301999995,space,100.12368559999959,None,,,,,,,,,,,,,,,,,,,,,,,,,,,,,,,,,,,,,,,,,,,,,,,,,,,,,,,,,,,,,,,,,,,,,,,,,,,,,,,,,,,,,1029,1,2025-09-22_12h58.39.487,sm,2024.2.4,59.97130972535801,2025-09-22 12h58.49.613032 +0200,
,,,,,,,,,,,,,,,,,,,,,,,,,,,,,,,,,,,,,,,,,,,,,,,,,,,,232.9100413999995,232.92665299999953,232.92665299999953,238.7283110999997,3,5.797366199999487,None,,,,,,,,,,,,,,,,,,,,,,,,,,,,,,,,,,,,,,,,,,,,,,,,,,,,,,,,,,,,,,,,,,,,,,,,,,,,,,1029,1,2025-09-22_12h58.39.487,sm,2024.2.4,59.97130972535801,2025-09-22 12h58.49.613032 +0200,
,,,,,,,,,,,,,,,,,,,,,,,,,,,,,,,,,,,,,,,,,,,,,,,,,,,,,,,,,,,238.72842539999965,238.74309359999916,238.74309359999916,246.52776129999984,2,7.769986199999948,None,,,,,,,,,,,,,,,,,,,,,,,,,,,,,,,,,,,,,,,,,,,,,,,,,,,,,,,,,,,,,,,,,,,,,,,1029,1,2025-09-22_12h58.39.487,sm,2024.2.4,59.97130972535801,2025-09-22 12h58.49.613032 +0200,
0,0,0,Statue,Monument,Stein,Marmor,2.289,space,2.434613100000206,None,None,3,1.7999628999996276,None,None,0,0,0,0,0,79,79,53,0,0,0,0,0,79,79,26,0,0,0,0,308.3723760999992,,,,,,,,,,,,,,,,,,,,,,,,,,,,,,246.5287013999996,246.52942099999927,246.59973899999932,246.60002989999975,246.60462689999986,246.60488899999928,246.6330307999997,246.63320169999952,246.6396453999996,246.64440789999935,246.64440789999935,249.09472099999948,space,2.434613100000206,None,249.09487619999982,249.10897739999928,249.10897739999928,296.3413168999996,None,296.35038559999975,296.3590553999993,296.35661276666656,297.5595432,306.3562479666664,307.35955879999983,308.3559891999994,Soße,2.289,308.3574738999996,308.3582099999994,308.3617336999996,308.3723760999992,310.6719809999995,310.6563062999994,310.6597548999998,310.6719809999995,310.6719809999995,310.6719809999995,310.6719809999995,312.67207509999935,312.67207509999935,312.67207509999935,312.67207509999935,312.6566146999994,3,1.7999628999996276,None,None,,,,,,,,,,,,,,,,,,,,,,1029,1,2025-09-22_12h58.39.487,sm,2024.2.4,59.97130972535801,2025-09-22 12h58.49.613032 +0200,
1,0,1,,,,,,space,2.434613100000206,None,None,3,1.1162510999993174,0.26920030000019324,None,0,0,0,0,,,,,0,0,0,0,,,,,1,0,1,0,312.67207509999935,,,,,,,,,,,,,,,,,,,,,,,,,,,,,,,,,,,,,,,,,,,,,,,,,,,,,,,,,Hilfe,3.1542,312.65713249999953,312.6576651999994,312.6577729999999,312.67207509999935,315.8384765999999,315.8230330999995,315.8304355999999,315.8384765999999,315.8384765999999,315.8384765999999,315.8384765999999,317.8387077999996,317.8387077999996,317.8387077999996,317.8387077999996,317.82300119999945,3,1.1162510999993174,0.26920030000019324,None,,,,,,,,,,,,,,,,,,,,,,1029,1,2025-09-22_12h58.39.487,sm,2024.2.4,59.97130972535801,2025-09-22 12h58.49.613032 +0200,
2,0,2,,,,,,space,2.434613100000206,None,None,2,0.7495150999993712,0.20068300000002637,None,0,0,0,0,,,,,0,0,0,0,,,,,2,0,2,0,317.8387077999996,,,,,,,,,,,,,,,,,,,,,,,,,,,,,,,,,,,,,,,,,,,,,,,,,,,,,,,,,Ehe,4.8079,317.8235049999994,317.82411819999925,317.82422699999915,317.8387077999996,322.6548143,322.6393320999996,322.64341719999993,322.6548143,322.6548143,322.6548143,322.6548143,324.6547966999997,324.6547966999997,324.6547966999997,324.6547966999997,324.63925329999984,2,0.7495150999993712,0.20068300000002637,None,,,,,,,,,,,,,,,,,,,,,,1029,1,2025-09-22_12h58.39.487,sm,2024.2.4,59.97130972535801,2025-09-22 12h58.49.613032 +0200,
3,0,3,,,,,,space,2.434613100000206,None,None,3,1.0382496000001993,0.2185050999996747,None,0,0,0,0,,,,,0,0,0,0,,,,,3,0,3,0,324.6547966999997,,,,,,,,,,,,,,,,,,,,,,,,,,,,,,,,,,,,,,,,,,,,,,,,,,,,,,,,,Haare,2.3884,324.63976489999914,324.6402720999995,324.6403797999992,324.6547966999997,327.0544312999991,327.03885379999974,327.0426037999996,327.0544312999991,327.0544312999991,327.0544312999991,327.0544312999991,329.05433059999996,329.05433059999996,329.05433059999996,329.05433059999996,329.0389718999995,3,1.0382496000001993,0.2185050999996747,None,,,,,,,,,,,,,,,,,,,,,,1029,1,2025-09-22_12h58.39.487,sm,2024.2.4,59.97130972535801,2025-09-22 12h58.49.613032 +0200,
4,0,4,,,,,,space,2.434613100000206,None,None,2,1.3337760000003982,0.1956798000001072,None,0,0,0,0,,,,,0,0,0,0,,,,,4,0,4,0,329.05433059999996,,,,,,,,,,,,,,,,,,,,,,,,,,,,,,,,,,,,,,,,,,,,,,,,,,,,,,,,,Safari,2.2568,329.03946649999943,329.0401011999993,329.04020859999946,329.05433059999996,331.32078639999963,331.3052528999997,331.30877019999934,331.32078639999963,331.32078639999963,331.32078639999963,331.32078639999963,333.3207593999996,333.3207593999996,333.3207593999996,333.3207593999996,333.30540089999977,2,1.3337760000003982,0.1956798000001072,None,,,,,,,,,,,,,,,,,,,,,,1029,1,2025-09-22_12h58.39.487,sm,2024.2.4,59.97130972535801,2025-09-22 12h58.49.613032 +0200,
5,0,5,,,,,,space,2.434613100000206,None,None,2,1.2396327999995265,0.18755920000057813,None,0,0,0,0,,,,,0,0,0,0,,,,,5,0,5,0,333.3207593999996,,,,,,,,,,,,,,,,,,,,,,,,,,,,,,,,,,,,,,,,,,,,,,,,,,,,,,,,,Lokomotive,2.6027,333.30589989999953,333.3065383999992,333.30664459999934,333.3207593999996,335.9374840999999,335.9218592999996,335.92628289999993,335.9374840999999,335.9374840999999,335.9374840999999,335.9374840999999,337.93727339999987,337.93727339999987,337.93727339999987,337.93727339999987,337.92177229999925,2,1.2396327999995265,0.18755920000057813,None,,,,,,,,,,,,,,,,,,,,,,1029,1,2025-09-22_12h58.39.487,sm,2024.2.4,59.97130972535801,2025-09-22 12h58.49.613032 +0200,
6,0,6,,,,,,space,2.434613100000206,None,None,3,1.0495333999997456,0.2173387000002549,None,0,0,0,0,,,,,0,0,0,0,,,,,6,0,6,0,337.93727339999987,,,,,,,,,,,,,,,,,,,,,,,,,,,,,,,,,,,,,,,,,,,,,,,,,,,,,,,,,Kerzen,2.1907,337.92227449999973,337.9229282999995,337.92303339999944,337.93727339999987,340.1378952999994,340.12129319999985,340.12727279999945,340.1378952999994,340.1378952999994,340.1378952999994,340.1378952999994,342.13708619999943,342.13708619999943,342.13708619999943,342.13708619999943,342.1221459999997,3,1.0495333999997456,0.2173387000002549,None,,,,,,,,,,,,,,,,,,,,,,1029,1,2025-09-22_12h58.39.487,sm,2024.2.4,59.97130972535801,2025-09-22 12h58.49.613032 +0200,
7,0,7,,,,,,space,2.434613100000206,None,None,3,0.6814748000006148,0.2319352999993498,None,0,0,0,0,,,,,0,0,0,0,,,,,7,0,7,0,342.13708619999943,,,,,,,,,,,,,,,,,,,,,,,,,,,,,,,,,,,,,,,,,,,,,,,,,,,,,,,,,Bürste,2.3028,342.12265709999974,342.12317229999917,342.1232803999992,342.13708619999943,344.4539944999997,344.43796199999997,344.44299819999924,344.4539944999997,344.4539944999997,344.4539944999997,344.4539944999997,346.4536677999995,346.4536677999995,346.4536677999995,346.4536677999995,346.4383814999992,3,0.6814748000006148,0.2319352999993498,None,,,,,,,,,,,,,,,,,,,,,,1029,1,2025-09-22_12h58.39.487,sm,2024.2.4,59.97130972535801,2025-09-22 12h58.49.613032 +0200,
8,0,8,,,,,,space,2.434613100000206,None,None,3,0.6806730000007519,0.25145399999928486,None,0,0,0,0,,,,,0,0,0,0,,,,,8,0,8,0,346.4536677999995,,,,,,,,,,,,,,,,,,,,,,,,,,,,,,,,,,,,,,,,,,,,,,,,,,,,,,,,,Zigarette,4.0401,346.4389016999994,346.43943279999985,346.4395453999996,346.4536677999995,350.50294569999915,350.4873066,350.4930568,350.50294569999915,350.50294569999915,350.50294569999915,350.50294569999915,352.5030748999998,352.5030748999998,352.5030748999998,352.5030748999998,352.48749019999923,3,0.6806730000007519,0.25145399999928486,None,,,,,,,,,,,,,,,,,,,,,,1029,1,2025-09-22_12h58.39.487,sm,2024.2.4,59.97130972535801,2025-09-22 12h58.49.613032 +0200,
9,0,9,,,,,,space,2.434613100000206,None,None,3,0.9505629000004774,0.2164389999998093,None,0,0,0,0,,,,,0,0,0,0,,,,,9,0,9,0,352.5030748999998,,,,,,,,,,,,,,,,,,,,,,,,,,,,,,,,,,,,,,,,,,,,,,,,,,,,,,,,,Zapfen,3.7874,352.48799099999997,352.48851319999994,352.4886246999995,352.5030748999998,356.30244239999956,356.2871222999993,356.29023459999917,356.30244239999956,356.30244239999956,356.30244239999956,356.30244239999956,358.30267449999974,358.30267449999974,358.30267449999974,358.30267449999974,358.2873445999994,3,0.9505629000004774,0.2164389999998093,None,,,,,,,,,,,,,,,,,,,,,,1029,1,2025-09-22_12h58.39.487,sm,2024.2.4,59.97130972535801,2025-09-22 12h58.49.613032 +0200,
10,0,10,,,,,,space,2.434613100000206,None,None,2,0.8480201000002126,0.19248239999978978,None,0,0,0,0,,,,,0,0,0,0,,,,,10,0,10,0,358.30267449999974,,,,,,,,,,,,,,,,,,,,,,,,,,,,,,,,,,,,,,,,,,,,,,,,,,,,,,,,,Ei,3.8444,358.2878498,358.28835549999985,358.28846389999944,358.30267449999974,362.15260019999914,362.1370352999993,362.1407320999997,362.15260019999914,362.15260019999914,362.15260019999914,362.15260019999914,364.1526596999993,364.1526596999993,364.1526596999993,364.1526596999993,364.13695149999967,2,0.8480201000002126,0.19248239999978978,None,,,,,,,,,,,,,,,,,,,,,,1029,1,2025-09-22_12h58.39.487,sm,2024.2.4,59.97130972535801,2025-09-22 12h58.49.613032 +0200,
11,0,11,,,,,,space,2.434613100000206,None,None,3,0.6153070999998818,0.24661579999974492,None,0,0,0,0,,,,,0,0,0,0,,,,,11,0,11,0,364.1526596999993,,,,,,,,,,,,,,,,,,,,,,,,,,,,,,,,,,,,,,,,,,,,,,,,,,,,,,,,,Album,3.017,364.1374614999995,364.13800209999954,364.1381158999993,364.1526596999993,367.16920409999966,367.1535701999992,367.1568893999993,367.16920409999966,367.16920409999966,367.16920409999966,367.16920409999966,369.16889159999937,369.16889159999937,369.16889159999937,369.16889159999937,369.15329909999946,3,0.6153070999998818,0.24661579999974492,None,,,,,,,,,,,,,,,,,,,,,,1029,1,2025-09-22_12h58.39.487,sm,2024.2.4,59.97130972535801,2025-09-22 12h58.49.613032 +0200,
12,0,12,,,,,,space,2.434613100000206,None,None,2,0.8507134999999835,0.2201331999995091,None,0,0,0,0,,,,,0,0,0,0,,,,,12,0,12,0,369.16889159999937,,,,,,,,,,,,,,,,,,,,,,,,,,,,,,,,,,,,,,,,,,,,,,,,,,,,,,,,,Schwimmen,4.2193,369.15380409999943,369.15433829999984,369.1544452999997,369.16889159999937,373.40156939999997,373.3860360999997,373.38976879999973,373.40156939999997,373.40156939999997,373.40156939999997,373.40156939999997,375.401879,375.401879,375.401879,375.401879,375.3865163999999,2,0.8507134999999835,0.2201331999995091,None,,,,,,,,,,,,,,,,,,,,,,1029,1,2025-09-22_12h58.39.487,sm,2024.2.4,59.97130972535801,2025-09-22 12h58.49.613032 +0200,
13,0,13,,,,,,space,2.434613100000206,None,None,2,1.0894989999997051,0.2054877000000488,None,0,0,0,0,,,,,0,0,0,0,,,,,13,0,13,0,375.401879,,,,,,,,,,,,,,,,,,,,,,,,,,,,,,,,,,,,,,,,,,,,,,,,,,,,,,,,,Humor,3.4659,375.3870107999992,375.38767299999927,375.3877823999992,375.401879,378.86830519999967,378.85261829999945,378.85700669999915,378.86830519999967,378.86830519999967,378.86830519999967,378.86830519999967,380.8680154999993,380.8680154999993,380.8680154999993,380.8680154999993,380.8525737,2,1.0894989999997051,0.2054877000000488,None,,,,,,,,,,,,,,,,,,,,,,1029,1,2025-09-22_12h58.39.487,sm,2024.2.4,59.97130972535801,2025-09-22 12h58.49.613032 +0200,
14,0,14,,,,,,space,2.434613100000206,None,None,2,0.8590539000006174,0.19549039999947126,None,0,0,0,0,,,,,0,0,0,0,,,,,14,0,14,0,380.8680154999993,,,,,,,,,,,,,,,,,,,,,,,,,,,,,,,,,,,,,,,,,,,,,,,,,,,,,,,,,Gruppe,2.1456,380.85307209999974,380.8535847999992,380.85368859999926,380.8680154999993,383.0180739999996,383.00235239999984,383.0066107999992,383.0180739999996,383.0180739999996,383.0180739999996,383.0180739999996,385.01803669999936,385.01803669999936,385.01803669999936,385.01803669999936,385.0023033999996,2,0.8590539000006174,0.19549039999947126,None,,,,,,,,,,,,,,,,,,,,,,1029,1,2025-09-22_12h58.39.487,sm,2024.2.4,59.97130972535801,2025-09-22 12h58.49.613032 +0200,
15,0,15,,,,,,space,2.434613100000206,None,None,3,0.8100358000001506,0.3833910000003016,None,0,0,0,0,,,,,0,0,0,0,,,,,15,0,15,0,385.01803669999936,,,,,,,,,,,,,,,,,,,,,,,,,,,,,,,,,,,,,,,,,,,,,,,,,,,,,,,,,Waschbecken,3.1202,385.0027956999993,385.0035109999999,385.0036216999997,385.01803669999936,388.15165569999954,388.1353247999996,388.13972059999924,388.15165569999954,388.15165569999954,388.15165569999954,388.15165569999954,390.15106259999993,390.15106259999993,390.15106259999993,390.15106259999993,390.1354488999996,3,0.8100358000001506,0.3833910000003016,None,,,,,,,,,,,,,,,,,,,,,,1029,1,2025-09-22_12h58.39.487,sm,2024.2.4,59.97130972535801,2025-09-22 12h58.49.613032 +0200,
16,0,16,,,,,,space,2.434613100000206,None,None,2,0.9906114000004891,0.20951160000004165,None,0,0,0,0,,,,,0,0,0,0,,,,,16,0,16,0,390.15106259999993,,,,,,,,,,,,,,,,,,,,,,,,,,,,,,,,,,,,,,,,,,,,,,,,,,,,,,,,,Atem,2.2824,390.135953,390.1365057999992,390.13661030000003,390.15106259999993,392.4339655999993,392.41843059999974,392.4221738999995,392.4339655999993,392.4339655999993,392.4339655999993,392.4339655999993,394.4339627999998,394.4339627999998,394.4339627999998,394.4339627999998,394.41848799999934,2,0.9906114000004891,0.20951160000004165,None,,,,,,,,,,,,,,,,,,,,,,1029,1,2025-09-22_12h58.39.487,sm,2024.2.4,59.97130972535801,2025-09-22 12h58.49.613032 +0200,
17,0,17,,,,,,space,2.434613100000206,None,None,3,1.0354322000002867,0.32154799999989336,None,0,0,0,0,,,,,0,0,0,0,,,,,17,0,17,0,394.4339627999998,,,,,,,,,,,,,,,,,,,,,,,,,,,,,,,,,,,,,,,,,,,,,,,,,,,,,,,,,Himmel,3.6509,394.4189749999996,394.41962479999984,394.41973979999966,394.4339627999998,398.1004262999995,398.08462099999997,398.0879903999994,398.1004262999995,398.1004262999995,398.1004262999995,398.1004262999995,400.1003076999996,400.1003076999996,400.1003076999996,400.1003076999996,400.0849875999993,3,1.0354322000002867,0.32154799999989336,None,,,,,,,,,,,,,,,,,,,,,,1029,1,2025-09-22_12h58.39.487,sm,2024.2.4,59.97130972535801,2025-09-22 12h58.49.613032 +0200,
18,0,18,,,,,,space,2.434613100000206,None,None,3,1.5880833000001076,0.20944299999973737,None,0,0,0,0,,,,,0,0,0,0,,,,,18,0,18,0,400.1003076999996,,,,,,,,,,,,,,,,,,,,,,,,,,,,,,,,,,,,,,,,,,,,,,,,,,,,,,,,,Sendung,2.6012,400.08548989999963,400.0859946999999,400.08609979999983,400.1003076999996,402.71672189999936,402.70145049999974,402.7052248,402.71672189999936,402.71672189999936,402.71672189999936,402.71672189999936,404.71678899999915,404.71678899999915,404.71678899999915,404.71678899999915,404.70132319999993,3,1.5880833000001076,0.20944299999973737,None,,,,,,,,,,,,,,,,,,,,,,1029,1,2025-09-22_12h58.39.487,sm,2024.2.4,59.97130972535801,2025-09-22 12h58.49.613032 +0200,
19,0,19,,,,,,space,2.434613100000206,None,None,3,0.877434799999719,0.22544569999990927,None,0,0,0,0,,,,,0,0,0,0,,,,,19,0,19,0,404.71678899999915,,,,,,,,,,,,,,,,,,,,,,,,,,,,,,,,,,,,,,,,,,,,,,,,,,,,,,,,,Hügel,4.0429,404.7018226,404.70237729999917,404.70249519999925,404.71678899999915,408.76653519999945,408.75092529999984,408.75506959999984,408.76653519999945,408.76653519999945,408.76653519999945,408.76653519999945,410.7667720999998,410.7667720999998,410.7667720999998,410.7667720999998,410.7509367999992,3,0.877434799999719,0.22544569999990927,None,,,,,,,,,,,,,,,,,,,,,,1029,1,2025-09-22_12h58.39.487,sm,2024.2.4,59.97130972535801,2025-09-22 12h58.49.613032 +0200,
20,0,20,,,,,,space,2.434613100000206,None,None,3,1.1118218999999954,0.22123689999989438,None,0,0,0,0,,,,,0,0,0,0,,,,,20,0,20,0,410.7667720999998,,,,,,,,,,,,,,,,,,,,,,,,,,,,,,,,,,,,,,,,,,,,,,,,,,,,,,,,,Tradition,2.2275,410.7514351,410.7519601999993,410.75206869999965,410.7667720999998,412.99942979999923,412.9841108999999,412.98925749999944,412.99942979999923,412.99942979999923,412.99942979999923,412.99942979999923,414.99986009999975,414.99986009999975,414.99986009999975,414.99986009999975,414.9839202999992,3,1.1118218999999954,0.22123689999989438,None,,,,,,,,,,,,,,,,,,,,,,1029,1,2025-09-22_12h58.39.487,sm,2024.2.4,59.97130972535801,2025-09-22 12h58.49.613032 +0200,
21,0,21,,,,,,space,2.434613100000206,None,None,2,1.1229141000003438,0.2127767000001768,None,0,0,0,0,,,,,0,0,0,0,,,,,21,0,21,0,414.99986009999975,,,,,,,,,,,,,,,,,,,,,,,,,,,,,,,,,,,,,,,,,,,,,,,,,,,,,,,,,Angriff,2.3909,414.9844278999999,414.9850502999998,414.9851562999993,414.99986009999975,417.3994183999994,417.38372739999977,417.3876728999994,417.3994183999994,417.3994183999994,417.3994183999994,417.3994183999994,419.3992787999996,419.3992787999996,419.3992787999996,419.3992787999996,419.38381579999987,2,1.1229141000003438,0.2127767000001768,None,,,,,,,,,,,,,,,,,,,,,,1029,1,2025-09-22_12h58.39.487,sm,2024.2.4,59.97130972535801,2025-09-22 12h58.49.613032 +0200,
22,0,22,,,,,,space,2.434613100000206,None,None,3,0.8899291000006997,0.17748449999999139,None,0,0,0,0,,,,,0,0,0,0,,,,,22,0,22,0,419.3992787999996,,,,,,,,,,,,,,,,,,,,,,,,,,,,,,,,,,,,,,,,,,,,,,,,,,,,,,,,,Klinge,2.3881,419.3843124999994,419.38496229999964,419.3850679999996,419.3992787999996,421.79904969999916,421.7833333999997,421.78677009999956,421.79904969999916,421.79904969999916,421.79904969999916,421.79904969999916,423.79943639999965,423.79943639999965,423.79943639999965,423.79943639999965,423.7835599,3,0.8899291000006997,0.17748449999999139,None,,,,,,,,,,,,,,,,,,,,,,1029,1,2025-09-22_12h58.39.487,sm,2024.2.4,59.97130972535801,2025-09-22 12h58.49.613032 +0200,
23,0,23,,,,,,space,2.434613100000206,None,None,3,1.0416104000005362,0.20150749999993423,None,0,0,0,0,,,,,0,0,0,0,,,,,23,0,23,0,423.79943639999965,,,,,,,,,,,,,,,,,,,,,,,,,,,,,,,,,,,,,,,,,,,,,,,,,,,,,,,,,Vulkan,2.5193,423.78406019999966,423.78470039999956,423.7848054999995,423.79943639999965,426.33203799999956,426.3164707999995,426.3201390999993,426.33203799999956,426.33203799999956,426.33203799999956,426.33203799999956,428.3320871999995,428.3320871999995,428.3320871999995,428.3320871999995,428.31718589999946,3,1.0416104000005362,0.20150749999993423,None,,,,,,,,,,,,,,,,,,,,,,1029,1,2025-09-22_12h58.39.487,sm,2024.2.4,59.97130972535801,2025-09-22 12h58.49.613032 +0200,
24,0,24,,,,,,space,2.434613100000206,None,None,3,1.160087399999611,0.22209860000020853,None,0,0,0,0,,,,,0,0,0,0,,,,,24,0,24,0,428.3320871999995,,,,,,,,,,,,,,,,,,,,,,,,,,,,,,,,,,,,,,,,,,,,,,,,,,,,,,,,,Herbst,2.9278,428.3176902999994,428.3181894999998,428.31829599999946,428.3320871999995,431.2652367999999,431.2496257999992,431.2537975999994,431.2652367999999,431.2652367999999,431.2652367999999,431.2652367999999,433.26520299999993,433.26520299999993,433.26520299999993,433.26520299999993,433.2496818999998,3,1.160087399999611,0.22209860000020853,None,,,,,,,,,,,,,,,,,,,,,,1029,1,2025-09-22_12h58.39.487,sm,2024.2.4,59.97130972535801,2025-09-22 12h58.49.613032 +0200,
25,0,25,,,,,,space,2.434613100000206,None,None,3,0.780460399999356,0.1981675000006362,None,0,0,0,0,,,,,0,0,0,0,,,,,25,0,25,0,433.26520299999993,,,,,,,,,,,,,,,,,,,,,,,,,,,,,,,,,,,,,,,,,,,,,,,,,,,,,,,,,Golf,2.265,433.2501751,433.2506865999994,433.25079189999997,433.26520299999993,435.5316880999999,435.5163875999997,435.5201440999999,435.5316880999999,435.5316880999999,435.5316880999999,435.5316880999999,437.5316573,437.5316573,437.5316573,437.5316573,437.5160686999998,3,0.780460399999356,0.1981675000006362,None,,,,,,,,,,,,,,,,,,,,,,1029,1,2025-09-22_12h58.39.487,sm,2024.2.4,59.97130972535801,2025-09-22 12h58.49.613032 +0200,
26,0,26,,,,,,space,2.434613100000206,None,None,2,0.850521899999876,0.2144994999998744,None,0,0,0,0,,,,,0,0,0,0,,,,,26,0,26,0,437.5316573,,,,,,,,,,,,,,,,,,,,,,,,,,,,,,,,,,,,,,,,,,,,,,,,,,,,,,,,,Besucher,2.3194,437.5165591999994,437.5170542999995,437.5171619999992,437.5316573,439.8643998999996,439.848927,439.85255289999986,439.8643998999996,439.8643998999996,439.8643998999996,439.8643998999996,441.86466139999993,441.86466139999993,441.86466139999993,441.86466139999993,441.8489845999993,2,0.850521899999876,0.2144994999998744,None,,,,,,,,,,,,,,,,,,,,,,1029,1,2025-09-22_12h58.39.487,sm,2024.2.4,59.97130972535801,2025-09-22 12h58.49.613032 +0200,
27,0,27,,,,,,space,2.434613100000206,None,None,3,0.8747626999993372,0.2507290000003195,None,0,0,0,0,,,,,0,0,0,0,,,,,27,0,27,0,441.86466139999993,,,,,,,,,,,,,,,,,,,,,,,,,,,,,,,,,,,,,,,,,,,,,,,,,,,,,,,,,Zeichnung,4.2561,441.84949399999914,441.85000019999916,441.8501047999998,441.86466139999993,446.13101899999947,446.11525829999937,446.11974519999967,446.13101899999947,446.13101899999947,446.13101899999947,446.13101899999947,448.13114889999997,448.13114889999997,448.13114889999997,448.13114889999997,448.11544179999964,3,0.8747626999993372,0.2507290000003195,None,,,,,,,,,,,,,,,,,,,,,,1029,1,2025-09-22_12h58.39.487,sm,2024.2.4,59.97130972535801,2025-09-22 12h58.49.613032 +0200,
28,0,28,,,,,,space,2.434613100000206,None,None,3,0.8904345000000831,0.1764965000002121,None,0,0,0,0,,,,,0,0,0,0,,,,,28,0,28,0,448.13114889999997,,,,,,,,,,,,,,,,,,,,,,,,,,,,,,,,,,,,,,,,,,,,,,,,,,,,,,,,,Bad,2.3835,448.11594389999937,448.1164491999998,448.11655399999927,448.13114889999997,450.5142935999993,450.49850439999955,450.50163299999986,450.5142935999993,450.5142935999993,450.5142935999993,450.5142935999993,452.51414939999995,452.51414939999995,452.51414939999995,452.51414939999995,452.49855989999924,3,0.8904345000000831,0.1764965000002121,None,,,,,,,,,,,,,,,,,,,,,,1029,1,2025-09-22_12h58.39.487,sm,2024.2.4,59.97130972535801,2025-09-22 12h58.49.613032 +0200,
29,0,29,,,,,,space,2.434613100000206,None,None,2,1.0381955999991987,0.17554040000050009,None,0,0,0,0,,,,,0,0,0,0,,,,,29,0,29,0,452.51414939999995,,,,,,,,,,,,,,,,,,,,,,,,,,,,,,,,,,,,,,,,,,,,,,,,,,,,,,,,,Blumen,2.0905,452.4990558999998,452.4996203999999,452.4997261999997,452.51414939999995,454.61382779999985,454.5987467999994,454.60286259999975,454.61382779999985,454.61382779999985,454.61382779999985,454.61382779999985,456.6137928999997,456.6137928999997,456.6137928999997,456.6137928999997,456.5986008,2,1.0381955999991987,0.17554040000050009,None,,,,,,,,,,,,,,,,,,,,,,1029,1,2025-09-22_12h58.39.487,sm,2024.2.4,59.97130972535801,2025-09-22 12h58.49.613032 +0200,
30,0,30,,,,,,space,2.434613100000206,None,None,3,0.8094117999999071,0.2387202999998408,None,0,0,0,0,,,,,0,0,0,0,,,,,30,0,30,0,456.6137928999997,,,,,,,,,,,,,,,,,,,,,,,,,,,,,,,,,,,,,,,,,,,,,,,,,,,,,,,,,Schloss,5.8104,456.5990732,456.5995641999998,456.59966259999965,456.6137928999997,462.43012779999935,462.4143447999995,462.41778839999915,462.43012779999935,462.43012779999935,462.43012779999935,462.43012779999935,464.4304420999997,464.4304420999997,464.4304420999997,464.4304420999997,464.41465939999944,3,0.8094117999999071,0.2387202999998408,None,,,,,,,,,,,,,,,,,,,,,,1029,1,2025-09-22_12h58.39.487,sm,2024.2.4,59.97130972535801,2025-09-22 12h58.49.613032 +0200,
31,0,31,,,,,,space,2.434613100000206,None,None,3,0.8189296999998987,0.3672980000001189,None,0,0,0,0,,,,,0,0,0,0,,,,,31,0,31,0,464.4304420999997,,,,,,,,,,,,,,,,,,,,,,,,,,,,,,,,,,,,,,,,,,,,,,,,,,,,,,,,,Kälte,3.816,464.41516239999964,464.41567419999956,464.4157805999994,464.4304420999997,468.24625429999924,468.2310392999998,468.2347540999999,468.24625429999924,468.24625429999924,468.24625429999924,468.24625429999924,470.2465379999994,470.2465379999994,470.2465379999994,470.2465379999994,470.2307160999999,3,0.8189296999998987,0.3672980000001189,None,,,,,,,,,,,,,,,,,,,,,,1029,1,2025-09-22_12h58.39.487,sm,2024.2.4,59.97130972535801,2025-09-22 12h58.49.613032 +0200,
32,0,32,,,,,,space,2.434613100000206,None,None,3,0.8680915000004461,0.3136347999998179,None,0,0,0,0,,,,,0,0,0,0,,,,,32,0,32,0,470.2465379999994,,,,,,,,,,,,,,,,,,,,,,,,,,,,,,,,,,,,,,,,,,,,,,,,,,,,,,,,,Fakt,2.4661,470.2312192999998,470.2318181999999,470.23198909999974,470.2465379999994,472.71245699999963,472.6973180999994,472.7025028999997,472.71245699999963,472.71245699999963,472.71245699999963,472.71245699999963,474.71371049999925,474.71371049999925,474.71371049999925,474.71371049999925,474.6971727,3,0.8680915000004461,0.3136347999998179,None,,,,,,,,,,,,,,,,,,,,,,1029,1,2025-09-22_12h58.39.487,sm,2024.2.4,59.97130972535801,2025-09-22 12h58.49.613032 +0200,
33,0,33,,,,,,space,2.434613100000206,None,None,2,1.3137812000004487,0.20315560000017285,None,0,0,0,0,,,,,0,0,0,0,,,,,33,0,33,0,474.71371049999925,,,,,,,,,,,,,,,,,,,,,,,,,,,,,,,,,,,,,,,,,,,,,,,,,,,,,,,,,Blut,4.9805,474.6976565999994,474.69815169999947,474.69825709999986,474.71371049999925,479.6958804999995,479.68018999999913,479.68468459999985,479.6958804999995,479.6958804999995,479.6958804999995,479.6958804999995,481.6958642999998,481.6958642999998,481.6958642999998,481.6958642999998,481.6803057999996,2,1.3137812000004487,0.20315560000017285,None,,,,,,,,,,,,,,,,,,,,,,1029,1,2025-09-22_12h58.39.487,sm,2024.2.4,59.97130972535801,2025-09-22 12h58.49.613032 +0200,
34,0,34,,,,,,space,2.434613100000206,None,None,2,0.7549837999995361,0.21198650000042107,None,0,0,0,0,,,,,0,0,0,0,,,,,34,0,34,0,481.6958642999998,,,,,,,,,,,,,,,,,,,,,,,,,,,,,,,,,,,,,,,,,,,,,,,,,,,,,,,,,Spion,3.6067,481.6808013,481.6815450999993,481.68165469999985,481.6958642999998,485.31210569999985,485.29647549999936,485.29971959999966,485.31210569999985,485.31210569999985,485.31210569999985,485.31210569999985,487.3121820999995,487.3121820999995,487.3121820999995,487.3121820999995,487.29655719999937,2,0.7549837999995361,0.21198650000042107,None,,,,,,,,,,,,,,,,,,,,,,1029,1,2025-09-22_12h58.39.487,sm,2024.2.4,59.97130972535801,2025-09-22 12h58.49.613032 +0200,
35,0,35,,,,,,space,2.434613100000206,None,None,3,0.9196357999999236,0.2563497000001007,None,0,0,0,0,,,,,0,0,0,0,,,,,35,0,35,0,487.3121820999995,,,,,,,,,,,,,,,,,,,,,,,,,,,,,,,,,,,,,,,,,,,,,,,,,,,,,,,,,Brief,3.4092,487.29706129999977,487.29756739999993,487.2976734999993,487.3121820999995,490.7284261999994,490.7128880999999,490.7166148999995,490.7284261999994,490.7284261999994,490.7284261999994,490.7284261999994,492.72832989999915,492.72832989999915,492.72832989999915,492.72832989999915,492.71296229999916,3,0.9196357999999236,0.2563497000001007,None,,,,,,,,,,,,,,,,,,,,,,1029,1,2025-09-22_12h58.39.487,sm,2024.2.4,59.97130972535801,2025-09-22 12h58.49.613032 +0200,
36,0,36,,,,,,space,2.434613100000206,None,None,2,1.0063335000004372,0.20638809999945806,None,0,0,0,0,,,,,0,0,0,0,,,,,36,0,36,0,492.72832989999915,,,,,,,,,,,,,,,,,,,,,,,,,,,,,,,,,,,,,,,,,,,,,,,,,,,,,,,,,Team,4.4504,492.7134661,492.7141131999997,492.7142205,492.72832989999915,497.1779053999999,497.16223589999936,497.16537809999954,497.1779053999999,497.1779053999999,497.1779053999999,497.1779053999999,499.17829899999924,499.17829899999924,499.17829899999924,499.17829899999924,499.16232279999986,2,1.0063335000004372,0.20638809999945806,None,,,,,,,,,,,,,,,,,,,,,,1029,1,2025-09-22_12h58.39.487,sm,2024.2.4,59.97130972535801,2025-09-22 12h58.49.613032 +0200,
37,0,37,,,,,,space,2.434613100000206,None,None,3,1.2795588999997562,0.26034619999973074,None,0,0,0,0,,,,,0,0,0,0,,,,,37,0,37,0,499.17829899999924,,,,,,,,,,,,,,,,,,,,,,,,,,,,,,,,,,,,,,,,,,,,,,,,,,,,,,,,,Brise,2.3937,499.16275869999936,499.16323569999986,499.16332819999934,499.17829899999924,501.57811929999934,501.56234959999983,501.5659784999998,501.57811929999934,501.57811929999934,501.57811929999934,501.57811929999934,503.57835969999996,503.57835969999996,503.57835969999996,503.57835969999996,503.5621863999995,3,1.2795588999997562,0.26034619999973074,None,,,,,,,,,,,,,,,,,,,,,,1029,1,2025-09-22_12h58.39.487,sm,2024.2.4,59.97130972535801,2025-09-22 12h58.49.613032 +0200,
38,0,38,,,,,,space,2.434613100000206,None,None,3,0.7534915999995064,0.2261768000007578,None,0,0,0,0,,,,,0,0,0,0,,,,,38,0,38,0,503.57835969999996,,,,,,,,,,,,,,,,,,,,,,,,,,,,,,,,,,,,,,,,,,,,,,,,,,,,,,,,,Ringe,2.0764,503.56268959999943,503.56319189999977,503.5633020999994,503.57835969999996,505.6609540999998,505.64530119999927,505.6489398999993,505.6609540999998,505.6609540999998,505.6609540999998,505.6609540999998,507.6608372999999,507.6608372999999,507.6608372999999,507.6608372999999,507.64505459999964,3,0.7534915999995064,0.2261768000007578,None,,,,,,,,,,,,,,,,,,,,,,1029,1,2025-09-22_12h58.39.487,sm,2024.2.4,59.97130972535801,2025-09-22 12h58.49.613032 +0200,
39,0,39,,,,,,space,2.434613100000206,None,None,3,0.9065943000005063,0.29756170000018756,None,0,0,0,0,,,,,0,0,0,0,,,,,39,0,39,0,507.6608372999999,,,,,,,,,,,,,,,,,,,,,,,,,,,,,,,,,,,,,,,,,,,,,,,,,,,,,,,,,Monument,2.6005,507.64547009999933,507.6459347,507.6460271999995,507.6608372999999,510.26066589999937,510.2449577999996,510.24859469999956,510.26066589999937,510.26066589999937,510.26066589999937,510.26066589999937,512.2608838999995,512.2608838999995,512.2608838999995,512.2608838999995,512.2451692999994,3,0.9065943000005063,0.29756170000018756,None,,,,,,,,,,,,,,,,,,,,,,1029,1,2025-09-22_12h58.39.487,sm,2024.2.4,59.97130972535801,2025-09-22 12h58.49.613032 +0200,
40,0,40,,,,,,space,2.434613100000206,None,None,3,0.7994251000000077,0.5865751000001183,None,0,0,0,0,,,,,0,0,0,0,,,,,40,0,40,0,512.2608838999995,,,,,,,,,,,,,,,,,,,,,,,,,,,,,,,,,,,,,,,,,,,,,,,,,,,,,,,,,Platz,3.9512,512.2456692999995,512.2461826999997,512.2462906999999,512.2608838999995,516.2267284,516.211335,516.2173395999998,516.2267284,516.2267284,516.2267284,516.2267284,518.2269899999992,518.2269899999992,518.2269899999992,518.2269899999992,518.2113696999995,3,0.7994251000000077,0.5865751000001183,None,,,,,,,,,,,,,,,,,,,,,,1029,1,2025-09-22_12h58.39.487,sm,2024.2.4,59.97130972535801,2025-09-22 12h58.49.613032 +0200,
41,0,41,,,,,,space,2.434613100000206,None,None,3,0.7288820000003398,0.2608876999993299,None,0,0,0,0,,,,,0,0,0,0,,,,,41,0,41,0,518.2269899999992,,,,,,,,,,,,,,,,,,,,,,,,,,,,,,,,,,,,,,,,,,,,,,,,,,,,,,,,,Karton,2.7761,518.2118752999995,518.2125116999996,518.2126168999994,518.2269899999992,521.0105336999995,520.9945309999994,520.9982412999998,521.0105336999995,521.0105336999995,521.0105336999995,521.0105336999995,523.0100239999992,523.0100239999992,523.0100239999992,523.0100239999992,522.9944513999999,3,0.7288820000003398,0.2608876999993299,None,,,,,,,,,,,,,,,,,,,,,,1029,1,2025-09-22_12h58.39.487,sm,2024.2.4,59.97130972535801,2025-09-22 12h58.49.613032 +0200,
42,0,42,,,,,,space,2.434613100000206,None,None,2,1.0769301999998788,0.23019320000003063,None,0,0,0,0,,,,,0,0,0,0,,,,,42,0,42,0,523.0100239999992,,,,,,,,,,,,,,,,,,,,,,,,,,,,,,,,,,,,,,,,,,,,,,,,,,,,,,,,,Klempner,2.4626,522.9949165999997,522.9954852999999,522.9955850999995,523.0100239999992,525.4765601999998,525.4607483999998,525.4645124999997,525.4765601999998,525.4765601999998,525.4765601999998,525.4765601999998,527.4763550999996,527.4763550999996,527.4763550999996,527.4763550999996,527.4610094,2,1.0769301999998788,0.23019320000003063,None,,,,,,,,,,,,,,,,,,,,,,1029,1,2025-09-22_12h58.39.487,sm,2024.2.4,59.97130972535801,2025-09-22 12h58.49.613032 +0200,
43,0,43,,,,,,space,2.434613100000206,None,None,3,0.9984144999998534,0.2182793000001766,None,0,0,0,0,,,,,0,0,0,0,,,,,43,0,43,0,527.4763550999996,,,,,,,,,,,,,,,,,,,,,,,,,,,,,,,,,,,,,,,,,,,,,,,,,,,,,,,,,Netz,2.3148,527.4614910999999,527.4619976999993,527.4621051999993,527.4763550999996,529.7929340999999,529.7768237,529.7795282999996,529.7929340999999,529.7929340999999,529.7929340999999,529.7929340999999,531.7928329999995,531.7928329999995,531.7928329999995,531.7928329999995,531.7772261999999,3,0.9984144999998534,0.2182793000001766,None,,,,,,,,,,,,,,,,,,,,,,1029,1,2025-09-22_12h58.39.487,sm,2024.2.4,59.97130972535801,2025-09-22 12h58.49.613032 +0200,
44,0,44,,,,,,space,2.434613100000206,None,None,3,0.9510079000001497,0.3293272999999317,None,0,0,0,0,,,,,0,0,0,0,,,,,44,0,44,0,531.7928329999995,,,,,,,,,,,,,,,,,,,,,,,,,,,,,,,,,,,,,,,,,,,,,,,,,,,,,,,,,Schuh,3.7661,531.7777020999993,531.7783370999996,531.7784445999996,531.7928329999995,535.5593319,535.5437875999996,535.5477076999996,535.5593319,535.5593319,535.5593319,535.5593319,537.5594560999998,537.5594560999998,537.5594560999998,537.5594560999998,537.5435768999996,3,0.9510079000001497,0.3293272999999317,None,,,,,,,,,,,,,,,,,,,,,,1029,1,2025-09-22_12h58.39.487,sm,2024.2.4,59.97130972535801,2025-09-22 12h58.49.613032 +0200,
45,0,45,,,,,,space,2.434613100000206,None,None,3,0.6305629999997109,0.21100870000009309,None,0,0,0,0,,,,,0,0,0,0,,,,,45,0,45,0,537.5594560999998,,,,,,,,,,,,,,,,,,,,,,,,,,,,,,,,,,,,,,,,,,,,,,,,,,,,,,,,,Tasche,3.7678,537.5440466,537.5445476999994,537.5446478999993,537.5594560999998,541.3422522999999,541.3268279999993,541.3305418999998,541.3422522999999,541.3422522999999,541.3422522999999,541.3422522999999,543.3427185999999,543.3427185999999,543.3427185999999,543.3427185999999,543.3267342999998,3,0.6305629999997109,0.21100870000009309,None,,,,,,,,,,,,,,,,,,,,,,1029,1,2025-09-22_12h58.39.487,sm,2024.2.4,59.97130972535801,2025-09-22 12h58.49.613032 +0200,
46,0,46,,,,,,space,2.434613100000206,None,None,3,0.6936158999997133,0.21241960000043036,None,0,0,0,0,,,,,0,0,0,0,,,,,46,0,46,0,543.3427185999999,,,,,,,,,,,,,,,,,,,,,,,,,,,,,,,,,,,,,,,,,,,,,,,,,,,,,,,,,Tasse,2.0631,543.3272277999995,543.3277290999995,543.3278376999997,543.3427185999999,545.4088091999993,545.3929742,545.3962783999996,545.4088091999993,545.4088091999993,545.4088091999993,545.4088091999993,547.4085593999998,547.4085593999998,547.4085593999998,547.4085593999998,547.3932353,3,0.6936158999997133,0.21241960000043036,None,,,,,,,,,,,,,,,,,,,,,,1029,1,2025-09-22_12h58.39.487,sm,2024.2.4,59.97130972535801,2025-09-22 12h58.49.613032 +0200,
47,0,47,,,,,,space,2.434613100000206,None,None,2,0.8445662999993147,0.19296060000033322,None,0,0,0,0,,,,,0,0,0,0,,,,,47,0,47,0,547.4085593999998,,,,,,,,,,,,,,,,,,,,,,,,,,,,,,,,,,,,,,,,,,,,,,,,,,,,,,,,,Finger,2.437,547.3937183999997,547.3942181999992,547.3943265999997,547.4085593999998,549.8581701999992,549.8425517999995,549.8466454999998,549.8581701999992,549.8581701999992,549.8581701999992,549.8581701999992,551.8577933999995,551.8577933999995,551.8577933999995,551.8577933999995,551.8423598999998,2,0.8445662999993147,0.19296060000033322,None,,,,,,,,,,,,,,,,,,,,,,1029,1,2025-09-22_12h58.39.487,sm,2024.2.4,59.97130972535801,2025-09-22 12h58.49.613032 +0200,
48,0,48,,,,,,space,2.434613100000206,None,None,2,0.7567335000003368,0.17557320000014442,None,0,0,0,0,,,,,0,0,0,0,,,,,48,0,48,0,551.8577933999995,,,,,,,,,,,,,,,,,,,,,,,,,,,,,,,,,,,,,,,,,,,,,,,,,,,,,,,,,Geschwister,2.7309,551.8428244999996,551.8433080999994,551.8434072,551.8577933999995,554.5912423999998,554.5750072999999,554.5791923999996,554.5912423999998,554.5912423999998,554.5912423999998,554.5912423999998,556.5912720999995,556.5912720999995,556.5912720999995,556.5912720999995,556.5756464999995,2,0.7567335000003368,0.17557320000014442,None,,,,,,,,,,,,,,,,,,,,,,1029,1,2025-09-22_12h58.39.487,sm,2024.2.4,59.97130972535801,2025-09-22 12h58.49.613032 +0200,
49,0,49,,,,,,space,2.434613100000206,None,None,2,1.5562933999999586,0.22735959999954503,None,0,0,0,0,,,,,0,0,0,0,,,,,49,0,49,0,556.5912720999995,,,,,,,,,,,,,,,,,,,,,,,,,,,,,,,,,,,,,,,,,,,,,,,,,,,,,,,,,Schmerz,3.4121,556.5761210999999,556.5766028999997,556.5767007999993,556.5912720999995,560.0078544999997,559.9923503999999,559.996435,560.0078544999997,560.0078544999997,560.0078544999997,560.0078544999997,562.0080570999999,562.0080570999999,562.0080570999999,562.0080570999999,561.9924177999992,2,1.5562933999999586,0.22735959999954503,None,,,,,,,,,,,,,,,,,,,,,,1029,1,2025-09-22_12h58.39.487,sm,2024.2.4,59.97130972535801,2025-09-22 12h58.49.613032 +0200,
50,0,50,,,,,,space,2.434613100000206,None,None,3,1.0129931000001307,0.343047000000297,None,0,0,0,0,,,,,0,0,0,0,,,,,50,0,50,0,562.0080570999999,,,,,,,,,,,,,,,,,,,,,,,,,,,,,,,,,,,,,,,,,,,,,,,,,,,,,,,,,Salz,2.3763,561.9929179999999,561.9934211,561.9935323999998,562.0080570999999,564.3909974999997,564.3758003999992,564.3795475999996,564.3909974999997,564.3909974999997,564.3909974999997,564.3909974999997,566.3908026999998,566.3908026999998,566.3908026999998,566.3908026999998,566.3752918999999,3,1.0129931000001307,0.343047000000297,None,,,,,,,,,,,,,,,,,,,,,,1029,1,2025-09-22_12h58.39.487,sm,2024.2.4,59.97130972535801,2025-09-22 12h58.49.613032 +0200,
51,0,51,,,,,,space,2.434613100000206,None,None,3,1.2937744999999268,0.19406620000063413,None,0,0,0,0,,,,,0,0,0,0,,,,,51,0,51,0,566.3908026999998,,,,,,,,,,,,,,,,,,,,,,,,,,,,,,,,,,,,,,,,,,,,,,,,,,,,,,,,,Poesie,4.976,566.3757846999997,566.3765269999994,566.3766405999995,566.3908026999998,571.3738963999995,571.3583251,571.3625700999992,571.3738963999995,571.3738963999995,571.3738963999995,571.3738963999995,573.3738205,573.3738205,573.3738205,573.3738205,573.3590806999991,3,1.2937744999999268,0.19406620000063413,None,,,,,,,,,,,,,,,,,,,,,,1029,1,2025-09-22_12h58.39.487,sm,2024.2.4,59.97130972535801,2025-09-22 12h58.49.613032 +0200,
52,0,52,,,,,,space,2.434613100000206,None,None,3,1.3566205999995873,0.19256730000051903,None,0,0,0,0,,,,,0,0,0,0,,,,,52,0,52,0,573.3738205,,,,,,,,,,,,,,,,,,,,,,,,,,,,,,,,,,,,,,,,,,,,,,,,,,,,,,,,,Bluse,3.4098,573.3595928999994,573.3602681999992,573.3603813999998,573.3738205,576.7900136999997,576.7745950999997,576.7783405,576.7900136999997,576.7900136999997,576.7900136999997,576.7900136999997,578.7902016999997,578.7902016999997,578.7902016999997,578.7902016999997,578.7746103999998,3,1.3566205999995873,0.19256730000051903,None,,,,,,,,,,,,,,,,,,,,,,1029,1,2025-09-22_12h58.39.487,sm,2024.2.4,59.97130972535801,2025-09-22 12h58.49.613032 +0200,
53,0,53,,,,,,space,2.434613100000206,None,None,2,0.8225480000000971,0.18210850000014034,None,0,0,0,0,,,,,0,0,0,0,,,,,53,0,53,0,578.7902016999997,,,,,,,,,,,,,,,,,,,,,,,,,,,,,,,,,,,,,,,,,,,,,,,,,,,,,,,,,Professor,3.4907,578.7751165999998,578.7756819999995,578.7757886999998,578.7902016999997,582.2899298999992,582.2743984999997,582.2786489999999,582.2899298999992,582.2899298999992,582.2899298999992,582.2899298999992,584.2899173999995,584.2899173999995,584.2899173999995,584.2899173999995,584.2742696999994,2,0.8225480000000971,0.18210850000014034,None,,,,,,,,,,,,,,,,,,,,,,1029,1,2025-09-22_12h58.39.487,sm,2024.2.4,59.97130972535801,2025-09-22 12h58.49.613032 +0200,
54,0,54,,,,,,space,2.434613100000206,None,None,3,1.5919395999999324,0.22221489999992627,None,0,0,0,0,,,,,0,0,0,0,,,,,54,0,54,0,584.2899173999995,,,,,,,,,,,,,,,,,,,,,,,,,,,,,,,,,,,,,,,,,,,,,,,,,,,,,,,,,Zeit,2.19,584.2747767999999,584.2752818999998,584.2753893999998,584.2899173999995,586.4893819999998,586.4740726999999,586.4777789999998,586.4893819999998,586.4893819999998,586.4893819999998,586.4893819999998,588.4895884999996,588.4895884999996,588.4895884999996,588.4895884999996,588.4745906999997,3,1.5919395999999324,0.22221489999992627,None,,,,,,,,,,,,,,,,,,,,,,1029,1,2025-09-22_12h58.39.487,sm,2024.2.4,59.97130972535801,2025-09-22 12h58.49.613032 +0200,
55,0,55,,,,,,space,2.434613100000206,None,None,3,0.8987286999999924,0.20919599999979255,None,0,0,0,0,,,,,0,0,0,0,,,,,55,0,55,0,588.4895884999996,,,,,,,,,,,,,,,,,,,,,,,,,,,,,,,,,,,,,,,,,,,,,,,,,,,,,,,,,Geschirr,2.2773,588.4750861999992,588.4757448999999,588.4758519999996,588.4895884999996,590.7724736999999,590.7569733999999,590.7605469999999,590.7724736999999,590.7724736999999,590.7724736999999,590.7724736999999,592.7728849999994,592.7728849999994,592.7728849999994,592.7728849999994,592.7569928999992,3,0.8987286999999924,0.20919599999979255,None,,,,,,,,,,,,,,,,,,,,,,1029,1,2025-09-22_12h58.39.487,sm,2024.2.4,59.97130972535801,2025-09-22 12h58.49.613032 +0200,
56,0,56,,,,,,space,2.434613100000206,None,None,2,1.4792973000003258,0.2283266000004005,None,0,0,0,0,,,,,0,0,0,0,,,,,56,0,56,0,592.7728849999994,,,,,,,,,,,,,,,,,,,,,,,,,,,,,,,,,,,,,,,,,,,,,,,,,,,,,,,,,Liebe,2.8085,592.7574969999996,592.7579971999994,592.7581016999993,592.7728849999994,595.5889831999993,595.5732344999997,595.5764098,595.5889831999993,595.5889831999993,595.5889831999993,595.5889831999993,597.5891491999992,597.5891491999992,597.5891491999992,597.5891491999992,597.573461,2,1.4792973000003258,0.2283266000004005,None,,,,,,,,,,,,,,,,,,,,,,1029,1,2025-09-22_12h58.39.487,sm,2024.2.4,59.97130972535801,2025-09-22 12h58.49.613032 +0200,
57,0,57,,,,,,space,2.434613100000206,None,None,3,1.4498953000002075,0.32003660000009404,None,0,0,0,0,,,,,0,0,0,0,,,,,57,0,57,0,597.5891491999992,,,,,,,,,,,,,,,,,,,,,,,,,,,,,,,,,,,,,,,,,,,,,,,,,,,,,,,,,Telefon,2.012,597.5739312999995,597.5744542999992,597.5745725999996,597.5891491999992,599.6057034999994,599.5901931999997,599.5936084999994,599.6057034999994,599.6057034999994,599.6057034999994,599.6057034999994,601.6055683999994,601.6055683999994,601.6055683999994,601.6055683999994,601.5902652999994,3,1.4498953000002075,0.32003660000009404,None,,,,,,,,,,,,,,,,,,,,,,1029,1,2025-09-22_12h58.39.487,sm,2024.2.4,59.97130972535801,2025-09-22 12h58.49.613032 +0200,
58,0,58,,,,,,space,2.434613100000206,None,None,3,1.038168900000528,0.24520579999989423,None,0,0,0,0,,,,,0,0,0,0,,,,,58,0,58,0,601.6055683999994,,,,,,,,,,,,,,,,,,,,,,,,,,,,,,,,,,,,,,,,,,,,,,,,,,,,,,,,,Loch,5.1274,601.5907751999994,601.5914262999995,601.5915858999997,601.6055683999994,606.7387132999993,606.7228127999997,606.7261614999998,606.7387132999993,606.7387132999993,606.7387132999993,606.7387132999993,608.7384941,608.7384941,608.7384941,608.7384941,608.7231809999994,3,1.038168900000528,0.24520579999989423,None,,,,,,,,,,,,,,,,,,,,,,1029,1,2025-09-22_12h58.39.487,sm,2024.2.4,59.97130972535801,2025-09-22 12h58.49.613032 +0200,
59,0,59,,,,,,space,2.434613100000206,None,None,3,0.7838818999998693,0.2154118999997081,None,0,0,0,0,,,,,0,0,0,0,,,,,59,0,59,0,608.7384941,,,,,,,,,,,,,,,,,,,,,,,,,,,,,,,,,,,,,,,,,,,,,,,,,,,,,,,,,Schule,3.1523,608.7236877999994,608.724193,608.7242999999999,608.7384941,611.9052716999995,611.8896852999997,611.8938935999995,611.9052716999995,611.9052716999995,611.9052716999995,611.9052716999995,613.9050521999998,613.9050521999998,613.9050521999998,613.9050521999998,613.8894259999997,3,0.7838818999998693,0.2154118999997081,None,,,,,,,,,,,,,,,,,,,,,,1029,1,2025-09-22_12h58.39.487,sm,2024.2.4,59.97130972535801,2025-09-22 12h58.49.613032 +0200,
60,0,60,,,,,,space,2.434613100000206,None,None,3,1.0048663000006854,0.21751820000008593,None,0,0,0,0,,,,,0,0,0,0,,,,,60,0,60,0,613.9050521999998,,,,,,,,,,,,,,,,,,,,,,,,,,,,,,,,,,,,,,,,,,,,,,,,,,,,,,,,,Rot,2.9092,613.8899244999993,613.8905680999997,613.8906744999995,613.9050521999998,616.8213554999993,616.8055906,616.8088537999993,616.8213554999993,616.8213554999993,616.8213554999993,616.8213554999993,618.8216212999996,618.8216212999996,618.8216212999996,618.8216212999996,618.8055652999992,3,1.0048663000006854,0.21751820000008593,None,,,,,,,,,,,,,,,,,,,,,,1029,1,2025-09-22_12h58.39.487,sm,2024.2.4,59.97130972535801,2025-09-22 12h58.49.613032 +0200,
61,0,61,,,,,,space,2.434613100000206,None,None,3,0.9341131999999561,0.24375419999978476,None,0,0,0,0,,,,,0,0,0,0,,,,,61,0,61,0,618.8216212999996,,,,,,,,,,,,,,,,,,,,,,,,,,,,,,,,,,,,,,,,,,,,,,,,,,,,,,,,,Datei,2.1609,618.8060687999996,618.8065848999995,618.8066908999999,618.8216212999996,620.9876772999996,620.9722124999998,620.9770449999996,620.9876772999996,620.9876772999996,620.9876772999996,620.9876772999996,622.9878139999992,622.9878139999992,622.9878139999992,622.9878139999992,622.9720955999992,3,0.9341131999999561,0.24375419999978476,None,,,,,,,,,,,,,,,,,,,,,,1029,1,2025-09-22_12h58.39.487,sm,2024.2.4,59.97130972535801,2025-09-22 12h58.49.613032 +0200,
62,0,62,,,,,,space,2.434613100000206,None,None,None,,,None,0,0,0,0,,,,,0,0,0,0,,,,,62,0,62,0,622.9878139999992,,,,,,,,,,,,,,,,,,,,,,,,,,,,,,,,,,,,,,,,,,,,,,,,,,,,,,,,,Rolle,2.9967,622.9725947999996,622.9731059999995,622.9732113,622.9878139999992,625.9880785999994,625.9718906999997,625.9755086999994,625.9880785999994,625.9880785999994,625.9880785999994,625.9880785999994,627.9872913999998,627.9872913999998,627.9872913999998,627.9872913999998,627.9716319999998,None,,,None,,,,,,,,,,,,,,,,,,,,,,1029,1,2025-09-22_12h58.39.487,sm,2024.2.4,59.97130972535801,2025-09-22 12h58.49.613032 +0200,
63,0,63,,,,,,space,2.434613100000206,None,None,3,1.231696699999702,0.1977245000007315,None,0,0,0,0,,,,,0,0,0,0,,,,,63,0,63,0,627.9872913999998,,,,,,,,,,,,,,,,,,,,,,,,,,,,,,,,,,,,,,,,,,,,,,,,,,,,,,,,,Keller,3.0943,627.9720503999997,627.9725279999993,627.9726226999992,627.9872913999998,631.0871074999995,631.0716751999998,631.0758984999993,631.0871074999995,631.0871074999995,631.0871074999995,631.0871074999995,633.0871944999999,633.0871944999999,633.0871944999999,633.0871944999999,633.0714762999996,3,1.231696699999702,0.1977245000007315,None,,,,,,,,,,,,,,,,,,,,,,1029,1,2025-09-22_12h58.39.487,sm,2024.2.4,59.97130972535801,2025-09-22 12h58.49.613032 +0200,
64,0,64,,,,,,space,2.434613100000206,None,None,3,1.795287300000382,None,None,0,0,0,0,,,,,0,0,0,0,,,,,64,0,64,0,633.0871944999999,,,,,,,,,,,,,,,,,,,,,,,,,,,,,,,,,,,,,,,,,,,,,,,,,,,,,,,,,Käse,2.0968,633.0719737,633.0725235999998,633.0726293999996,633.0871944999999,635.1869152999998,635.1715148999992,635.1750929999998,635.1869152999998,635.1869152999998,635.1869152999998,635.1869152999998,637.1871332999999,637.1871332999999,637.1871332999999,637.1871332999999,637.1714108999995,3,1.795287300000382,None,None,,,,,,,,,,,,,,,,,,,,,,1029,1,2025-09-22_12h58.39.487,sm,2024.2.4,59.97130972535801,2025-09-22 12h58.49.613032 +0200,
65,0,65,,,,,,space,2.434613100000206,None,None,2,0.7549189000001206,0.2133483999996315,None,0,0,0,0,,,,,0,0,0,0,,,,,65,0,65,0,637.1871332999999,,,,,,,,,,,,,,,,,,,,,,,,,,,,,,,,,,,,,,,,,,,,,,,,,,,,,,,,,Vogel,2.7384,637.1719112999999,637.1725835999996,637.1726904999996,637.1871332999999,639.9362906999995,639.9208339999996,639.9242445,639.9362906999995,639.9362906999995,639.9362906999995,639.9362906999995,641.9365660999993,641.9365660999993,641.9365660999993,641.9365660999993,641.9213823999999,2,0.7549189000001206,0.2133483999996315,None,,,,,,,,,,,,,,,,,,,,,,1029,1,2025-09-22_12h58.39.487,sm,2024.2.4,59.97130972535801,2025-09-22 12h58.49.613032 +0200,
66,0,66,,,,,,space,2.434613100000206,None,None,3,1.0489536999994016,0.24326950000067882,None,0,0,0,0,,,,,0,0,0,0,,,,,66,0,66,0,641.9365660999993,,,,,,,,,,,,,,,,,,,,,,,,,,,,,,,,,,,,,,,,,,,,,,,,,,,,,,,,,Geschäft,2.0219,641.9218916,641.9224288999994,641.9225359999991,641.9365660999993,643.9704879999999,643.9540018999996,643.9575461999993,643.9704879999999,643.9704879999999,643.9704879999999,643.9704879999999,645.9697649999998,645.9697649999998,645.9697649999998,645.9697649999998,645.9542206999995,3,1.0489536999994016,0.24326950000067882,None,,,,,,,,,,,,,,,,,,,,,,1029,1,2025-09-22_12h58.39.487,sm,2024.2.4,59.97130972535801,2025-09-22 12h58.49.613032 +0200,
67,0,67,,,,,,space,2.434613100000206,None,None,3,1.1401343000006818,0.36542129999997996,None,0,0,0,0,,,,,0,0,0,0,,,,,67,0,67,0,645.9697649999998,,,,,,,,,,,,,,,,,,,,,,,,,,,,,,,,,,,,,,,,,,,,,,,,,,,,,,,,,Knöchel,2.294,645.9546999999993,645.9552021,645.9553133999998,645.9697649999998,648.2692349999998,648.2536402999995,648.2573057,648.2692349999998,648.2692349999998,648.2692349999998,648.2692349999998,650.2694716999995,650.2694716999995,650.2694716999995,650.2694716999995,650.2540214999999,3,1.1401343000006818,0.36542129999997996,None,,,,,,,,,,,,,,,,,,,,,,1029,1,2025-09-22_12h58.39.487,sm,2024.2.4,59.97130972535801,2025-09-22 12h58.49.613032 +0200,
68,0,68,,,,,,space,2.434613100000206,None,None,2,1.034427699999469,0.17451249999976426,None,0,0,0,0,,,,,0,0,0,0,,,,,68,0,68,0,650.2694716999995,,,,,,,,,,,,,,,,,,,,,,,,,,,,,,,,,,,,,,,,,,,,,,,,,,,,,,,,,Publikum,2.6843,650.2545278999996,650.2550506999996,650.2551576999995,650.2694716999995,652.9694087999997,652.9538466999993,652.9601214999993,652.9694087999997,652.9694087999997,652.9694087999997,652.9694087999997,654.9695704999995,654.9695704999995,654.9695704999995,654.9695704999995,654.9534408999998,2,1.034427699999469,0.17451249999976426,None,,,,,,,,,,,,,,,,,,,,,,1029,1,2025-09-22_12h58.39.487,sm,2024.2.4,59.97130972535801,2025-09-22 12h58.49.613032 +0200,
69,0,69,,,,,,space,2.434613100000206,None,None,3,1.9231842000008328,None,None,0,0,0,0,,,,,0,0,0,0,,,,,69,0,69,0,654.9695704999995,,,,,,,,,,,,,,,,,,,,,,,,,,,,,,,,,,,,,,,,,,,,,,,,,,,,,,,,,Sturm,2.5774,654.9538941999999,654.9543713999992,654.9544653999992,654.9695704999995,657.5521382999996,657.5366223999999,657.5399810999997,657.5521382999996,657.5521382999996,657.5521382999996,657.5521382999996,659.5523310999997,659.5523310999997,659.5523310999997,659.5523310999997,659.5366534999994,3,1.9231842000008328,None,None,,,,,,,,,,,,,,,,,,,,,,1029,1,2025-09-22_12h58.39.487,sm,2024.2.4,59.97130972535801,2025-09-22 12h58.49.613032 +0200,
70,0,70,,,,,,space,2.434613100000206,None,None,3,1.3153277999999773,0.24203469999974914,None,0,0,0,0,,,,,0,0,0,0,,,,,70,0,70,0,659.5523310999997,,,,,,,,,,,,,,,,,,,,,,,,,,,,,,,,,,,,,,,,,,,,,,,,,,,,,,,,,Gold,2.4341,659.5371564999996,659.5376987,659.5378093999998,659.5523310999997,661.9852991999996,661.9697192999993,661.9731191999999,661.9852991999996,661.9852991999996,661.9852991999996,661.9852991999996,663.9854528999995,663.9854528999995,663.9854528999995,663.9854528999995,663.9701160999994,3,1.3153277999999773,0.24203469999974914,None,,,,,,,,,,,,,,,,,,,,,,1029,1,2025-09-22_12h58.39.487,sm,2024.2.4,59.97130972535801,2025-09-22 12h58.49.613032 +0200,
71,0,71,,,,,,space,2.434613100000206,None,None,2,1.4512770000001183,0.18745940000007977,None,0,0,0,0,,,,,0,0,0,0,,,,,71,0,71,0,663.9854528999995,,,,,,,,,,,,,,,,,,,,,,,,,,,,,,,,,,,,,,,,,,,,,,,,,,,,,,,,,Blatt,2.7837,663.9706158999998,663.9712641999995,663.9713705999993,663.9854528999995,666.7682712999995,666.7526529999996,666.7562986999992,666.7682712999995,666.7682712999995,666.7682712999995,666.7682712999995,668.7685131999997,668.7685131999997,668.7685131999997,668.7685131999997,668.7530244999998,2,1.4512770000001183,0.18745940000007977,None,,,,,,,,,,,,,,,,,,,,,,1029,1,2025-09-22_12h58.39.487,sm,2024.2.4,59.97130972535801,2025-09-22 12h58.49.613032 +0200,
72,0,72,,,,,,space,2.434613100000206,None,None,2,1.7222939000002953,None,None,0,0,0,0,,,,,0,0,0,0,,,,,72,0,72,0,668.7685131999997,,,,,,,,,,,,,,,,,,,,,,,,,,,,,,,,,,,,,,,,,,,,,,,,,,,,,,,,,Zunge,3.3395,668.7535206999992,668.7540620999998,668.7541675999992,668.7685131999997,672.1181151999999,672.1022757999999,672.1055911999993,672.1181151999999,672.1181151999999,672.1181151999999,672.1181151999999,674.118031,674.118031,674.118031,674.118031,674.1026798999992,2,1.7222939000002953,None,None,,,,,,,,,,,,,,,,,,,,,,1029,1,2025-09-22_12h58.39.487,sm,2024.2.4,59.97130972535801,2025-09-22 12h58.49.613032 +0200,
73,0,73,,,,,,space,2.434613100000206,None,None,3,0.8568429999995715,0.20840430000043852,None,0,0,0,0,,,,,0,0,0,0,,,,,73,0,73,0,674.118031,,,,,,,,,,,,,,,,,,,,,,,,,,,,,,,,,,,,,,,,,,,,,,,,,,,,,,,,,Popcorn,3.0961,674.1031789999997,674.1036978999991,674.103803,674.118031,677.2177996999999,677.2020447999994,677.2053012999995,677.2177996999999,677.2177996999999,677.2177996999999,677.2177996999999,679.2178704999997,679.2178704999997,679.2178704999997,679.2178704999997,679.2024736999992,3,0.8568429999995715,0.20840430000043852,None,,,,,,,,,,,,,,,,,,,,,,1029,1,2025-09-22_12h58.39.487,sm,2024.2.4,59.97130972535801,2025-09-22 12h58.49.613032 +0200,
74,0,74,,,,,,space,2.434613100000206,None,None,3,0.9324035999998159,0.22334930000033637,None,0,0,0,0,,,,,0,0,0,0,,,,,74,0,74,0,679.2178704999997,,,,,,,,,,,,,,,,,,,,,,,,,,,,,,,,,,,,,,,,,,,,,,,,,,,,,,,,,Zirkus,4.4979,679.2029751999999,679.2034715,679.2035744999994,679.2178704999997,683.7175861999995,683.7023100999995,683.7065295999992,683.7175861999995,683.7175861999995,683.7175861999995,683.7175861999995,685.7183513999998,685.7183513999998,685.7183513999998,685.7183513999998,685.7016858999996,3,0.9324035999998159,0.22334930000033637,None,,,,,,,,,,,,,,,,,,,,,,1029,1,2025-09-22_12h58.39.487,sm,2024.2.4,59.97130972535801,2025-09-22 12h58.49.613032 +0200,
75,0,75,,,,,,space,2.434613100000206,None,None,3,1.4200389999996332,0.22134790000018256,None,0,0,0,0,,,,,0,0,0,0,,,,,75,0,75,0,685.7183513999998,,,,,,,,,,,,,,,,,,,,,,,,,,,,,,,,,,,,,,,,,,,,,,,,,,,,,,,,,Fahrrad,2.227,685.7020798999993,685.7025269999995,685.7026139999998,685.7183513999998,687.9503238999996,687.9347721999993,687.9386413999991,687.9503238999996,687.9503238999996,687.9503238999996,687.9503238999996,689.9506859999992,689.9506859999992,689.9506859999992,689.9506859999992,689.9353949999995,3,1.4200389999996332,0.22134790000018256,None,,,,,,,,,,,,,,,,,,,,,,1029,1,2025-09-22_12h58.39.487,sm,2024.2.4,59.97130972535801,2025-09-22 12h58.49.613032 +0200,
76,0,76,,,,,,space,2.434613100000206,None,None,2,0.7528646000000663,0.20609149999927467,None,0,0,0,0,,,,,0,0,0,0,,,,,76,0,76,0,689.9506859999992,,,,,,,,,,,,,,,,,,,,,,,,,,,,,,,,,,,,,,,,,,,,,,,,,,,,,,,,,Autorin,2.9934,689.9359012999994,689.9364608999995,689.9365687999998,689.9506859999992,692.9504422999998,692.9347129999996,692.9390546999994,692.9504422999998,692.9504422999998,692.9504422999998,692.9504422999998,694.9502120999996,694.9502120999996,694.9502120999996,694.9502120999996,694.9347571999997,2,0.7528646000000663,0.20609149999927467,None,,,,,,,,,,,,,,,,,,,,,,1029,1,2025-09-22_12h58.39.487,sm,2024.2.4,59.97130972535801,2025-09-22 12h58.49.613032 +0200,
77,0,77,,,,,,space,2.434613100000206,None,None,3,0.8051147000005585,0.22542429999975866,None,0,0,0,0,,,,,0,0,0,0,,,,,77,0,77,0,694.9502120999996,,,,,,,,,,,,,,,,,,,,,,,,,,,,,,,,,,,,,,,,,,,,,,,,,,,,,,,,,Auto,2.0171,694.9352642999993,694.9357696999996,694.9358751,694.9502120999996,696.9669034999997,696.9511596999992,696.9549248999992,696.9669034999997,696.9669034999997,696.9669034999997,696.9669034999997,698.9668938999994,698.9668938999994,698.9668938999994,698.9668938999994,698.9509897999997,3,0.8051147000005585,0.22542429999975866,None,,,,,,,,,,,,,,,,,,,,,,1029,1,2025-09-22_12h58.39.487,sm,2024.2.4,59.97130972535801,2025-09-22 12h58.49.613032 +0200,
78,0,78,,,,,,space,2.434613100000206,None,None,3,1.4170476999997845,0.48950609999974404,None,0,0,0,0,,,,,0,0,0,0,,,,,78,0,78,0,698.9668938999994,,,,,,,,,,,,,,,,,,,,,,,,,,,,,,,,,,,,,,,,,,,,,,,,,,,,,,,,,Sumpf,2.6384,698.9514919999992,698.9521687999995,698.9522735999999,698.9668938999994,701.6162720999992,701.6005290999992,701.6038480999996,701.6162720999992,701.6162720999992,701.6162720999992,701.6162720999992,703.6164866999998,703.6164866999998,703.6164866999998,703.6164866999998,703.6010823999995,3,1.4170476999997845,0.48950609999974404,None,,,,,,,,,,,,,,,,,,,,,,1029,1,2025-09-22_12h58.39.487,sm,2024.2.4,59.97130972535801,2025-09-22 12h58.49.613032 +0200,
79,0,79,,,,,,space,2.434613100000206,None,None,2,1.3473675000004732,0.2212958999998591,None,0,0,0,0,,,,,0,0,0,0,,,,,79,0,79,0,703.6164866999998,,,,,,,,,,,,,,,,,,,,,,,,,,,,,,,,,,,,,,,,,,,,,,,,,,,,,,,,,Rasen,2.9689,703.6015872999997,703.6021133999993,703.6022245999993,703.6164866999998,706.5993060999999,706.5835344999996,706.5864101999996,706.5993060999999,706.5993060999999,706.5993060999999,706.5993060999999,708.6110443999996,708.6110443999996,708.6110443999996,708.6110443999996,708.5838789,2,1.3473675000004732,0.2212958999998591,None,,,,,,,,,,,,,,,,,,,,,,1029,1,2025-09-22_12h58.39.487,sm,2024.2.4,59.97130972535801,2025-09-22 12h58.49.613032 +0200,
0,0,0,,,,,2.7309,space,2.883649599999444,None,None,3,1.374635500000295,0.2256865999997899,None,0,0,0,0,,,,,1,0,1,0,0,79,79,56,0,0,0,0,752.7470865999994,,,,,,,,,,,,,,,,,,,,,,,,,,,,,,,,,,,,725.5765435999992,725.5767804999996,725.5829913999996,725.5875550999999,725.5875550999999,728.4837162999993,space,2.883649599999444,None,728.4838694999999,728.4982891999998,728.4982891999998,740.7326671999999,None,740.7402278999998,740.7474665,740.7479253666663,741.9488202999992,750.7470601666666,751.7489441999996,752.7312500999997,Feld,2.7309,752.7327796999998,752.7334675999991,752.7335813,752.7470865999994,755.4800784999998,755.4642169999997,755.4672643999993,755.4800784999998,755.4800784999998,755.4800784999998,755.4800784999998,757.4799829999993,757.4799829999993,757.4799829999993,757.4799829999993,757.4642967999998,3,1.374635500000295,0.2256865999997899,None,720.5991912,720.5992696999992,None,720.6087213999999,720.6170276999992,724.6153003999998,724.6153003999998,724.6319842999992,725.5335513,2,0.9098033999998734,None,752.7470865999994,,,,,,,,,1029,1,2025-09-22_12h58.39.487,sm,2024.2.4,59.97130972535801,2025-09-22 12h58.49.613032 +0200,
1,0,1,,,,,,space,2.883649599999444,None,None,2,0.7238853999997445,0.19010160000016185,None,0,0,0,0,,,,,1,0,1,0,,,,,1,0,1,0,757.4799829999993,,,,,,,,,,,,,,,,,,,,,,,,,,,,,,,,,,,,,,,,,,,,,,,,,,,,,,,,,Fliegen,2.3028,757.4647939999995,757.4654102999993,757.4655833999996,757.4799829999993,759.7963526999993,759.7809629999992,759.7844003,759.7963526999993,759.7963526999993,759.7963526999993,759.7963526999993,761.7963247999996,761.7963247999996,761.7963247999996,761.7963247999996,761.7808707999993,2,0.7238853999997445,0.19010160000016185,None,,,,,,,,,,,,,,,,,,,,,,1029,1,2025-09-22_12h58.39.487,sm,2024.2.4,59.97130972535801,2025-09-22 12h58.49.613032 +0200,
2,0,2,,,,,,space,2.883649599999444,None,None,3,1.215508599999339,0.25398840000070777,None,0,0,0,0,,,,,1,0,1,0,,,,,2,0,2,0,761.7963247999996,,,,,,,,,,,,,,,,,,,,,,,,,,,,,,,,,,,,,,,,,,,,,,,,,,,,,,,,,Service,3.1523,761.7813764999992,761.7819320999997,761.7820420999997,761.7963247999996,764.9627734999995,764.9471104999993,764.9512596999994,764.9627734999995,764.9627734999995,764.9627734999995,764.9627734999995,766.9630038999994,766.9630038999994,766.9630038999994,766.9630038999994,766.9473974999992,3,1.215508599999339,0.25398840000070777,None,,,,,,,,,,,,,,,,,,,,,,1029,1,2025-09-22_12h58.39.487,sm,2024.2.4,59.97130972535801,2025-09-22 12h58.49.613032 +0200,
3,0,3,,,,,,space,2.883649599999444,None,None,2,1.1718629999995755,0.21935190000021976,None,0,0,0,0,,,,,1,0,1,0,,,,,3,0,3,0,766.9630038999994,,,,,,,,,,,,,,,,,,,,,,,,,,,,,,,,,,,,,,,,,,,,,,,,,,,,,,,,,Lava,2.012,766.9478935999996,766.9485569999997,766.9486615999995,766.9630038999994,768.9794196999992,768.9635481999994,768.9661237999999,768.9794196999992,768.9794196999992,768.9794196999992,768.9794196999992,770.9794907999994,770.9794907999994,770.9794907999994,770.9794907999994,770.9638100999991,2,1.1718629999995755,0.21935190000021976,None,,,,,,,,,,,,,,,,,,,,,,1029,1,2025-09-22_12h58.39.487,sm,2024.2.4,59.97130972535801,2025-09-22 12h58.49.613032 +0200,
4,0,4,,,,,,space,2.883649599999444,None,None,3,1.1382976999993843,0.3012698000002274,None,0,0,0,0,,,,,1,0,1,0,,,,,4,0,4,0,770.9794907999994,,,,,,,,,,,,,,,,,,,,,,,,,,,,,,,,,,,,,,,,,,,,,,,,,,,,,,,,,Bart,2.9967,770.9643084999998,770.9649449999997,770.9650523,770.9794907999994,773.9791473999994,773.9632937999995,773.9662830999996,773.9791473999994,773.9791473999994,773.9791473999994,773.9791473999994,775.9790223999998,775.9790223999998,775.9790223999998,775.9790223999998,775.9634968,3,1.1382976999993843,0.3012698000002274,None,,,,,,,,,,,,,,,,,,,,,,1029,1,2025-09-22_12h58.39.487,sm,2024.2.4,59.97130972535801,2025-09-22 12h58.49.613032 +0200,
5,0,5,,,,,,space,2.883649599999444,None,None,3,0.9436896000006527,0.2568917999997211,None,0,0,0,0,,,,,1,0,1,0,,,,,5,0,5,0,775.9790223999998,,,,,,,,,,,,,,,,,,,,,,,,,,,,,,,,,,,,,,,,,,,,,,,,,,,,,,,,,Bildung,3.1202,775.9640022999993,775.9645084999993,775.9646135999992,775.9790223999998,779.1120440999994,779.0963647999997,779.1000257999995,779.1120440999994,779.1120440999994,779.1120440999994,779.1120440999994,781.1119928999997,781.1119928999997,781.1119928999997,781.1119928999997,781.0966546,3,0.9436896000006527,0.2568917999997211,None,,,,,,,,,,,,,,,,,,,,,,1029,1,2025-09-22_12h58.39.487,sm,2024.2.4,59.97130972535801,2025-09-22 12h58.49.613032 +0200,
6,0,6,,,,,,space,2.883649599999444,None,None,2,1.3064079999994647,0.2540892000006352,None,0,0,0,0,,,,,1,0,1,0,,,,,6,0,6,0,781.1119928999997,,,,,,,,,,,,,,,,,,,,,,,,,,,,,,,,,,,,,,,,,,,,,,,,,,,,,,,,,Rebe,4.0401,781.0971554999996,781.0976642999995,781.0977717999995,781.1119928999997,785.1616079999994,785.1460448999997,785.1495053999997,785.1616079999994,785.1616079999994,785.1616079999994,785.1616079999994,787.1616587999997,787.1616587999997,787.1616587999997,787.1616587999997,787.1464830999994,2,1.3064079999994647,0.2540892000006352,None,,,,,,,,,,,,,,,,,,,,,,1029,1,2025-09-22_12h58.39.487,sm,2024.2.4,59.97130972535801,2025-09-22 12h58.49.613032 +0200,
7,0,7,,,,,,space,2.883649599999444,None,None,3,1.2445693999998184,0.27714779999951134,None,0,0,0,0,,,,,1,0,1,0,,,,,7,0,7,0,787.1616587999997,,,,,,,,,,,,,,,,,,,,,,,,,,,,,,,,,,,,,,,,,,,,,,,,,,,,,,,,,Schwarz,2.9934,787.1469187999992,787.1475539999992,787.147645,787.1616587999997,790.1616806999991,790.1459634999992,790.1501079999998,790.1616806999991,790.1616806999991,790.1616806999991,790.1616806999991,792.1612961999999,792.1612961999999,792.1612961999999,792.1612961999999,792.1458147999992,3,1.2445693999998184,0.27714779999951134,None,,,,,,,,,,,,,,,,,,,,,,1029,1,2025-09-22_12h58.39.487,sm,2024.2.4,59.97130972535801,2025-09-22 12h58.49.613032 +0200,
8,0,8,,,,,,space,2.883649599999444,None,None,3,1.3708394000004773,0.25141639999947074,None,0,0,0,0,,,,,1,0,1,0,,,,,8,0,8,0,792.1612961999999,,,,,,,,,,,,,,,,,,,,,,,,,,,,,,,,,,,,,,,,,,,,,,,,,,,,,,,,,Dip,2.7837,792.1463217999999,792.1468496999996,792.1469549999993,792.1612961999999,794.9444699999995,794.9292590999994,794.9327856,794.9444699999995,794.9444699999995,794.9444699999995,794.9444699999995,796.9445747999998,796.9445747999998,796.9445747999998,796.9445747999998,796.9291396999997,3,1.3708394000004773,0.25141639999947074,None,,,,,,,,,,,,,,,,,,,,,,1029,1,2025-09-22_12h58.39.487,sm,2024.2.4,59.97130972535801,2025-09-22 12h58.49.613032 +0200,
9,0,9,,,,,,space,2.883649599999444,None,None,3,1.0813931000002412,0.2602343999997174,None,0,0,0,0,,,,,1,0,1,0,,,,,9,0,9,0,796.9445747999998,,,,,,,,,,,,,,,,,,,,,,,,,,,,,,,,,,,,,,,,,,,,,,,,,,,,,,,,,Marmor,2.3148,796.9296738999992,796.9303321999996,796.9304542999998,796.9445747999998,799.2609714999999,799.2451557999993,799.2497678999998,799.2609714999999,799.2609714999999,799.2609714999999,799.2609714999999,801.2610344999994,801.2610344999994,801.2610344999994,801.2610344999994,801.2458786999996,3,1.0813931000002412,0.2602343999997174,None,,,,,,,,,,,,,,,,,,,,,,1029,1,2025-09-22_12h58.39.487,sm,2024.2.4,59.97130972535801,2025-09-22 12h58.49.613032 +0200,
10,0,10,,,,,,space,2.883649599999444,None,None,2,0.9319321000002674,0.18563619999986258,None,0,0,0,0,,,,,1,0,1,0,,,,,10,0,10,0,801.2610344999994,,,,,,,,,,,,,,,,,,,,,,,,,,,,,,,,,,,,,,,,,,,,,,,,,,,,,,,,,Koch,3.7874,801.2463762999996,801.2468959999997,801.2470033,801.2610344999994,805.0606226999998,805.0449609999996,805.0487051,805.0606226999998,805.0606226999998,805.0606226999998,805.0606226999998,807.0606817999997,807.0606817999997,807.0606817999997,807.0606817999997,807.0449853999999,2,0.9319321000002674,0.18563619999986258,None,,,,,,,,,,,,,,,,,,,,,,1029,1,2025-09-22_12h58.39.487,sm,2024.2.4,59.97130972535801,2025-09-22 12h58.49.613032 +0200,
11,0,11,,,,,,space,2.883649599999444,None,None,2,1.3130706000001737,0.1774398999996265,None,0,0,0,0,,,,,1,0,1,0,,,,,11,0,11,0,807.0606817999997,,,,,,,,,,,,,,,,,,,,,,,,,,,,,,,,,,,,,,,,,,,,,,,,,,,,,,,,,Anführer,2.1609,807.0454872,807.0460046999997,807.0461138999999,807.0606817999997,809.2271871999992,809.2115086999993,809.2156147999995,809.2271871999992,809.2271871999992,809.2271871999992,809.2271871999992,811.2269551999998,811.2269551999998,811.2269551999998,811.2269551999998,811.2113528999998,2,1.3130706000001737,0.1774398999996265,None,,,,,,,,,,,,,,,,,,,,,,1029,1,2025-09-22_12h58.39.487,sm,2024.2.4,59.97130972535801,2025-09-22 12h58.49.613032 +0200,
12,0,12,,,,,,space,2.883649599999444,None,None,3,0.7364340000003722,0.23601419999977225,None,0,0,0,0,,,,,1,0,1,0,,,,,12,0,12,0,811.2269551999998,,,,,,,,,,,,,,,,,,,,,,,,,,,,,,,,,,,,,,,,,,,,,,,,,,,,,,,,,Zahnpasta,4.4979,811.2118442999999,811.2123825999997,811.2124885999992,811.2269551999998,815.7269345999994,815.7111716,815.7156281999996,815.7269345999994,815.7269345999994,815.7269345999994,815.7269345999994,817.7265959999995,817.7265959999995,817.7265959999995,817.7265959999995,817.7110747999996,3,0.7364340000003722,0.23601419999977225,None,,,,,,,,,,,,,,,,,,,,,,1029,1,2025-09-22_12h58.39.487,sm,2024.2.4,59.97130972535801,2025-09-22 12h58.49.613032 +0200,
13,0,13,,,,,,space,2.883649599999444,None,None,3,0.9090675999996165,0.22517580000021553,None,0,0,0,0,,,,,1,0,1,0,,,,,13,0,13,0,817.7265959999995,,,,,,,,,,,,,,,,,,,,,,,,,,,,,,,,,,,,,,,,,,,,,,,,,,,,,,,,,Anruf,3.3395,817.7115767999994,817.7120974,817.7122087999996,817.7265959999995,821.0763435999997,821.0609936999999,821.0650208999996,821.0763435999997,821.0763435999997,821.0763435999997,821.0763435999997,823.0763773999997,823.0763773999997,823.0763773999997,823.0763773999997,823.0606677999995,3,0.9090675999996165,0.22517580000021553,None,,,,,,,,,,,,,,,,,,,,,,1029,1,2025-09-22_12h58.39.487,sm,2024.2.4,59.97130972535801,2025-09-22 12h58.49.613032 +0200,
14,0,14,,,,,,space,2.883649599999444,None,None,2,0.8057208999998693,0.19248640000023443,None,0,0,0,0,,,,,1,0,1,0,,,,,14,0,14,0,823.0763773999997,,,,,,,,,,,,,,,,,,,,,,,,,,,,,,,,,,,,,,,,,,,,,,,,,,,,,,,,,Student,3.0943,823.0611647999995,823.0618104999994,823.0619184999996,823.0763773999997,826.1761698,826.1606678999997,826.1649834999998,826.1761698,826.1761698,826.1761698,826.1761698,828.1760314999992,828.1760314999992,828.1760314999992,828.1760314999992,828.1602697999997,2,0.8057208999998693,0.19248640000023443,None,,,,,,,,,,,,,,,,,,,,,,1029,1,2025-09-22_12h58.39.487,sm,2024.2.4,59.97130972535801,2025-09-22 12h58.49.613032 +0200,
15,0,15,,,,,,space,2.883649599999444,None,None,3,0.8137360000000626,0.23711259999981849,None,0,0,0,0,,,,,1,0,1,0,,,,,15,0,15,0,828.1760314999992,,,,,,,,,,,,,,,,,,,,,,,,,,,,,,,,,,,,,,,,,,,,,,,,,,,,,,,,,Wahrheit,2.5774,828.1607092999993,828.1613249999991,828.1614198999996,828.1760314999992,830.7590661999993,830.7432896999999,830.7465926999994,830.7590661999993,830.7590661999993,830.7590661999993,830.7590661999993,832.7590857999994,832.7590857999994,832.7590857999994,832.7590857999994,832.7435736999996,3,0.8137360000000626,0.23711259999981849,None,,,,,,,,,,,,,,,,,,,,,,1029,1,2025-09-22_12h58.39.487,sm,2024.2.4,59.97130972535801,2025-09-22 12h58.49.613032 +0200,
16,0,16,,,,,,space,2.883649599999444,None,None,3,1.6460794999993595,0.2263388000001214,None,0,0,0,0,,,,,1,0,1,0,,,,,16,0,16,0,832.7590857999994,,,,,,,,,,,,,,,,,,,,,,,,,,,,,,,,,,,,,,,,,,,,,,,,,,,,,,,,,Bild,2.4341,832.7440572999994,832.744549,832.7446557999992,832.7590857999994,835.1922486999993,835.1768194999995,835.1812233999999,835.1922486999993,835.1922486999993,835.1922486999993,835.1922486999993,837.1922882999997,837.1922882999997,837.1922882999997,837.1922882999997,837.1765226999996,3,1.6460794999993595,0.2263388000001214,None,,,,,,,,,,,,,,,,,,,,,,1029,1,2025-09-22_12h58.39.487,sm,2024.2.4,59.97130972535801,2025-09-22 12h58.49.613032 +0200,
17,0,17,,,,,,space,2.883649599999444,None,None,3,0.7602821000000404,0.18808250000074622,None,0,0,0,0,,,,,1,0,1,0,,,,,17,0,17,0,837.1922882999997,,,,,,,,,,,,,,,,,,,,,,,,,,,,,,,,,,,,,,,,,,,,,,,,,,,,,,,,,Fernseher,2.2824,837.1770251999997,837.1775373999999,837.1776439999994,837.1922882999997,839.4751723999998,839.4596951999993,839.4634456999993,839.4751723999998,839.4751723999998,839.4751723999998,839.4751723999998,841.4751565999995,841.4751565999995,841.4751565999995,841.4751565999995,841.4599369999996,3,0.7602821000000404,0.18808250000074622,None,,,,,,,,,,,,,,,,,,,,,,1029,1,2025-09-22_12h58.39.487,sm,2024.2.4,59.97130972535801,2025-09-22 12h58.49.613032 +0200,
18,0,18,,,,,,space,2.883649599999444,None,None,2,0.8029895999998189,0.1772608000001128,None,0,0,0,0,,,,,1,0,1,0,,,,,18,0,18,0,841.4751565999995,,,,,,,,,,,,,,,,,,,,,,,,,,,,,,,,,,,,,,,,,,,,,,,,,,,,,,,,,Fuß,2.265,841.4604347999993,841.4611855999992,841.4612927999997,841.4751565999995,843.7418814999992,843.7261011999999,843.7292162999993,843.7418814999992,843.7418814999992,843.7418814999992,843.7418814999992,845.7418653999994,845.7418653999994,845.7418653999994,845.7418653999994,845.7259712999994,2,0.8029895999998189,0.1772608000001128,None,,,,,,,,,,,,,,,,,,,,,,1029,1,2025-09-22_12h58.39.487,sm,2024.2.4,59.97130972535801,2025-09-22 12h58.49.613032 +0200,
19,0,19,,,,,,space,2.883649599999444,None,None,3,0.6104956999997739,0.24023600000055012,None,0,0,0,0,,,,,1,0,1,0,,,,,19,0,19,0,845.7418653999994,,,,,,,,,,,,,,,,,,,,,,,,,,,,,,,,,,,,,,,,,,,,,,,,,,,,,,,,,Maske,3.4907,845.7264151999998,845.7270249999992,845.7271183999992,845.7418653999994,849.2411345999999,849.2258835999992,849.2294159999992,849.2411345999999,849.2411345999999,849.2411345999999,849.2411345999999,851.2413981,851.2413981,851.2413981,851.2413981,851.2262541999999,3,0.6104956999997739,0.24023600000055012,None,,,,,,,,,,,,,,,,,,,,,,1029,1,2025-09-22_12h58.39.487,sm,2024.2.4,59.97130972535801,2025-09-22 12h58.49.613032 +0200,
20,0,20,,,,,,space,2.883649599999444,None,None,3,1.0226205999997546,0.3118474000002607,None,0,0,0,0,,,,,1,0,1,0,,,,,20,0,20,0,851.2413981,,,,,,,,,,,,,,,,,,,,,,,,,,,,,,,,,,,,,,,,,,,,,,,,,,,,,,,,,Scheidung,4.9805,851.2267560999999,851.2274047999999,851.2275109999991,851.2413981,856.2243798999998,856.2089068999994,856.2127647999996,856.2243798999998,856.2243798999998,856.2243798999998,856.2243798999998,858.2243196999998,858.2243196999998,858.2243196999998,858.2243196999998,858.2091608999999,3,1.0226205999997546,0.3118474000002607,None,,,,,,,,,,,,,,,,,,,,,,1029,1,2025-09-22_12h58.39.487,sm,2024.2.4,59.97130972535801,2025-09-22 12h58.49.613032 +0200,
21,0,21,,,,,,space,2.883649599999444,None,None,3,0.8685284000002866,0.24334369999996852,None,0,0,0,0,,,,,1,0,1,0,,,,,21,0,21,0,858.2243196999998,,,,,,,,,,,,,,,,,,,,,,,,,,,,,,,,,,,,,,,,,,,,,,,,,,,,,,,,,Teleskop,3.4092,858.2096646999998,858.2101677999999,858.2102767999995,858.2243196999998,861.6405329999998,861.6251181999996,861.6293988999996,861.6405329999998,861.6405329999998,861.6405329999998,861.6405329999998,863.6403903999999,863.6403903999999,863.6403903999999,863.6403903999999,863.6247311999996,3,0.8685284000002866,0.24334369999996852,None,,,,,,,,,,,,,,,,,,,,,,1029,1,2025-09-22_12h58.39.487,sm,2024.2.4,59.97130972535801,2025-09-22 12h58.49.613032 +0200,
22,0,22,,,,,,space,2.883649599999444,None,None,2,0.8047302000004493,0.20484549999946466,None,0,0,0,0,,,,,1,0,1,0,,,,,22,0,22,0,863.6403903999999,,,,,,,,,,,,,,,,,,,,,,,,,,,,,,,,,,,,,,,,,,,,,,,,,,,,,,,,,Wurm,2.7761,863.6251478999993,863.6256797999995,863.6257694999995,863.6403903999999,866.4236940999999,866.4077742,866.4104853999997,866.4236940999999,866.4236940999999,866.4236940999999,866.4236940999999,868.4238182999998,868.4238182999998,868.4238182999998,868.4238182999998,868.4080263999995,2,0.8047302000004493,0.20484549999946466,None,,,,,,,,,,,,,,,,,,,,,,1029,1,2025-09-22_12h58.39.487,sm,2024.2.4,59.97130972535801,2025-09-22 12h58.49.613032 +0200,
23,0,23,,,,,,space,2.883649599999444,None,None,3,0.7759104999995543,0.23095680000005814,None,0,0,0,0,,,,,1,0,1,0,,,,,23,0,23,0,868.4238182999998,,,,,,,,,,,,,,,,,,,,,,,,,,,,,,,,,,,,,,,,,,,,,,,,,,,,,,,,,Gipfel,3.4098,868.4085228999993,868.4091641999994,868.4092682999999,868.4238182999998,871.8401953999992,871.8246489999992,871.8295919999991,871.8401953999992,871.8401953999992,871.8401953999992,871.8401953999992,873.8402174999992,873.8402174999992,873.8402174999992,873.8402174999992,873.8244439,3,0.7759104999995543,0.23095680000005814,None,,,,,,,,,,,,,,,,,,,,,,1029,1,2025-09-22_12h58.39.487,sm,2024.2.4,59.97130972535801,2025-09-22 12h58.49.613032 +0200,
24,0,24,,,,,,space,2.883649599999444,None,None,3,0.6123028000001796,0.2287913000000117,None,0,0,0,0,,,,,1,0,1,0,,,,,24,0,24,0,873.8402174999992,,,,,,,,,,,,,,,,,,,,,,,,,,,,,,,,,,,,,,,,,,,,,,,,,,,,,,,,,Nachricht,4.2193,873.8249465999997,873.8255683999996,873.8257423999994,873.8402174999992,878.0730673999997,878.0572951999993,878.0609117999993,878.0730673999997,878.0730673999997,878.0730673999997,878.0730673999997,880.0730691999997,880.0730691999997,880.0730691999997,880.0730691999997,880.0576308,3,0.6123028000001796,0.2287913000000117,None,,,,,,,,,,,,,,,,,,,,,,1029,1,2025-09-22_12h58.39.487,sm,2024.2.4,59.97130972535801,2025-09-22 12h58.49.613032 +0200,
25,0,25,,,,,,space,2.883649599999444,None,None,3,0.8161188000003676,0.2144109999999273,None,0,0,0,0,,,,,1,0,1,0,,,,,25,0,25,0,880.0730691999997,,,,,,,,,,,,,,,,,,,,,,,,,,,,,,,,,,,,,,,,,,,,,,,,,,,,,,,,,Gleis,3.017,880.0581279999997,880.0589050999997,880.0590285999997,880.0730691999997,883.0898315999993,883.0738597999998,883.077902,883.0898315999993,883.0898315999993,883.0898315999993,883.0898315999993,885.0897100999991,885.0897100999991,885.0897100999991,885.0897100999991,885.0740974999999,3,0.8161188000003676,0.2144109999999273,None,,,,,,,,,,,,,,,,,,,,,,1029,1,2025-09-22_12h58.39.487,sm,2024.2.4,59.97130972535801,2025-09-22 12h58.49.613032 +0200,
26,0,26,,,,,,space,2.883649599999444,None,None,3,1.0308444000002055,0.22403320000012172,None,0,0,0,0,,,,,1,0,1,0,,,,,26,0,26,0,885.0897100999991,,,,,,,,,,,,,,,,,,,,,,,,,,,,,,,,,,,,,,,,,,,,,,,,,,,,,,,,,Club,2.3194,885.0746080999998,885.0751209,885.0752284999999,885.0897100999991,887.4222288999999,887.4069143999996,887.4129757999999,887.4222288999999,887.4222288999999,887.4222288999999,887.4222288999999,889.4226060999999,889.4226060999999,889.4226060999999,889.4226060999999,889.4069496999991,3,1.0308444000002055,0.22403320000012172,None,,,,,,,,,,,,,,,,,,,,,,1029,1,2025-09-22_12h58.39.487,sm,2024.2.4,59.97130972535801,2025-09-22 12h58.49.613032 +0200,
27,0,27,,,,,,space,2.883649599999444,None,None,2,0.7177777999995669,0.2308659999998781,None,0,0,0,0,,,,,1,0,1,0,,,,,27,0,27,0,889.4226060999999,,,,,,,,,,,,,,,,,,,,,,,,,,,,,,,,,,,,,,,,,,,,,,,,,,,,,,,,,Familie,3.816,889.4074478999992,889.4079792999992,889.4080827999996,889.4226060999999,893.2388919999994,893.2235222999998,893.2278090999998,893.2388919999994,893.2388919999994,893.2388919999994,893.2388919999994,895.2389309,895.2389309,895.2389309,895.2389309,895.2232832999998,2,0.7177777999995669,0.2308659999998781,None,,,,,,,,,,,,,,,,,,,,,,1029,1,2025-09-22_12h58.39.487,sm,2024.2.4,59.97130972535801,2025-09-22 12h58.49.613032 +0200,
28,0,28,,,,,,space,2.883649599999444,None,None,3,1.0261881000005815,0.25173909999921307,None,0,0,0,0,,,,,1,0,1,0,,,,,28,0,28,0,895.2389309,,,,,,,,,,,,,,,,,,,,,,,,,,,,,,,,,,,,,,,,,,,,,,,,,,,,,,,,,Moor,2.0171,895.2237860999994,895.2242984999993,895.2244028999994,895.2389309,897.2554464999994,897.2398447999994,897.2431220999997,897.2554464999994,897.2554464999994,897.2554464999994,897.2554464999994,899.2558574999994,899.2558574999994,899.2558574999994,899.2558574999994,899.2400054999998,3,1.0261881000005815,0.25173909999921307,None,,,,,,,,,,,,,,,,,,,,,,1029,1,2025-09-22_12h58.39.487,sm,2024.2.4,59.97130972535801,2025-09-22 12h58.49.613032 +0200,
29,0,29,,,,,,space,2.883649599999444,None,None,2,0.7411924000007275,0.19900809999944613,None,0,0,0,0,,,,,1,0,1,0,,,,,29,0,29,0,899.2558574999994,,,,,,,,,,,,,,,,,,,,,,,,,,,,,,,,,,,,,,,,,,,,,,,,,,,,,,,,,Baum,2.3881,899.2404970999996,899.2412377999999,899.2413417999996,899.2558574999994,901.6550287,901.6394836,901.6433644999997,901.6550287,901.6550287,901.6550287,901.6550287,903.6549204999992,903.6549204999992,903.6549204999992,903.6549204999992,903.6394870999993,2,0.7411924000007275,0.19900809999944613,None,,,,,,,,,,,,,,,,,,,,,,1029,1,2025-09-22_12h58.39.487,sm,2024.2.4,59.97130972535801,2025-09-22 12h58.49.613032 +0200,
30,0,30,,,,,,space,2.883649599999444,None,None,2,1.13947619999999,0.20540789999995468,None,0,0,0,0,,,,,1,0,1,0,,,,,30,0,30,0,903.6549204999992,,,,,,,,,,,,,,,,,,,,,,,,,,,,,,,,,,,,,,,,,,,,,,,,,,,,,,,,,Schulter,3.1542,903.6399878999991,903.6405009,903.6406109,903.6549204999992,906.8218038999994,906.8056484999997,906.8096046999999,906.8218038999994,906.8218038999994,906.8218038999994,906.8218038999994,908.8212744999992,908.8212744999992,908.8212744999992,908.8212744999992,908.8056058999991,2,1.13947619999999,0.20540789999995468,None,,,,,,,,,,,,,,,,,,,,,,1029,1,2025-09-22_12h58.39.487,sm,2024.2.4,59.97130972535801,2025-09-22 12h58.49.613032 +0200,
31,0,31,,,,,,space,2.883649599999444,None,None,3,0.8378543999997419,0.2403586999998879,None,0,0,0,0,,,,,1,0,1,0,,,,,31,0,31,0,908.8212744999992,,,,,,,,,,,,,,,,,,,,,,,,,,,,,,,,,,,,,,,,,,,,,,,,,,,,,,,,,Afrika,3.4659,908.8060812999993,908.8068064999998,908.8069105999994,908.8212744999992,912.2878112999997,912.2722176999996,912.2765055,912.2878112999997,912.2878112999997,912.2878112999997,912.2878112999997,914.2878032999997,914.2878032999997,914.2878032999997,914.2878032999997,914.2722367999995,3,0.8378543999997419,0.2403586999998879,None,,,,,,,,,,,,,,,,,,,,,,1029,1,2025-09-22_12h58.39.487,sm,2024.2.4,59.97130972535801,2025-09-22 12h58.49.613032 +0200,
32,0,32,,,,,,space,2.883649599999444,None,None,3,0.7385463000000527,0.23385939999934635,None,0,0,0,0,,,,,1,0,1,0,,,,,32,0,32,0,914.2878032999997,,,,,,,,,,,,,,,,,,,,,,,,,,,,,,,,,,,,,,,,,,,,,,,,,,,,,,,,,Farbe,2.7384,914.2727424999994,914.2732616999992,914.2733681999998,914.2878032999997,917.0376608999995,917.0218175,917.0253473999992,917.0376608999995,917.0376608999995,917.0376608999995,917.0376608999995,919.0377654999993,919.0377654999993,919.0377654999993,919.0377654999993,919.0217862999998,3,0.7385463000000527,0.23385939999934635,None,,,,,,,,,,,,,,,,,,,,,,1029,1,2025-09-22_12h58.39.487,sm,2024.2.4,59.97130972535801,2025-09-22 12h58.49.613032 +0200,
33,0,33,,,,,,space,2.883649599999444,None,None,3,1.0002955999998449,0.2832477000001745,None,0,0,0,0,,,,,1,0,1,0,,,,,33,0,33,0,919.0377654999993,,,,,,,,,,,,,,,,,,,,,,,,,,,,,,,,,,,,,,,,,,,,,,,,,,,,,,,,,Medaille,2.6384,919.0222080999993,919.0226647999998,919.0227526999997,919.0377654999993,921.6870798,921.6718016999994,921.6756295999994,921.6870798,921.6870798,921.6870798,921.6870798,923.6873407999992,923.6873407999992,923.6873407999992,923.6873407999992,923.6718759999994,3,1.0002955999998449,0.2832477000001745,None,,,,,,,,,,,,,,,,,,,,,,1029,1,2025-09-22_12h58.39.487,sm,2024.2.4,59.97130972535801,2025-09-22 12h58.49.613032 +0200,
34,0,34,,,,,,space,2.883649599999444,None,None,3,0.6116382999998677,0.2659382000001642,None,0,0,0,0,,,,,1,0,1,0,,,,,34,0,34,0,923.6873407999992,,,,,,,,,,,,,,,,,,,,,,,,,,,,,,,,,,,,,,,,,,,,,,,,,,,,,,,,,Film,2.4626,923.6724179999992,923.6730263999998,923.6731400999997,923.6873407999992,926.1535432999999,926.1404138999997,926.1437560999993,926.1535432999999,926.1535432999999,926.1535432999999,926.1535432999999,928.1537636999992,928.1537636999992,928.1537636999992,928.1537636999992,928.1378323999998,3,0.6116382999998677,0.2659382000001642,None,,,,,,,,,,,,,,,,,,,,,,1029,1,2025-09-22_12h58.39.487,sm,2024.2.4,59.97130972535801,2025-09-22 12h58.49.613032 +0200,
35,0,35,,,,,,space,2.883649599999444,None,None,2,0.7872148000005836,0.2065482999996675,None,0,0,0,0,,,,,1,0,1,0,,,,,35,0,35,0,928.1537636999992,,,,,,,,,,,,,,,,,,,,,,,,,,,,,,,,,,,,,,,,,,,,,,,,,,,,,,,,,Gesicht,3.0961,928.1382594999995,928.1389764999994,928.1390646,928.1537636999992,931.2529981999996,931.2377102999999,931.2411339999999,931.2529981999996,931.2529981999996,931.2529981999996,931.2529981999996,933.2534173999993,933.2534173999993,933.2534173999993,933.2534173999993,933.2378570999999,2,0.7872148000005836,0.2065482999996675,None,,,,,,,,,,,,,,,,,,,,,,1029,1,2025-09-22_12h58.39.487,sm,2024.2.4,59.97130972535801,2025-09-22 12h58.49.613032 +0200,
36,0,36,,,,,,space,2.883649599999444,None,None,3,0.6977763000004416,0.22732730000006995,None,0,0,0,0,,,,,1,0,1,0,,,,,36,0,36,0,933.2534173999993,,,,,,,,,,,,,,,,,,,,,,,,,,,,,,,,,,,,,,,,,,,,,,,,,,,,,,,,,Dachboden,3.7661,933.2383694999999,933.2388764999996,933.2389846999995,933.2534173999993,937.0193590999997,937.0038877999996,937.0096777999997,937.0193590999997,937.0193590999997,937.0193590999997,937.0193590999997,939.0198555999996,939.0198555999996,939.0198555999996,939.0198555999996,939.0043238999997,3,0.6977763000004416,0.22732730000006995,None,,,,,,,,,,,,,,,,,,,,,,1029,1,2025-09-22_12h58.39.487,sm,2024.2.4,59.97130972535801,2025-09-22 12h58.49.613032 +0200,
37,0,37,,,,,,space,2.883649599999444,None,None,3,0.9882646000005479,0.22405049999997573,None,0,0,0,0,,,,,1,0,1,0,,,,,37,0,37,0,939.0198555999996,,,,,,,,,,,,,,,,,,,,,,,,,,,,,,,,,,,,,,,,,,,,,,,,,,,,,,,,,Zimmer,3.6067,939.0048240999995,939.0053401999994,939.0054538999993,939.0198555999996,942.6359751999998,942.6207470999998,942.6245374,942.6359751999998,942.6359751999998,942.6359751999998,942.6359751999998,944.6360664999993,944.6360664999993,944.6360664999993,944.6360664999993,944.6203544999998,3,0.9882646000005479,0.22405049999997573,None,,,,,,,,,,,,,,,,,,,,,,1029,1,2025-09-22_12h58.39.487,sm,2024.2.4,59.97130972535801,2025-09-22 12h58.49.613032 +0200,
38,0,38,,,,,,space,2.883649599999444,None,None,3,0.6129700000001321,0.21631579999939277,None,0,0,0,0,,,,,1,0,1,0,,,,,38,0,38,0,944.6360664999993,,,,,,,,,,,,,,,,,,,,,,,,,,,,,,,,,,,,,,,,,,,,,,,,,,,,,,,,,Rock,2.227,944.6208557,944.6213660999992,944.6214746999995,944.6360664999993,946.8691413999995,946.8535695999999,946.8570399,946.8691413999995,946.8691413999995,946.8691413999995,946.8691413999995,948.8692198999997,948.8692198999997,948.8692198999997,948.8692198999997,948.8535474999999,3,0.6129700000001321,0.21631579999939277,None,,,,,,,,,,,,,,,,,,,,,,1029,1,2025-09-22_12h58.39.487,sm,2024.2.4,59.97130972535801,2025-09-22 12h58.49.613032 +0200,
39,0,39,,,,,,space,2.883649599999444,None,None,2,0.7530663000006825,0.1963857000000644,None,0,0,0,0,,,,,1,0,1,0,,,,,39,0,39,0,948.8692198999997,,,,,,,,,,,,,,,,,,,,,,,,,,,,,,,,,,,,,,,,,,,,,,,,,,,,,,,,,Agent,2.437,948.8540424999992,948.8546804999996,948.8547861999996,948.8692198999997,951.3191927999997,951.3034276999997,951.3073816999995,951.3191927999997,951.3191927999997,951.3191927999997,951.3191927999997,953.3187498999996,953.3187498999996,953.3187498999996,953.3187498999996,953.3036591999999,2,0.7530663000006825,0.1963857000000644,None,,,,,,,,,,,,,,,,,,,,,,1029,1,2025-09-22_12h58.39.487,sm,2024.2.4,59.97130972535801,2025-09-22 12h58.49.613032 +0200,
40,0,40,,,,,,space,2.883649599999444,None,None,3,0.6268056999997498,0.22783140000046842,None,0,0,0,0,,,,,1,0,1,0,,,,,40,0,40,0,953.3187498999996,,,,,,,,,,,,,,,,,,,,,,,,,,,,,,,,,,,,,,,,,,,,,,,,,,,,,,,,,Wohnung,2.6843,953.3041575999996,953.3046562999998,953.3047612999999,953.3187498999996,956.0020349999995,955.9867674999996,955.9910084999992,956.0020349999995,956.0020349999995,956.0020349999995,956.0020349999995,958.0021011999997,958.0021011999997,958.0021011999997,958.0021011999997,957.9862929999999,3,0.6268056999997498,0.22783140000046842,None,,,,,,,,,,,,,,,,,,,,,,1029,1,2025-09-22_12h58.39.487,sm,2024.2.4,59.97130972535801,2025-09-22 12h58.49.613032 +0200,
41,0,41,,,,,,space,2.883649599999444,None,None,3,0.8067240000000311,0.28631850000056147,None,0,0,0,0,,,,,1,0,1,0,,,,,41,0,41,0,958.0021011999997,,,,,,,,,,,,,,,,,,,,,,,,,,,,,,,,,,,,,,,,,,,,,,,,,,,,,,,,,Duft,2.0219,957.9867964999994,957.9873048999998,957.9874083999994,958.0021011999997,960.0350455999996,960.0196688999995,960.0229989,960.0350455999996,960.0350455999996,960.0350455999996,960.0350455999996,962.0353946999994,962.0353946999994,962.0353946999994,962.0353946999994,962.0195729999996,3,0.8067240000000311,0.28631850000056147,None,,,,,,,,,,,,,,,,,,,,,,1029,1,2025-09-22_12h58.39.487,sm,2024.2.4,59.97130972535801,2025-09-22 12h58.49.613032 +0200,
42,0,42,,,,,,space,2.883649599999444,None,None,2,0.8274086000001262,0.18252179999944929,None,0,0,0,0,,,,,1,0,1,0,,,,,42,0,42,0,962.0353946999994,,,,,,,,,,,,,,,,,,,,,,,,,,,,,,,,,,,,,,,,,,,,,,,,,,,,,,,,,Monster,2.6012,962.0200715999999,962.0205656999997,962.0206702999994,962.0353946999994,964.6512268999995,964.6358690999996,964.6394840999992,964.6512268999995,964.6512268999995,964.6512268999995,964.6512268999995,966.6515824999997,966.6515824999997,966.6515824999997,966.6515824999997,966.6358732999997,2,0.8274086000001262,0.18252179999944929,None,,,,,,,,,,,,,,,,,,,,,,1029,1,2025-09-22_12h58.39.487,sm,2024.2.4,59.97130972535801,2025-09-22 12h58.49.613032 +0200,
43,0,43,,,,,,space,2.883649599999444,None,None,3,1.0696712999997544,0.2344187000007878,None,0,0,0,0,,,,,1,0,1,0,,,,,43,0,43,0,966.6515824999997,,,,,,,,,,,,,,,,,,,,,,,,,,,,,,,,,,,,,,,,,,,,,,,,,,,,,,,,,Geschichte,4.0429,966.6363754999993,966.6371175999993,966.6372234999999,966.6515824999997,970.7014909999998,970.6855310999999,970.6899663999993,970.7014909999998,970.7014909999998,970.7014909999998,970.7014909999998,972.7015498999999,972.7015498999999,972.7015498999999,972.7015498999999,972.6854069999999,3,1.0696712999997544,0.2344187000007878,None,,,,,,,,,,,,,,,,,,,,,,1029,1,2025-09-22_12h58.39.487,sm,2024.2.4,59.97130972535801,2025-09-22 12h58.49.613032 +0200,
44,0,44,,,,,,space,2.883649599999444,None,None,3,1.1323551000004954,0.5964326000002984,None,0,0,0,0,,,,,1,0,1,0,,,,,44,0,44,0,972.7015498999999,,,,,,,,,,,,,,,,,,,,,,,,,,,,,,,,,,,,,,,,,,,,,,,,,,,,,,,,,Krieg,2.8085,972.6858788,972.6863899,972.6864885999994,972.7015498999999,975.5173507999998,975.5019115999994,975.5057113999992,975.5173507999998,975.5173507999998,975.5173507999998,975.5173507999998,977.5174905999993,977.5174905999993,977.5174905999993,977.5174905999993,977.5023100999997,3,1.1323551000004954,0.5964326000002984,None,,,,,,,,,,,,,,,,,,,,,,1029,1,2025-09-22_12h58.39.487,sm,2024.2.4,59.97130972535801,2025-09-22 12h58.49.613032 +0200,
45,0,45,,,,,,space,2.883649599999444,None,None,3,0.7453702000002522,0.4936281999998755,None,0,0,0,0,,,,,1,0,1,0,,,,,45,0,45,0,977.5174905999993,,,,,,,,,,,,,,,,,,,,,,,,,,,,,,,,,,,,,,,,,,,,,,,,,,,,,,,,,Juwel,4.8079,977.5028026999998,977.5033916999992,977.5034962,977.5174905999993,982.3334435999996,982.3179934,982.3234651999992,982.3334435999996,982.3334435999996,982.3334435999996,982.3334435999996,984.3340421999992,984.3340421999992,984.3340421999992,984.3340421999992,984.3183019999997,3,0.7453702000002522,0.4936281999998755,None,,,,,,,,,,,,,,,,,,,,,,1029,1,2025-09-22_12h58.39.487,sm,2024.2.4,59.97130972535801,2025-09-22 12h58.49.613032 +0200,
46,0,46,,,,,,space,2.883649599999444,None,None,2,0.826705999999831,0.1984640999999101,None,0,0,0,0,,,,,1,0,1,0,,,,,46,0,46,0,984.3340421999992,,,,,,,,,,,,,,,,,,,,,,,,,,,,,,,,,,,,,,,,,,,,,,,,,,,,,,,,,Hai,3.9512,984.3188551999992,984.3193738999998,984.3194822999994,984.3340421999992,988.2998212999992,988.2843663999993,988.2875836999992,988.2998212999992,988.2998212999992,988.2998212999992,988.2998212999992,990.3000986999996,990.3000986999996,990.3000986999996,990.3000986999996,990.2846483999992,2,0.826705999999831,0.1984640999999101,None,,,,,,,,,,,,,,,,,,,,,,1029,1,2025-09-22_12h58.39.487,sm,2024.2.4,59.97130972535801,2025-09-22 12h58.49.613032 +0200,
47,0,47,,,,,,space,2.883649599999444,None,None,3,0.6272853999998915,0.22299560000010388,None,0,0,0,0,,,,,1,0,1,0,,,,,47,0,47,0,990.3000986999996,,,,,,,,,,,,,,,,,,,,,,,,,,,,,,,,,,,,,,,,,,,,,,,,,,,,,,,,,Schreibtisch,2.5193,990.2851621,990.2858117999995,990.2859153999998,990.3000986999996,992.8331451999993,992.8176090999996,992.8217149999991,992.8331451999993,992.8331451999993,992.8331451999993,992.8331451999993,994.8333794,994.8333794,994.8333794,994.8333794,994.8176286999997,3,0.6272853999998915,0.22299560000010388,None,,,,,,,,,,,,,,,,,,,,,,1029,1,2025-09-22_12h58.39.487,sm,2024.2.4,59.97130972535801,2025-09-22 12h58.49.613032 +0200,
48,0,48,,,,,,space,2.883649599999444,None,None,3,0.6831145000005563,0.19582999999965978,None,0,0,0,0,,,,,1,0,1,0,,,,,48,0,48,0,994.8333794,,,,,,,,,,,,,,,,,,,,,,,,,,,,,,,,,,,,,,,,,,,,,,,,,,,,,,,,,Mappe,2.4661,994.8181017999996,994.8185833999996,994.8186814999999,994.8333794,997.2998787999995,997.2840621999994,997.2878123999999,997.2998787999995,997.2998787999995,997.2998787999995,997.2998787999995,999.2997960999992,999.2997960999992,999.2997960999992,999.2997960999992,999.2842525999995,3,0.6831145000005563,0.19582999999965978,None,,,,,,,,,,,,,,,,,,,,,,1029,1,2025-09-22_12h58.39.487,sm,2024.2.4,59.97130972535801,2025-09-22 12h58.49.613032 +0200,
49,0,49,,,,,,space,2.883649599999444,None,None,3,1.4111290000000736,0.46574280000004364,None,0,0,0,0,,,,,1,0,1,0,,,,,49,0,49,0,999.2997960999992,,,,,,,,,,,,,,,,,,,,,,,,,,,,,,,,,,,,,,,,,,,,,,,,,,,,,,,,,Kuchen ,4.976,999.2847471999994,999.2854835999997,999.2855873999997,999.2997960999992,1004.2824262999993,1004.2668053999996,1004.2714712999996,1004.2824262999993,1004.2824262999993,1004.2824262999993,1004.2824262999993,1006.2827777999992,1006.2827777999992,1006.2827777999992,1006.2827777999992,1006.2673857,3,1.4111290000000736,0.46574280000004364,None,,,,,,,,,,,,,,,,,,,,,,1029,1,2025-09-22_12h58.39.487,sm,2024.2.4,59.97130972535801,2025-09-22 12h58.49.613032 +0200,
50,0,50,,,,,,space,2.883649599999444,None,None,2,1.0625403000003644,0.18052559999978257,None,0,0,0,0,,,,,1,0,1,0,,,,,50,0,50,0,1006.2827777999992,,,,,,,,,,,,,,,,,,,,,,,,,,,,,,,,,,,,,,,,,,,,,,,,,,,,,,,,,Orange,2.289,1006.2678887999991,1006.2685406999999,1006.2686451999998,1006.2827777999992,1008.5821221999995,1008.5668999999998,1008.5731386999996,1008.5821221999995,1008.5821221999995,1008.5821221999995,1008.5821221999995,1010.5822744999996,1010.5822744999996,1010.5822744999996,1010.5822744999996,1010.5671336999994,2,1.0625403000003644,0.18052559999978257,None,,,,,,,,,,,,,,,,,,,,,,1029,1,2025-09-22_12h58.39.487,sm,2024.2.4,59.97130972535801,2025-09-22 12h58.49.613032 +0200,
51,0,51,,,,,,space,2.883649599999444,None,None,2,0.749700500000472,0.1834614999997939,None,0,0,0,0,,,,,1,0,1,0,,,,,51,0,51,0,1010.5822744999996,,,,,,,,,,,,,,,,,,,,,,,,,,,,,,,,,,,,,,,,,,,,,,,,,,,,,,,,,Gelenk,2.6027,1010.5676369999992,1010.5681429999995,1010.5682883,1010.5822744999996,1013.1987442999998,1013.1832326999993,1013.1870959999997,1013.1987442999998,1013.1987442999998,1013.1987442999998,1013.1987442999998,1015.1986447999998,1015.1986447999998,1015.1986447999998,1015.1986447999998,1015.1833054999997,2,0.749700500000472,0.1834614999997939,None,,,,,,,,,,,,,,,,,,,,,,1029,1,2025-09-22_12h58.39.487,sm,2024.2.4,59.97130972535801,2025-09-22 12h58.49.613032 +0200,
52,0,52,,,,,,space,2.883649599999444,None,None,3,1.0115802999998778,0.18961680000029446,None,0,0,0,0,,,,,1,0,1,0,,,,,52,0,52,0,1015.1986447999998,,,,,,,,,,,,,,,,,,,,,,,,,,,,,,,,,,,,,,,,,,,,,,,,,,,,,,,,,Kaffee,3.4121,1015.1838183999998,1015.1843301999997,1015.1844357,1015.1986447999998,1018.6151060999991,1018.5994246,1018.6031702,1018.6151060999991,1018.6151060999991,1018.6151060999991,1018.6151060999991,1020.6153152999996,1020.6153152999996,1020.6153152999996,1020.6153152999996,1020.5995399999993,3,1.0115802999998778,0.18961680000029446,None,,,,,,,,,,,,,,,,,,,,,,1029,1,2025-09-22_12h58.39.487,sm,2024.2.4,59.97130972535801,2025-09-22 12h58.49.613032 +0200,
53,0,53,,,,,,space,2.883649599999444,None,None,3,1.0157285999994201,0.19595600000047853,None,0,0,0,0,,,,,1,0,1,0,,,,,53,0,53,0,1020.6153152999996,,,,,,,,,,,,,,,,,,,,,,,,,,,,,,,,,,,,,,,,,,,,,,,,,,,,,,,,,Zimt,2.3884,1020.6000510999993,1020.6005620999995,1020.6006724999997,1020.6153152999996,1023.0148462999996,1022.9993971999993,1023.0030147999996,1023.0148462999996,1023.0148462999996,1023.0148462999996,1023.0148462999996,1025.0150572999992,1025.0150572999992,1025.0150572999992,1025.0150572999992,1024.9993693999995,3,1.0157285999994201,0.19595600000047853,None,,,,,,,,,,,,,,,,,,,,,,1029,1,2025-09-22_12h58.39.487,sm,2024.2.4,59.97130972535801,2025-09-22 12h58.49.613032 +0200,
54,0,54,,,,,,space,2.883649599999444,None,None,3,1.1513809999996738,0.23041990000001533,None,0,0,0,0,,,,,1,0,1,0,,,,,54,0,54,0,1025.0150572999992,,,,,,,,,,,,,,,,,,,,,,,,,,,,,,,,,,,,,,,,,,,,,,,,,,,,,,,,,Zeigen,2.3937,1024.9998698999998,1025.0005097999992,1025.0006151999996,1025.0150572999992,1027.4147180999998,1027.3988554999996,1027.4019525999993,1027.4147180999998,1027.4147180999998,1027.4147180999998,1027.4147180999998,1029.4145596999997,1029.4145596999997,1029.4145596999997,1029.4145596999997,1029.3989822999993,3,1.1513809999996738,0.23041990000001533,None,,,,,,,,,,,,,,,,,,,,,,1029,1,2025-09-22_12h58.39.487,sm,2024.2.4,59.97130972535801,2025-09-22 12h58.49.613032 +0200,
55,0,55,,,,,,space,2.883649599999444,None,None,3,0.8057681999998749,0.25021120000019437,None,0,0,0,0,,,,,1,0,1,0,,,,,55,0,55,0,1029.4145596999997,,,,,,,,,,,,,,,,,,,,,,,,,,,,,,,,,,,,,,,,,,,,,,,,,,,,,,,,,Konzert,3.6509,1029.3994870999995,1029.3999845999997,1029.4000895999998,1029.4145596999997,1033.0810943999995,1033.0652789999995,1033.0704466999996,1033.0810943999995,1033.0810943999995,1033.0810943999995,1033.0810943999995,1035.0812743999995,1035.0812743999995,1035.0812743999995,1035.0812743999995,1035.0655134999997,3,0.8057681999998749,0.25021120000019437,None,,,,,,,,,,,,,,,,,,,,,,1029,1,2025-09-22_12h58.39.487,sm,2024.2.4,59.97130972535801,2025-09-22 12h58.49.613032 +0200,
56,0,56,,,,,,space,2.883649599999444,None,None,3,0.6045353999998042,0.2170006000005742,None,0,0,0,0,,,,,1,0,1,0,,,,,56,0,56,0,1035.0812743999995,,,,,,,,,,,,,,,,,,,,,,,,,,,,,,,,,,,,,,,,,,,,,,,,,,,,,,,,,Ball,2.9278,1035.0660347999992,1035.0665949999993,1035.0667079999994,1035.0812743999995,1038.0141325999994,1037.9984056999992,1038.0014352999997,1038.0141325999994,1038.0141325999994,1038.0141325999994,1038.0141325999994,1040.0139942999995,1040.0139942999995,1040.0139942999995,1040.0139942999995,1039.9984043999993,3,0.6045353999998042,0.2170006000005742,None,,,,,,,,,,,,,,,,,,,,,,1029,1,2025-09-22_12h58.39.487,sm,2024.2.4,59.97130972535801,2025-09-22 12h58.49.613032 +0200,
57,0,57,,,,,,space,2.883649599999444,None,None,3,1.1152462000000014,0.24424610000005487,None,0,0,0,0,,,,,1,0,1,0,,,,,57,0,57,0,1040.0139942999995,,,,,,,,,,,,,,,,,,,,,,,,,,,,,,,,,,,,,,,,,,,,,,,,,,,,,,,,,Gemüse,2.9689,1039.9989215999994,1039.9997987999996,1039.9999331,1040.0139942999995,1042.9973839999993,1042.9817466999993,1042.9857404999993,1042.9973839999993,1042.9973839999993,1042.9973839999993,1042.9973839999993,1044.9971514,1044.9971514,1044.9971514,1044.9971514,1044.9814361999997,3,1.1152462000000014,0.24424610000005487,None,,,,,,,,,,,,,,,,,,,,,,1029,1,2025-09-22_12h58.39.487,sm,2024.2.4,59.97130972535801,2025-09-22 12h58.49.613032 +0200,
58,0,58,,,,,,space,2.883649599999444,None,None,3,1.1124810000001162,0.2662794000007125,None,0,0,0,0,,,,,1,0,1,0,,,,,58,0,58,0,1044.9971514,,,,,,,,,,,,,,,,,,,,,,,,,,,,,,,,,,,,,,,,,,,,,,,,,,,,,,,,,Tür,2.9092,1044.9819410999999,1044.9824756999997,1044.9825815999993,1044.9971514,1047.9137771999995,1047.8982813999992,1047.9027307999995,1047.9137771999995,1047.9137771999995,1047.9137771999995,1047.9137771999995,1049.9133385999994,1049.9133385999994,1049.9133385999994,1049.9133385999994,1049.8980401999997,3,1.1124810000001162,0.2662794000007125,None,,,,,,,,,,,,,,,,,,,,,,1029,1,2025-09-22_12h58.39.487,sm,2024.2.4,59.97130972535801,2025-09-22 12h58.49.613032 +0200,
59,0,59,,,,,,space,2.883649599999444,None,None,2,1.0893994999996721,0.20936950000032084,None,0,0,0,0,,,,,1,0,1,0,,,,,59,0,59,0,1049.9133385999994,,,,,,,,,,,,,,,,,,,,,,,,,,,,,,,,,,,,,,,,,,,,,,,,,,,,,,,,,Bruder,5.1274,1049.8985389999998,1049.8991074999994,1049.8992153,1049.9133385999994,1055.0463461,1055.0307193999997,1055.0341400999996,1055.0463461,1055.0463461,1055.0463461,1055.0463461,1057.0464564999993,1057.0464564999993,1057.0464564999993,1057.0464564999993,1057.0307588999995,2,1.0893994999996721,0.20936950000032084,None,,,,,,,,,,,,,,,,,,,,,,1029,1,2025-09-22_12h58.39.487,sm,2024.2.4,59.97130972535801,2025-09-22 12h58.49.613032 +0200,
60,0,60,,,,,,space,2.883649599999444,None,None,3,1.9501539000002595,None,None,0,0,0,0,,,,,1,0,1,0,,,,,60,0,60,0,1057.0464564999993,,,,,,,,,,,,,,,,,,,,,,,,,,,,,,,,,,,,,,,,,,,,,,,,,,,,,,,,,Schnee,2.294,1057.0312425999991,1057.0318865999998,1057.0319948999995,1057.0464564999993,1059.3461427999991,1059.3305526999993,1059.3345772999992,1059.3461427999991,1059.3461427999991,1059.3461427999991,1059.3461427999991,1061.3461263999998,1061.3461263999998,1061.3461263999998,1061.3461263999998,1061.3305412999998,3,1.9501539000002595,None,None,,,,,,,,,,,,,,,,,,,,,,1029,1,2025-09-22_12h58.39.487,sm,2024.2.4,59.97130972535801,2025-09-22 12h58.49.613032 +0200,
61,0,61,,,,,,space,2.883649599999444,None,None,3,0.8121314999998503,0.19012320000001637,None,0,0,0,0,,,,,1,0,1,0,,,,,61,0,61,0,1061.3461263999998,,,,,,,,,,,,,,,,,,,,,,,,,,,,,,,,,,,,,,,,,,,,,,,,,,,,,,,,,Hammer,4.4504,1061.3310345,1061.3317328999992,1061.3318432999995,1061.3461263999998,1065.7957158999998,1065.7802072999993,1065.7837596,1065.7957158999998,1065.7957158999998,1065.7957158999998,1065.7957158999998,1067.7959259999998,1067.7959259999998,1067.7959259999998,1067.7959259999998,1067.7805187999993,3,0.8121314999998503,0.19012320000001637,None,,,,,,,,,,,,,,,,,,,,,,1029,1,2025-09-22_12h58.39.487,sm,2024.2.4,59.97130972535801,2025-09-22 12h58.49.613032 +0200,
62,0,62,,,,,,space,2.883649599999444,None,None,3,0.7047059999995327,0.22622600000067905,None,0,0,0,0,,,,,1,0,1,0,,,,,62,0,62,0,1067.7959259999998,,,,,,,,,,,,,,,,,,,,,,,,,,,,,,,,,,,,,,,,,,,,,,,,,,,,,,,,,Kopf,2.1907,1067.7810001999997,1067.7815013999998,1067.7816098999992,1067.7959259999998,1069.9954587999991,1069.9805248999992,1069.9848994999993,1069.9954587999991,1069.9954587999991,1069.9954587999991,1069.9954587999991,1071.9956973999997,1071.9956973999997,1071.9956973999997,1071.9956973999997,1071.9800601999996,3,0.7047059999995327,0.22622600000067905,None,,,,,,,,,,,,,,,,,,,,,,1029,1,2025-09-22_12h58.39.487,sm,2024.2.4,59.97130972535801,2025-09-22 12h58.49.613032 +0200,
