thisN,thisTrialN,thisRepN,Cue,Target,Mediator1,Mediator2,iti,scanner_ready_press.keys,scanner_ready_press.rt,scanner_ready_press.duration,skip_trigger.keys,living_nonliving.keys,end_mapping.keys,living_nonliving.rt,living_nonliving.duration,blocks.thisRepN,blocks.thisTrialN,blocks.thisN,blocks.thisIndex,load_and_shuffle.thisRepN,load_and_shuffle.thisTrialN,load_and_shuffle.thisN,load_and_shuffle.thisIndex,runs.thisRepN,runs.thisTrialN,runs.thisN,runs.thisIndex,iti_loading_loop.thisRepN,iti_loading_loop.thisTrialN,iti_loading_loop.thisN,iti_loading_loop.thisIndex,semantic_mapping_run.thisRepN,semantic_mapping_run.thisTrialN,semantic_mapping_run.thisN,semantic_mapping_run.thisIndex,thisRow.t,notes,welcome.started,welcome_text.started,key_resp__welcome.started,welcome.stopped,key_resp__welcome.keys,key_resp__welcome.rt,key_resp__welcome.duration,scout.started,scout_text.started,key_resp.started,scout.stopped,key_resp.keys,key_resp.rt,key_resp.duration,instructions_semantic_mapping1.started,sm_instructions1_text.started,sm_instructions1_key.started,instructions_semantic_mapping1.stopped,sm_instructions1_key.keys,sm_instructions1_key.rt,sm_instructions1_key.duration,instructions_semantic_mapping2.started,sm_instructions2_text.started,sm_instructions2_key.started,instructions_semantic_mapping2.stopped,sm_instructions2_key.keys,sm_instructions2_key.rt,sm_instructions2_key.duration,reset_run.started,reset_run.stopped,shuffle_items.started,shuffle_items.stopped,set_up_runs.started,set_up_runs.stopped,load_iti.started,load_iti.stopped,prep_scanner.started,scanner_ready_press.started,ready_set_text.started,prep_scanner.stopped,runs.scanner_ready_press.keys,runs.scanner_ready_press.rt,runs.scanner_ready_press.duration,wait_for_trigger.started,starting_soon.started,skip_trigger.started,wait_for_trigger.stopped,runs.skip_trigger.keys,blank.started,begin_end_run_cross.started,sound_1.started,sound_1.stopped,sound_2.started,sound_2.stopped,blank.stopped,CurrentItem,CurrentITI,set_up_trial.started,set_up_trial.stopped,sm_iti.started,iti_cross.started,iti_cross.stopped,sm_iti.stopped,item.started,living_nonliving.started,end_mapping.started,living_nonliving_text.started,semantic_map_item.started,living_nonliving.stopped,end_mapping.stopped,living_nonliving_text.stopped,semantic_map_item.stopped,item.stopped,semantic_mapping_run.living_nonliving.keys,semantic_mapping_run.end_mapping.keys,semantic_mapping_run.living_nonliving.rt,semantic_mapping_run.living_nonliving.duration,fieldmap.started,fieldmap.stopped,runs.fm_key.keys,task_break.started,feeback_text.started,task_break_text.started,task_break_resp.started,feeback_text.stopped,task_break.stopped,runs.task_break_resp.keys,runs.task_break_resp.rt,runs.task_break_resp.duration,begin_end_run_cross.stopped,fm_text.started,fm_key.started,runs.fm_key.rt,runs.fm_key.duration,thanks.started,thanks_text.started,thanks_text.stopped,thanks.stopped,PID,MRI,date,expName,psychopyVersion,frameRate,expStart,
,,,,,,,,,,,,,,,,,,,,,,,,,,,,,,,,,,,,,,0.0037741000014648307,0.008956400000897702,0.008956400000897702,9.445555700000114,space,9.427268299999923,None,,,,,,,,,,,,,,,,,,,,,,,,,,,,,,,,,,,,,,,,,,,,,,,,,,,,,,,,,,,,,,,,,,,,,,,,,,,,,,,,,,,,,,,,,,,,2172,1,2025-06-23_16h27.15.471,sm,2024.2.4,59.94959438107896,2025-06-23 16h27.25.882717 +0200,
,,,,,,,,,,,,,,,,,,,,,,,,,,,,,,,,,,,,,,,,,,,,,9.44568050000089,9.455653400000301,9.455653400000301,104.91590470000119,space,95.4526537999991,None,,,,,,,,,,,,,,,,,,,,,,,,,,,,,,,,,,,,,,,,,,,,,,,,,,,,,,,,,,,,,,,,,,,,,,,,,,,,,,,,,,,,,2172,1,2025-06-23_16h27.15.471,sm,2024.2.4,59.94959438107896,2025-06-23 16h27.25.882717 +0200,
,,,,,,,,,,,,,,,,,,,,,,,,,,,,,,,,,,,,,,,,,,,,,,,,,,,,104.91603120000036,104.93040660000042,104.93040660000042,109.16549160000068,2,4.233434899999338,None,,,,,,,,,,,,,,,,,,,,,,,,,,,,,,,,,,,,,,,,,,,,,,,,,,,,,,,,,,,,,,,,,,,,,,,,,,,,,,2172,1,2025-06-23_16h27.15.471,sm,2024.2.4,59.94959438107896,2025-06-23 16h27.25.882717 +0200,
,,,,,,,,,,,,,,,,,,,,,,,,,,,,,,,,,,,,,,,,,,,,,,,,,,,,,,,,,,,109.16561180000099,109.18033760000071,109.18033760000071,116.73389610000049,2,7.544882000000143,None,,,,,,,,,,,,,,,,,,,,,,,,,,,,,,,,,,,,,,,,,,,,,,,,,,,,,,,,,,,,,,,,,,,,,,,2172,1,2025-06-23_16h27.15.471,sm,2024.2.4,59.94959438107896,2025-06-23 16h27.25.882717 +0200,
0,0,0,Ziege,Bart,Käse,Schaf,4.4253,space,2.709397300001001,None,None,None,None,,,0,0,0,0,0,79,79,19,0,0,0,0,0,79,79,37,0,0,0,0,177.16158480000013,,,,,,,,,,,,,,,,,,,,,,,,,,,,,,116.73481080000056,116.73565790000066,116.80976620000001,116.81002910000097,116.8145241000002,116.81480460000057,116.84521070000119,116.84539940000104,116.85195170000043,116.85585800000081,116.85585800000081,119.56698140000117,space,2.709397300001001,None,119.56713590000072,119.58141590000014,119.58141590000014,165.13061300000118,None,165.1389151000003,165.1475057000007,165.1459924666672,166.35534630000075,175.14505626666713,176.155459900001,177.14490730000034,Nachricht,4.4253,177.14620020000075,177.14693270000134,177.15000529999998,177.16158480000013,181.59431030000087,181.57911820000118,181.5837775,181.59431030000087,181.59431030000087,181.59431030000087,181.59431030000087,183.5945294000012,183.5945294000012,183.5945294000012,183.5945294000012,183.57898080000086,None,None,,,,,,,,,,,,,,,,,,,,,,,,2172,1,2025-06-23_16h27.15.471,sm,2024.2.4,59.94959438107896,2025-06-23 16h27.25.882717 +0200,
1,0,1,,,,,,space,2.709397300001001,None,None,2,None,0.9095927999987907,0.22039680000125372,0,0,0,0,,,,,0,0,0,0,,,,,1,0,1,0,183.5945294000012,,,,,,,,,,,,,,,,,,,,,,,,,,,,,,,,,,,,,,,,,,,,,,,,,,,,,,,,,Agent,3.6156,183.57943870000054,183.57993429999988,183.58003840000129,183.5945294000012,187.21072820000154,187.1949607000006,187.1985306000006,187.21072820000154,187.21072820000154,187.21072820000154,187.21072820000154,189.2106899999999,189.2106899999999,189.2106899999999,189.2106899999999,189.19521429999986,2,None,0.9095927999987907,0.22039680000125372,,,,,,,,,,,,,,,,,,,,,,2172,1,2025-06-23_16h27.15.471,sm,2024.2.4,59.94959438107896,2025-06-23 16h27.25.882717 +0200,
2,0,2,,,,,,space,2.709397300001001,None,None,2,None,1.1101844000004348,0.22837129999970784,0,0,0,0,,,,,0,0,0,0,,,,,2,0,2,0,189.2106899999999,,,,,,,,,,,,,,,,,,,,,,,,,,,,,,,,,,,,,,,,,,,,,,,,,,,,,,,,,Anhänger,3.3883,189.19569300000148,189.1961910000009,189.1962949000008,189.2106899999999,192.61140150000028,192.59489070000018,192.59975420000046,192.61140150000028,192.61140150000028,192.61140150000028,192.61140150000028,194.61052449999988,194.61052449999988,194.61052449999988,194.61052449999988,194.595016700001,2,None,1.1101844000004348,0.22837129999970784,,,,,,,,,,,,,,,,,,,,,,2172,1,2025-06-23_16h27.15.471,sm,2024.2.4,59.94959438107896,2025-06-23 16h27.25.882717 +0200,
3,0,3,,,,,,space,2.709397300001001,None,None,3,None,1.2150559000001522,0.23931660000016564,0,0,0,0,,,,,0,0,0,0,,,,,3,0,3,0,194.61052449999988,,,,,,,,,,,,,,,,,,,,,,,,,,,,,,,,,,,,,,,,,,,,,,,,,,,,,,,,,Vampir,2.0718,194.59552860000076,194.59611890000087,194.59622889999991,194.61052449999988,196.69390050000038,196.67826390000118,196.68246160000126,196.69390050000038,196.69390050000038,196.69390050000038,196.69390050000038,198.69368080000095,198.69368080000095,198.69368080000095,198.69368080000095,198.67795420000039,3,None,1.2150559000001522,0.23931660000016564,,,,,,,,,,,,,,,,,,,,,,2172,1,2025-06-23_16h27.15.471,sm,2024.2.4,59.94959438107896,2025-06-23 16h27.25.882717 +0200,
4,0,4,,,,,,space,2.709397300001001,None,None,3,None,0.8127617000009195,0.2411852999994153,0,0,0,0,,,,,0,0,0,0,,,,,4,0,4,0,198.69368080000095,,,,,,,,,,,,,,,,,,,,,,,,,,,,,,,,,,,,,,,,,,,,,,,,,,,,,,,,,Tal,2.4476,198.67846230000032,198.67897500000072,198.6790785000012,198.69368080000095,201.14347439999983,201.12833769999997,201.13228000000163,201.14347439999983,201.14347439999983,201.14347439999983,201.14347439999983,203.14332470000045,203.14332470000045,203.14332470000045,203.14332470000045,203.12785240000085,3,None,0.8127617000009195,0.2411852999994153,,,,,,,,,,,,,,,,,,,,,,2172,1,2025-06-23_16h27.15.471,sm,2024.2.4,59.94959438107896,2025-06-23 16h27.25.882717 +0200,
5,0,5,,,,,,space,2.709397300001001,None,None,3,None,0.648292500000025,0.2336955000009766,0,0,0,0,,,,,0,0,0,0,,,,,5,0,5,0,203.14332470000045,,,,,,,,,,,,,,,,,,,,,,,,,,,,,,,,,,,,,,,,,,,,,,,,,,,,,,,,,Tasche,2.1079,203.12835890000133,203.12886160000016,203.12896929999988,203.14332470000045,205.25980700000036,205.24414960000104,205.2474861999999,205.25980700000036,205.25980700000036,205.25980700000036,205.25980700000036,207.25967889999993,207.25967889999993,207.25967889999993,207.25967889999993,207.24415930000032,3,None,0.648292500000025,0.2336955000009766,,,,,,,,,,,,,,,,,,,,,,2172,1,2025-06-23_16h27.15.471,sm,2024.2.4,59.94959438107896,2025-06-23 16h27.25.882717 +0200,
6,0,6,,,,,,space,2.709397300001001,None,None,3,None,0.6128695999996125,0.22796689999995579,0,0,0,0,,,,,0,0,0,0,,,,,6,0,6,0,207.25967889999993,,,,,,,,,,,,,,,,,,,,,,,,,,,,,,,,,,,,,,,,,,,,,,,,,,,,,,,,,Zeichnung,2.9626,207.2446645,207.2453069000003,207.24541170000157,207.25967889999993,210.22599150000133,210.21065350000026,210.21759930000007,210.22599150000133,210.22599150000133,210.22599150000133,210.22599150000133,212.2262137000016,212.2262137000016,212.2262137000016,212.2262137000016,212.21060650000072,3,None,0.6128695999996125,0.22796689999995579,,,,,,,,,,,,,,,,,,,,,,2172,1,2025-06-23_16h27.15.471,sm,2024.2.4,59.94959438107896,2025-06-23 16h27.25.882717 +0200,
7,0,7,,,,,,space,2.709397300001001,None,None,3,None,0.6657164999996894,0.25654539999959525,0,0,0,0,,,,,0,0,0,0,,,,,7,0,7,0,212.2262137000016,,,,,,,,,,,,,,,,,,,,,,,,,,,,,,,,,,,,,,,,,,,,,,,,,,,,,,,,,Krieg,2.3524,212.2110799000002,212.2115833000007,212.21168470000157,212.2262137000016,214.5933530000002,214.5769519000005,214.5824674000014,214.5933530000002,214.5933530000002,214.5933530000002,214.5933530000002,216.59268780000093,216.59268780000093,216.59268780000093,216.59268780000093,216.57706680000047,3,None,0.6657164999996894,0.25654539999959525,,,,,,,,,,,,,,,,,,,,,,2172,1,2025-06-23_16h27.15.471,sm,2024.2.4,59.94959438107896,2025-06-23 16h27.25.882717 +0200,
8,0,8,,,,,,space,2.709397300001001,None,None,3,None,0.5928240000012011,0.2510672999997041,0,0,0,0,,,,,0,0,0,0,,,,,8,0,8,0,216.59268780000093,,,,,,,,,,,,,,,,,,,,,,,,,,,,,,,,,,,,,,,,,,,,,,,,,,,,,,,,,Soße,5.8019,216.5775680000006,216.57823730000018,216.57834340000045,216.59268780000093,222.4087937000004,222.39337310000155,222.39819050000006,222.4087937000004,222.4087937000004,222.4087937000004,222.4087937000004,224.40898240000024,224.40898240000024,224.40898240000024,224.40898240000024,224.39342829999987,3,None,0.5928240000012011,0.2510672999997041,,,,,,,,,,,,,,,,,,,,,,2172,1,2025-06-23_16h27.15.471,sm,2024.2.4,59.94959438107896,2025-06-23 16h27.25.882717 +0200,
9,0,9,,,,,,space,2.709397300001001,None,None,3,None,0.6015148000005865,0.28045750000092085,0,0,0,0,,,,,0,0,0,0,,,,,9,0,9,0,224.40898240000024,,,,,,,,,,,,,,,,,,,,,,,,,,,,,,,,,,,,,,,,,,,,,,,,,,,,,,,,,Lernen,4.3594,224.39394490000086,224.39446450000105,224.39457030000085,224.40898240000024,228.77511360000062,228.75942790000045,228.7631218000006,228.77511360000062,228.77511360000062,228.77511360000062,228.77511360000062,230.77495090000048,230.77495090000048,230.77495090000048,230.77495090000048,230.75952510000025,3,None,0.6015148000005865,0.28045750000092085,,,,,,,,,,,,,,,,,,,,,,2172,1,2025-06-23_16h27.15.471,sm,2024.2.4,59.94959438107896,2025-06-23 16h27.25.882717 +0200,
10,0,10,,,,,,space,2.709397300001001,None,None,2,None,0.5547478999997111,0.3459234000001743,0,0,0,0,,,,,0,0,0,0,,,,,10,0,10,0,230.77495090000048,,,,,,,,,,,,,,,,,,,,,,,,,,,,,,,,,,,,,,,,,,,,,,,,,,,,,,,,,Ziege,2.9351,230.76003120000132,230.76068830000077,230.7607949000012,230.77495090000048,233.72469980000096,233.70921129999988,233.71282830000018,233.72469980000096,233.72469980000096,233.72469980000096,233.72469980000096,235.7248872,235.7248872,235.7248872,235.7248872,235.7093455000013,2,None,0.5547478999997111,0.3459234000001743,,,,,,,,,,,,,,,,,,,,,,2172,1,2025-06-23_16h27.15.471,sm,2024.2.4,59.94959438107896,2025-06-23 16h27.25.882717 +0200,
11,0,11,,,,,,space,2.709397300001001,None,None,3,None,0.5982856999999058,0.2911483000007138,0,0,0,0,,,,,0,0,0,0,,,,,11,0,11,0,235.7248872,,,,,,,,,,,,,,,,,,,,,,,,,,,,,,,,,,,,,,,,,,,,,,,,,,,,,,,,,Salz,2.1949,235.70985480000127,235.71037830000023,235.7104857000013,235.7248872,237.9246374000013,237.90895580000142,237.91202820000035,237.9246374000013,237.9246374000013,237.9246374000013,237.9246374000013,239.92478350000056,239.92478350000056,239.92478350000056,239.92478350000056,239.90895400000045,3,None,0.5982856999999058,0.2911483000007138,,,,,,,,,,,,,,,,,,,,,,2172,1,2025-06-23_16h27.15.471,sm,2024.2.4,59.94959438107896,2025-06-23 16h27.25.882717 +0200,
12,0,12,,,,,,space,2.709397300001001,None,None,3,None,0.5518735999994533,0.26822660000107135,0,0,0,0,,,,,0,0,0,0,,,,,12,0,12,0,239.92478350000056,,,,,,,,,,,,,,,,,,,,,,,,,,,,,,,,,,,,,,,,,,,,,,,,,,,,,,,,,Club,2.1491,239.9094720000012,239.90999660000125,239.91010319999987,239.92478350000056,242.07456679999996,242.05851800000164,242.06345710000096,242.07456679999996,242.07456679999996,242.07456679999996,242.07456679999996,244.07448830000067,244.07448830000067,244.07448830000067,244.07448830000067,244.05876190000163,3,None,0.5518735999994533,0.26822660000107135,,,,,,,,,,,,,,,,,,,,,,2172,1,2025-06-23_16h27.15.471,sm,2024.2.4,59.94959438107896,2025-06-23 16h27.25.882717 +0200,
13,0,13,,,,,,space,2.709397300001001,None,None,2,None,0.7158711000010953,0.268358299999818,0,0,0,0,,,,,0,0,0,0,,,,,13,0,13,0,244.07448830000067,,,,,,,,,,,,,,,,,,,,,,,,,,,,,,,,,,,,,,,,,,,,,,,,,,,,,,,,,Koch,2.6483,244.05927370000063,244.05979070000103,244.05989930000032,244.07448830000067,246.72421639999993,246.70853510000052,246.7118653000016,246.72421639999993,246.72421639999993,246.72421639999993,246.72421639999993,248.72427560000142,248.72427560000142,248.72427560000142,248.72427560000142,248.70859030000065,2,None,0.7158711000010953,0.268358299999818,,,,,,,,,,,,,,,,,,,,,,2172,1,2025-06-23_16h27.15.471,sm,2024.2.4,59.94959438107896,2025-06-23 16h27.25.882717 +0200,
14,0,14,,,,,,space,2.709397300001001,None,None,3,None,0.7151747999996587,0.2500388999997085,0,0,0,0,,,,,0,0,0,0,,,,,14,0,14,0,248.72427560000142,,,,,,,,,,,,,,,,,,,,,,,,,,,,,,,,,,,,,,,,,,,,,,,,,,,,,,,,,Beugen,3.6532,248.70909790000042,248.70968970000104,248.7097948999999,248.72427560000142,252.39048230000117,252.3750755000001,252.37913570000092,252.39048230000117,252.39048230000117,252.39048230000117,252.39048230000117,254.39050170000155,254.39050170000155,254.39050170000155,254.39050170000155,254.37507430000005,3,None,0.7151747999996587,0.2500388999997085,,,,,,,,,,,,,,,,,,,,,,2172,1,2025-06-23_16h27.15.471,sm,2024.2.4,59.94959438107896,2025-06-23 16h27.25.882717 +0200,
15,0,15,,,,,,space,2.709397300001001,None,None,3,None,0.827295299999605,0.27024470000105794,0,0,0,0,,,,,0,0,0,0,,,,,15,0,15,0,254.39050170000155,,,,,,,,,,,,,,,,,,,,,,,,,,,,,,,,,,,,,,,,,,,,,,,,,,,,,,,,,Geschmack,2.0178,254.37558360000003,254.37609610000072,254.37620340000103,254.39050170000155,256.4235075000015,256.40802710000025,256.41292370000156,256.4235075000015,256.4235075000015,256.4235075000015,256.4235075000015,258.423729600001,258.423729600001,258.423729600001,258.423729600001,258.40795960000105,3,None,0.827295299999605,0.27024470000105794,,,,,,,,,,,,,,,,,,,,,,2172,1,2025-06-23_16h27.15.471,sm,2024.2.4,59.94959438107896,2025-06-23 16h27.25.882717 +0200,
16,0,16,,,,,,space,2.709397300001001,None,None,3,None,0.6627524000014091,0.27567589999853226,0,0,0,0,,,,,0,0,0,0,,,,,16,0,16,0,258.423729600001,,,,,,,,,,,,,,,,,,,,,,,,,,,,,,,,,,,,,,,,,,,,,,,,,,,,,,,,,Humor,2.1345,258.40847140000005,258.4089791000006,258.40908930000114,258.423729600001,260.57305559999986,260.5577372000007,260.5623929000012,260.57305559999986,260.57305559999986,260.57305559999986,260.57305559999986,262.57324620000145,262.57324620000145,262.57324620000145,262.57324620000145,262.5578122000006,3,None,0.6627524000014091,0.27567589999853226,,,,,,,,,,,,,,,,,,,,,,2172,1,2025-06-23_16h27.15.471,sm,2024.2.4,59.94959438107896,2025-06-23 16h27.25.882717 +0200,
17,0,17,,,,,,space,2.709397300001001,None,None,3,None,0.6353860999988683,0.25437800000145216,0,0,0,0,,,,,0,0,0,0,,,,,17,0,17,0,262.57324620000145,,,,,,,,,,,,,,,,,,,,,,,,,,,,,,,,,,,,,,,,,,,,,,,,,,,,,,,,,Golf,2.6832,262.55832050000026,262.5588451000003,262.5589493000007,262.57324620000145,265.2563704000004,265.2411991000008,265.24465540000165,265.2563704000004,265.2563704000004,265.2563704000004,265.2563704000004,267.2565845000008,267.2565845000008,267.2565845000008,267.2565845000008,267.24080550000144,3,None,0.6353860999988683,0.25437800000145216,,,,,,,,,,,,,,,,,,,,,,2172,1,2025-06-23_16h27.15.471,sm,2024.2.4,59.94959438107896,2025-06-23 16h27.25.882717 +0200,
18,0,18,,,,,,space,2.709397300001001,None,None,2,None,0.6693734000000404,0.26132979999965755,0,0,0,0,,,,,0,0,0,0,,,,,18,0,18,0,267.2565845000008,,,,,,,,,,,,,,,,,,,,,,,,,,,,,,,,,,,,,,,,,,,,,,,,,,,,,,,,,Besucher,2.0389,267.24124980000124,267.2419075000016,267.24200070000006,267.2565845000008,269.3061546000008,269.29040239999995,269.2940561000014,269.3061546000008,269.3061546000008,269.3061546000008,269.3061546000008,271.3062682,271.3062682,271.3062682,271.3062682,271.2908759000002,2,None,0.6693734000000404,0.26132979999965755,,,,,,,,,,,,,,,,,,,,,,2172,1,2025-06-23_16h27.15.471,sm,2024.2.4,59.94959438107896,2025-06-23 16h27.25.882717 +0200,
19,0,19,,,,,,space,2.709397300001001,None,None,3,None,0.6913659999991069,0.2462969999996858,0,0,0,0,,,,,0,0,0,0,,,,,19,0,19,0,271.3062682,,,,,,,,,,,,,,,,,,,,,,,,,,,,,,,,,,,,,,,,,,,,,,,,,,,,,,,,,Raum,4.6935,271.2913795000004,271.2919361000004,271.2920449000012,271.3062682,276.00600459999987,275.9903398000006,275.99383990000024,276.00600459999987,276.00600459999987,276.00600459999987,276.00600459999987,278.0058276,278.0058276,278.0058276,278.0058276,277.99024869999994,3,None,0.6913659999991069,0.2462969999996858,,,,,,,,,,,,,,,,,,,,,,2172,1,2025-06-23_16h27.15.471,sm,2024.2.4,59.94959438107896,2025-06-23 16h27.25.882717 +0200,
20,0,20,,,,,,space,2.709397300001001,None,None,2,None,0.6740055999998731,0.2523313000001508,0,0,0,0,,,,,0,0,0,0,,,,,20,0,20,0,278.0058276,,,,,,,,,,,,,,,,,,,,,,,,,,,,,,,,,,,,,,,,,,,,,,,,,,,,,,,,,Wurm,3.7998,277.99076070000046,277.9912810000005,277.99139340000147,278.0058276,281.80614440000136,281.79023120000056,281.79401250000046,281.80614440000136,281.80614440000136,281.80614440000136,281.80614440000136,283.80593820000104,283.80593820000104,283.80593820000104,283.80593820000104,283.79009320000114,2,None,0.6740055999998731,0.2523313000001508,,,,,,,,,,,,,,,,,,,,,,2172,1,2025-06-23_16h27.15.471,sm,2024.2.4,59.94959438107896,2025-06-23 16h27.25.882717 +0200,
21,0,21,,,,,,space,2.709397300001001,None,None,3,None,0.7178595999994286,0.2624881000010646,0,0,0,0,,,,,0,0,0,0,,,,,21,0,21,0,283.80593820000104,,,,,,,,,,,,,,,,,,,,,,,,,,,,,,,,,,,,,,,,,,,,,,,,,,,,,,,,,Zeit,2.4678,283.79059620000044,283.791237200001,283.79134740000154,283.80593820000104,286.2886834000001,286.27299480000147,286.2766025000001,286.2886834000001,286.2886834000001,286.2886834000001,286.2886834000001,288.2887956000013,288.2887956000013,288.2887956000013,288.2887956000013,288.27280670000073,3,None,0.7178595999994286,0.2624881000010646,,,,,,,,,,,,,,,,,,,,,,2172,1,2025-06-23_16h27.15.471,sm,2024.2.4,59.94959438107896,2025-06-23 16h27.25.882717 +0200,
22,0,22,,,,,,space,2.709397300001001,None,None,3,None,0.6696272999997746,0.26449980000143114,0,0,0,0,,,,,0,0,0,0,,,,,22,0,22,0,288.2887956000013,,,,,,,,,,,,,,,,,,,,,,,,,,,,,,,,,,,,,,,,,,,,,,,,,,,,,,,,,Trennung,2.079,288.2732633000014,288.2737511000014,288.2738433000013,288.2887956000013,290.3716963000006,290.3563262000007,290.3608961000009,290.3716963000006,290.3716963000006,290.3716963000006,290.3716963000006,292.3716607000006,292.3716607000006,292.3716607000006,292.3716607000006,292.3560597000014,3,None,0.6696272999997746,0.26449980000143114,,,,,,,,,,,,,,,,,,,,,,2172,1,2025-06-23_16h27.15.471,sm,2024.2.4,59.94959438107896,2025-06-23 16h27.25.882717 +0200,
23,0,23,,,,,,space,2.709397300001001,None,None,3,None,0.5653770999997505,0.27310620000025665,0,0,0,0,,,,,0,0,0,0,,,,,23,0,23,0,292.3716607000006,,,,,,,,,,,,,,,,,,,,,,,,,,,,,,,,,,,,,,,,,,,,,,,,,,,,,,,,,Kante,2.8689,292.3565687999999,292.357063200001,292.3571690000008,292.3716607000006,295.2548545000009,295.23897150000084,295.2425286000016,295.2548545000009,295.2548545000009,295.2548545000009,295.2548545000009,297.25487050000083,297.25487050000083,297.25487050000083,297.25487050000083,297.2389785000014,3,None,0.5653770999997505,0.27310620000025665,,,,,,,,,,,,,,,,,,,,,,2172,1,2025-06-23_16h27.15.471,sm,2024.2.4,59.94959438107896,2025-06-23 16h27.25.882717 +0200,
24,0,24,,,,,,space,2.709397300001001,None,None,3,None,0.8325705999995989,0.2841506999993726,0,0,0,0,,,,,0,0,0,0,,,,,24,0,24,0,297.25487050000083,,,,,,,,,,,,,,,,,,,,,,,,,,,,,,,,,,,,,,,,,,,,,,,,,,,,,,,,,Dachboden,2.0301,297.2394597000002,297.2399538000009,297.24005300000135,297.25487050000083,299.2877804,299.2720805000008,299.27597849999984,299.2877804,299.2877804,299.2877804,299.2877804,301.2879311000015,301.2879311000015,301.2879311000015,301.2879311000015,301.2723386000016,3,None,0.8325705999995989,0.2841506999993726,,,,,,,,,,,,,,,,,,,,,,2172,1,2025-06-23_16h27.15.471,sm,2024.2.4,59.94959438107896,2025-06-23 16h27.25.882717 +0200,
25,0,25,,,,,,space,2.709397300001001,None,None,3,None,0.6697622000010597,0.2702819999994972,0,0,0,0,,,,,0,0,0,0,,,,,25,0,25,0,301.2879311000015,,,,,,,,,,,,,,,,,,,,,,,,,,,,,,,,,,,,,,,,,,,,,,,,,,,,,,,,,Wind,2.5495,301.2728436000016,301.2733506000004,301.27345480000076,301.2879311000015,303.8376267000003,303.8219972000006,303.8249871000007,303.8376267000003,303.8376267000003,303.8376267000003,303.8376267000003,305.8375042000007,305.8375042000007,305.8375042000007,305.8375042000007,305.82195160000083,3,None,0.6697622000010597,0.2702819999994972,,,,,,,,,,,,,,,,,,,,,,2172,1,2025-06-23_16h27.15.471,sm,2024.2.4,59.94959438107896,2025-06-23 16h27.25.882717 +0200,
26,0,26,,,,,,space,2.709397300001001,None,None,3,None,0.8489845999993122,0.2736173000012059,0,0,0,0,,,,,0,0,0,0,,,,,26,0,26,0,305.8375042000007,,,,,,,,,,,,,,,,,,,,,,,,,,,,,,,,,,,,,,,,,,,,,,,,,,,,,,,,,Maske,3.2317,305.8224682,305.82298080000146,305.8230846000006,305.8375042000007,309.070665700001,309.0550378000007,309.0591206000008,309.070665700001,309.070665700001,309.070665700001,309.070665700001,311.07081070000095,311.07081070000095,311.07081070000095,311.07081070000095,311.05500930000017,3,None,0.8489845999993122,0.2736173000012059,,,,,,,,,,,,,,,,,,,,,,2172,1,2025-06-23_16h27.15.471,sm,2024.2.4,59.94959438107896,2025-06-23 16h27.25.882717 +0200,
27,0,27,,,,,,space,2.709397300001001,None,None,3,None,0.6740296999996644,0.3000138999996125,0,0,0,0,,,,,0,0,0,0,,,,,27,0,27,0,311.07081070000095,,,,,,,,,,,,,,,,,,,,,,,,,,,,,,,,,,,,,,,,,,,,,,,,,,,,,,,,,Lokomotive,3.8802,311.05552160000116,311.0560333000012,311.0561452000002,311.07081070000095,314.95434900000146,314.93806100000074,314.94234700000015,314.95434900000146,314.95434900000146,314.95434900000146,314.95434900000146,316.95365350000066,316.95365350000066,316.95365350000066,316.95365350000066,316.9380732000009,3,None,0.6740296999996644,0.3000138999996125,,,,,,,,,,,,,,,,,,,,,,2172,1,2025-06-23_16h27.15.471,sm,2024.2.4,59.94959438107896,2025-06-23 16h27.25.882717 +0200,
28,0,28,,,,,,space,2.709397300001001,None,None,2,None,0.9908075000003009,0.30616249999911815,0,0,0,0,,,,,0,0,0,0,,,,,28,0,28,0,316.95365350000066,,,,,,,,,,,,,,,,,,,,,,,,,,,,,,,,,,,,,,,,,,,,,,,,,,,,,,,,,Blumen,3.8606,316.9385768000011,316.9391082000002,316.9392101000012,316.95365350000066,320.81992380000156,320.80445130000044,320.8090499000009,320.81992380000156,320.81992380000156,320.81992380000156,320.81992380000156,322.81993580000017,322.81993580000017,322.81993580000017,322.81993580000017,322.8044000000009,2,None,0.9908075000003009,0.30616249999911815,,,,,,,,,,,,,,,,,,,,,,2172,1,2025-06-23_16h27.15.471,sm,2024.2.4,59.94959438107896,2025-06-23 16h27.25.882717 +0200,
29,0,29,,,,,,space,2.709397300001001,None,None,3,None,0.6173290000006091,0.2573090999994747,0,0,0,0,,,,,0,0,0,0,,,,,29,0,29,0,322.81993580000017,,,,,,,,,,,,,,,,,,,,,,,,,,,,,,,,,,,,,,,,,,,,,,,,,,,,,,,,,Gabel,3.4552,322.80491000000075,322.8054221000002,322.8055335000008,322.81993580000017,326.2864234000008,326.2705835000015,326.27398360000007,326.2864234000008,326.2864234000008,326.2864234000008,326.2864234000008,328.28641380000045,328.28641380000045,328.28641380000045,328.28641380000045,328.2707676000009,3,None,0.6173290000006091,0.2573090999994747,,,,,,,,,,,,,,,,,,,,,,2172,1,2025-06-23_16h27.15.471,sm,2024.2.4,59.94959438107896,2025-06-23 16h27.25.882717 +0200,
30,0,30,,,,,,space,2.709397300001001,None,None,2,None,0.7636026999989554,0.2502315000001545,0,0,0,0,,,,,0,0,0,0,,,,,30,0,30,0,328.28641380000045,,,,,,,,,,,,,,,,,,,,,,,,,,,,,,,,,,,,,,,,,,,,,,,,,,,,,,,,,Spinne,3.8906,328.27128840000114,328.27203780000127,328.2721420000016,328.28641380000045,332.18603200000143,332.1705185999999,332.17466910000076,332.18603200000143,332.18603200000143,332.18603200000143,332.18603200000143,334.1861394000007,334.1861394000007,334.1861394000007,334.1861394000007,334.1703112000014,2,None,0.7636026999989554,0.2502315000001545,,,,,,,,,,,,,,,,,,,,,,2172,1,2025-06-23_16h27.15.471,sm,2024.2.4,59.94959438107896,2025-06-23 16h27.25.882717 +0200,
31,0,31,,,,,,space,2.709397300001001,None,None,3,None,0.9496873999996751,0.25428869999996095,0,0,0,0,,,,,0,0,0,0,,,,,31,0,31,0,334.1861394000007,,,,,,,,,,,,,,,,,,,,,,,,,,,,,,,,,,,,,,,,,,,,,,,,,,,,,,,,,Hilfe,2.2674,334.1707900000001,334.17127230000006,334.1713705000002,334.1861394000007,336.469111800001,336.4535562000001,336.4574838000008,336.469111800001,336.469111800001,336.469111800001,336.469111800001,338.4691718000013,338.4691718000013,338.4691718000013,338.4691718000013,338.4536543000013,3,None,0.9496873999996751,0.25428869999996095,,,,,,,,,,,,,,,,,,,,,,2172,1,2025-06-23_16h27.15.471,sm,2024.2.4,59.94959438107896,2025-06-23 16h27.25.882717 +0200,
32,0,32,,,,,,space,2.709397300001001,None,None,2,None,0.8447801000002073,0.25592839999990247,0,0,0,0,,,,,0,0,0,0,,,,,32,0,32,0,338.4691718000013,,,,,,,,,,,,,,,,,,,,,,,,,,,,,,,,,,,,,,,,,,,,,,,,,,,,,,,,,Gras,3.2502,338.45416060000025,338.4548156000001,338.4549216000014,338.4691718000013,341.7187911000001,341.7032797000011,341.70681479999985,341.7187911000001,341.7187911000001,341.7187911000001,341.7187911000001,343.71889440000086,343.71889440000086,343.71889440000086,343.71889440000086,343.70320250000077,2,None,0.8447801000002073,0.25592839999990247,,,,,,,,,,,,,,,,,,,,,,2172,1,2025-06-23_16h27.15.471,sm,2024.2.4,59.94959438107896,2025-06-23 16h27.25.882717 +0200,
33,0,33,,,,,,space,2.709397300001001,None,None,3,None,0.9068869000002451,0.25747649999902933,0,0,0,0,,,,,0,0,0,0,,,,,33,0,33,0,343.71889440000086,,,,,,,,,,,,,,,,,,,,,,,,,,,,,,,,,,,,,,,,,,,,,,,,,,,,,,,,,Zucker,3.2087,343.7037110000001,343.70422599999984,343.7043325000013,343.71889440000086,346.9352214999999,346.9198372999999,346.92387320000125,346.9352214999999,346.9352214999999,346.9352214999999,346.9352214999999,348.93524510000134,348.93524510000134,348.93524510000134,348.93524510000134,348.91951300000073,3,None,0.9068869000002451,0.25747649999902933,,,,,,,,,,,,,,,,,,,,,,2172,1,2025-06-23_16h27.15.471,sm,2024.2.4,59.94959438107896,2025-06-23 16h27.25.882717 +0200,
34,0,34,,,,,,space,2.709397300001001,None,None,3,None,0.6638172000002669,0.25214210000012827,0,0,0,0,,,,,0,0,0,0,,,,,34,0,34,0,348.93524510000134,,,,,,,,,,,,,,,,,,,,,,,,,,,,,,,,,,,,,,,,,,,,,,,,,,,,,,,,,Hemd,2.6637,348.9200182000004,348.9205309000008,348.92063430000053,348.93524510000134,351.60170130000006,351.5861713000013,351.58973660000083,351.60170130000006,351.60170130000006,351.60170130000006,351.60170130000006,353.6016388000007,353.6016388000007,353.6016388000007,353.6016388000007,353.5860461000011,3,None,0.6638172000002669,0.25214210000012827,,,,,,,,,,,,,,,,,,,,,,2172,1,2025-06-23_16h27.15.471,sm,2024.2.4,59.94959438107896,2025-06-23 16h27.25.882717 +0200,
35,0,35,,,,,,space,2.709397300001001,None,None,3,None,0.8806297999999515,0.329874999999447,0,0,0,0,,,,,0,0,0,0,,,,,35,0,35,0,353.6016388000007,,,,,,,,,,,,,,,,,,,,,,,,,,,,,,,,,,,,,,,,,,,,,,,,,,,,,,,,,Sitzgurt,3.1829,353.58657740000126,353.5871567000013,353.5872623000014,353.6016388000007,356.78463999999985,356.7690250000014,356.7735493,356.78463999999985,356.78463999999985,356.78463999999985,356.78463999999985,358.784534800001,358.784534800001,358.784534800001,358.784534800001,358.76918079999996,3,None,0.8806297999999515,0.329874999999447,,,,,,,,,,,,,,,,,,,,,,2172,1,2025-06-23_16h27.15.471,sm,2024.2.4,59.94959438107896,2025-06-23 16h27.25.882717 +0200,
36,0,36,,,,,,space,2.709397300001001,None,None,3,None,0.7758013000002393,0.2646134999995411,0,0,0,0,,,,,0,0,0,0,,,,,36,0,36,0,358.784534800001,,,,,,,,,,,,,,,,,,,,,,,,,,,,,,,,,,,,,,,,,,,,,,,,,,,,,,,,,Nacht,2.5967,358.7696816000007,358.7701827000001,358.77028810000047,358.784534800001,361.3841220000013,361.3687647000006,361.3724086000002,361.3841220000013,361.3841220000013,361.3841220000013,361.3841220000013,363.3844089000013,363.3844089000013,363.3844089000013,363.3844089000013,363.3688044999999,3,None,0.7758013000002393,0.2646134999995411,,,,,,,,,,,,,,,,,,,,,,2172,1,2025-06-23_16h27.15.471,sm,2024.2.4,59.94959438107896,2025-06-23 16h27.25.882717 +0200,
37,0,37,,,,,,space,2.709397300001001,None,None,2,None,1.4432006999995792,0.25309290000041074,0,0,0,0,,,,,0,0,0,0,,,,,37,0,37,0,363.3844089000013,,,,,,,,,,,,,,,,,,,,,,,,,,,,,,,,,,,,,,,,,,,,,,,,,,,,,,,,,Arm,2.04,363.36932290000004,363.36995950000164,363.3700632,363.3844089000013,365.43415280000045,365.4188316,365.42244670000036,365.43415280000045,365.43415280000045,365.43415280000045,365.43415280000045,367.4341370000002,367.4341370000002,367.4341370000002,367.4341370000002,367.41873640000085,2,None,1.4432006999995792,0.25309290000041074,,,,,,,,,,,,,,,,,,,,,,2172,1,2025-06-23_16h27.15.471,sm,2024.2.4,59.94959438107896,2025-06-23 16h27.25.882717 +0200,
38,0,38,,,,,,space,2.709397300001001,None,None,3,None,0.7619534000004933,0.2559593000005407,0,0,0,0,,,,,0,0,0,0,,,,,38,0,38,0,367.4341370000002,,,,,,,,,,,,,,,,,,,,,,,,,,,,,,,,,,,,,,,,,,,,,,,,,,,,,,,,,Haare,3.1169,367.4192464000007,367.41974540000047,367.4198497000016,367.4341370000002,370.55058199999985,370.53513340000063,370.53902240000025,370.55058199999985,370.55058199999985,370.55058199999985,370.55058199999985,372.55061490000116,372.55061490000116,372.55061490000116,372.55061490000116,372.5349017000008,3,None,0.7619534000004933,0.2559593000005407,,,,,,,,,,,,,,,,,,,,,,2172,1,2025-06-23_16h27.15.471,sm,2024.2.4,59.94959438107896,2025-06-23 16h27.25.882717 +0200,
39,0,39,,,,,,space,2.709397300001001,None,None,2,None,0.7790784000007989,0.24592239999947196,0,0,0,0,,,,,0,0,0,0,,,,,39,0,39,0,372.55061490000116,,,,,,,,,,,,,,,,,,,,,,,,,,,,,,,,,,,,,,,,,,,,,,,,,,,,,,,,,Finger,2.8735,372.5354124000005,372.5359228000016,372.5360295999999,372.55061490000116,375.43331860000035,375.41792950000126,375.4239718000008,375.43331860000035,375.43331860000035,375.43331860000035,375.43331860000035,377.4335843000008,377.4335843000008,377.4335843000008,377.4335843000008,377.41798759999983,2,None,0.7790784000007989,0.24592239999947196,,,,,,,,,,,,,,,,,,,,,,2172,1,2025-06-23_16h27.15.471,sm,2024.2.4,59.94959438107896,2025-06-23 16h27.25.882717 +0200,
40,0,40,,,,,,space,2.709397300001001,None,None,3,None,0.8003420999993978,0.2671293000003061,0,0,0,0,,,,,0,0,0,0,,,,,40,0,40,0,377.4335843000008,,,,,,,,,,,,,,,,,,,,,,,,,,,,,,,,,,,,,,,,,,,,,,,,,,,,,,,,,Weihnachten,2.9951,377.41849750000074,377.41899980000017,377.4191066000003,377.4335843000008,380.4333282000007,380.4176142000015,380.4213112000016,380.4333282000007,380.4333282000007,380.4333282000007,380.4333282000007,382.43343630000163,382.43343630000163,382.43343630000163,382.43343630000163,382.4176215000007,3,None,0.8003420999993978,0.2671293000003061,,,,,,,,,,,,,,,,,,,,,,2172,1,2025-06-23_16h27.15.471,sm,2024.2.4,59.94959438107896,2025-06-23 16h27.25.882717 +0200,
41,0,41,,,,,,space,2.709397300001001,None,None,3,None,0.6841546000014205,0.3551840000000084,0,0,0,0,,,,,0,0,0,0,,,,,41,0,41,0,382.43343630000163,,,,,,,,,,,,,,,,,,,,,,,,,,,,,,,,,,,,,,,,,,,,,,,,,,,,,,,,,Zigarette,3.7553,382.4181337000009,382.4187660000007,382.41886909999994,382.43343630000163,386.199642900001,386.18404080000073,386.18935899999997,386.199642900001,386.199642900001,386.199642900001,386.199642900001,388.2001656000011,388.2001656000011,388.2001656000011,388.2001656000011,388.1838623000003,3,None,0.6841546000014205,0.3551840000000084,,,,,,,,,,,,,,,,,,,,,,2172,1,2025-06-23_16h27.15.471,sm,2024.2.4,59.94959438107896,2025-06-23 16h27.25.882717 +0200,
42,0,42,,,,,,space,2.709397300001001,None,None,2,None,0.7252918999984104,0.25835600000027625,0,0,0,0,,,,,0,0,0,0,,,,,42,0,42,0,388.2001656000011,,,,,,,,,,,,,,,,,,,,,,,,,,,,,,,,,,,,,,,,,,,,,,,,,,,,,,,,,Journalistin,2.7763,388.18432230000144,388.1849503000012,388.18504920000123,388.2001656000011,390.9826397000015,390.96692130000156,390.9735978000008,390.9826397000015,390.9826397000015,390.9826397000015,390.9826397000015,392.98269400000027,392.98269400000027,392.98269400000027,392.98269400000027,392.96709379999993,2,None,0.7252918999984104,0.25835600000027625,,,,,,,,,,,,,,,,,,,,,,2172,1,2025-06-23_16h27.15.471,sm,2024.2.4,59.94959438107896,2025-06-23 16h27.25.882717 +0200,
43,0,43,,,,,,space,2.709397300001001,None,None,3,None,1.080524199998763,0.32856600000013714,0,0,0,0,,,,,0,0,0,0,,,,,43,0,43,0,392.98269400000027,,,,,,,,,,,,,,,,,,,,,,,,,,,,,,,,,,,,,,,,,,,,,,,,,,,,,,,,,Kuchen ,2.1385,392.96760130000075,392.9682513000007,392.96835980000105,392.98269400000027,395.13266939999994,395.1170221000011,395.12128340000163,395.13266939999994,395.13266939999994,395.13266939999994,395.13266939999994,397.1325323000001,397.1325323000001,397.1325323000001,397.1325323000001,397.1169095000005,3,None,1.080524199998763,0.32856600000013714,,,,,,,,,,,,,,,,,,,,,,2172,1,2025-06-23_16h27.15.471,sm,2024.2.4,59.94959438107896,2025-06-23 16h27.25.882717 +0200,
44,0,44,,,,,,space,2.709397300001001,None,None,3,None,0.5898622999993677,0.2672633999991376,0,0,0,0,,,,,0,0,0,0,,,,,44,0,44,0,397.1325323000001,,,,,,,,,,,,,,,,,,,,,,,,,,,,,,,,,,,,,,,,,,,,,,,,,,,,,,,,,Bad,2.5939,397.1174198000008,397.1179281000004,397.11803620000137,397.1325323000001,399.73209900000074,399.7166152000009,399.7199008000007,399.73209900000074,399.73209900000074,399.73209900000074,399.73209900000074,401.73217860000113,401.73217860000113,401.73217860000113,401.73217860000113,401.71654540000054,3,None,0.5898622999993677,0.2672633999991376,,,,,,,,,,,,,,,,,,,,,,2172,1,2025-06-23_16h27.15.471,sm,2024.2.4,59.94959438107896,2025-06-23 16h27.25.882717 +0200,
45,0,45,,,,,,space,2.709397300001001,None,None,3,None,0.6887740000001941,0.28364829999918584,0,0,0,0,,,,,0,0,0,0,,,,,45,0,45,0,401.73217860000113,,,,,,,,,,,,,,,,,,,,,,,,,,,,,,,,,,,,,,,,,,,,,,,,,,,,,,,,,Kaffee,2.7501,401.7170548000013,401.7175789000012,401.717685900001,401.73217860000113,404.4820813000006,404.46616350000113,404.46973060000164,404.4820813000006,404.4820813000006,404.4820813000006,404.4820813000006,406.481895500001,406.481895500001,406.481895500001,406.481895500001,406.4665616000002,3,None,0.6887740000001941,0.28364829999918584,,,,,,,,,,,,,,,,,,,,,,2172,1,2025-06-23_16h27.15.471,sm,2024.2.4,59.94959438107896,2025-06-23 16h27.25.882717 +0200,
46,0,46,,,,,,space,2.709397300001001,None,None,3,None,0.5796845000004396,0.2858864999998332,0,0,0,0,,,,,0,0,0,0,,,,,46,0,46,0,406.481895500001,,,,,,,,,,,,,,,,,,,,,,,,,,,,,,,,,,,,,,,,,,,,,,,,,,,,,,,,,Hütte,3.0483,406.46707120000065,406.46758200000113,406.46768840000004,406.481895500001,409.53184070000134,409.5159069000001,409.51952690000144,409.53184070000134,409.53184070000134,409.53184070000134,409.53184070000134,411.5315079000011,411.5315079000011,411.5315079000011,411.5315079000011,411.5160726000013,3,None,0.5796845000004396,0.2858864999998332,,,,,,,,,,,,,,,,,,,,,,2172,1,2025-06-23_16h27.15.471,sm,2024.2.4,59.94959438107896,2025-06-23 16h27.25.882717 +0200,
47,0,47,,,,,,space,2.709397300001001,None,None,3,None,0.7380205999997997,0.303726000000097,0,0,0,0,,,,,0,0,0,0,,,,,47,0,47,0,411.5315079000011,,,,,,,,,,,,,,,,,,,,,,,,,,,,,,,,,,,,,,,,,,,,,,,,,,,,,,,,,Schnee,2.3585,411.51658210000096,411.51708599999984,411.5171863000014,411.5315079000011,413.8980078000004,413.8826020000015,413.8868446000015,413.8980078000004,413.8980078000004,413.8980078000004,413.8980078000004,415.8980468000009,415.8980468000009,415.8980468000009,415.8980468000009,415.88262360000044,3,None,0.7380205999997997,0.303726000000097,,,,,,,,,,,,,,,,,,,,,,2172,1,2025-06-23_16h27.15.471,sm,2024.2.4,59.94959438107896,2025-06-23 16h27.25.882717 +0200,
48,0,48,,,,,,space,2.709397300001001,None,None,3,None,0.6172385999998369,0.2513213000001997,0,0,0,0,,,,,0,0,0,0,,,,,48,0,48,0,415.8980468000009,,,,,,,,,,,,,,,,,,,,,,,,,,,,,,,,,,,,,,,,,,,,,,,,,,,,,,,,,Krone,3.2132,415.8831405000001,415.88372340000024,415.88382790000105,415.8980468000009,419.11516120000124,419.09889600000133,419.1025770000015,419.11516120000124,419.11516120000124,419.11516120000124,419.11516120000124,421.1146299000011,421.1146299000011,421.1146299000011,421.1146299000011,421.0989268000012,3,None,0.6172385999998369,0.2513213000001997,,,,,,,,,,,,,,,,,,,,,,2172,1,2025-06-23_16h27.15.471,sm,2024.2.4,59.94959438107896,2025-06-23 16h27.25.882717 +0200,
49,0,49,,,,,,space,2.709397300001001,None,None,3,None,0.5907729999998992,0.2812580000008893,0,0,0,0,,,,,0,0,0,0,,,,,49,0,49,0,421.1146299000011,,,,,,,,,,,,,,,,,,,,,,,,,,,,,,,,,,,,,,,,,,,,,,,,,,,,,,,,,Sand,4.471,421.0994350000001,421.09993620000023,421.10004110000045,421.1146299000011,425.59777080000094,425.5818202999999,425.5851369000011,425.59777080000094,425.59777080000094,425.59777080000094,425.59777080000094,427.59736560000056,427.59736560000056,427.59736560000056,427.59736560000056,427.58197330000075,3,None,0.5907729999998992,0.2812580000008893,,,,,,,,,,,,,,,,,,,,,,2172,1,2025-06-23_16h27.15.471,sm,2024.2.4,59.94959438107896,2025-06-23 16h27.25.882717 +0200,
50,0,50,,,,,,space,2.709397300001001,None,None,3,None,0.5141848000002938,0.2885751000012533,0,0,0,0,,,,,0,0,0,0,,,,,50,0,50,0,427.59736560000056,,,,,,,,,,,,,,,,,,,,,,,,,,,,,,,,,,,,,,,,,,,,,,,,,,,,,,,,,Himmel,3.7881,427.5824790000006,427.58299350000016,427.58310170000004,427.59736560000056,431.3971603000009,431.3816001000014,431.3857947000015,431.3971603000009,431.3971603000009,431.3971603000009,431.3971603000009,433.3971615999999,433.3971615999999,433.3971615999999,433.3971615999999,433.3817400000007,3,None,0.5141848000002938,0.2885751000012533,,,,,,,,,,,,,,,,,,,,,,2172,1,2025-06-23_16h27.15.471,sm,2024.2.4,59.94959438107896,2025-06-23 16h27.25.882717 +0200,
51,0,51,,,,,,space,2.709397300001001,None,None,3,None,0.6395716999995784,0.3101849000013317,0,0,0,0,,,,,0,0,0,0,,,,,51,0,51,0,433.3971615999999,,,,,,,,,,,,,,,,,,,,,,,,,,,,,,,,,,,,,,,,,,,,,,,,,,,,,,,,,Duft,4.1412,433.38224640000044,433.38289480000094,433.3829974,433.3971615999999,437.54674820000037,437.53120520000084,437.5348857000008,437.54674820000037,437.54674820000037,437.54674820000037,437.54674820000037,439.54697230000056,439.54697230000056,439.54697230000056,439.54697230000056,439.53121770000143,3,None,0.6395716999995784,0.3101849000013317,,,,,,,,,,,,,,,,,,,,,,2172,1,2025-06-23_16h27.15.471,sm,2024.2.4,59.94959438107896,2025-06-23 16h27.25.882717 +0200,
52,0,52,,,,,,space,2.709397300001001,None,None,3,None,0.719458499999746,0.3012017000000924,0,0,0,0,,,,,0,0,0,0,,,,,52,0,52,0,439.54697230000056,,,,,,,,,,,,,,,,,,,,,,,,,,,,,,,,,,,,,,,,,,,,,,,,,,,,,,,,,Applaus,2.0203,439.53178500000104,439.53230410000106,439.5324115000003,439.54697230000056,441.579730200001,441.5640902000014,441.5679841000001,441.579730200001,441.579730200001,441.579730200001,441.579730200001,443.5799203000006,443.5799203000006,443.5799203000006,443.5799203000006,443.5646284000013,3,None,0.719458499999746,0.3012017000000924,,,,,,,,,,,,,,,,,,,,,,2172,1,2025-06-23_16h27.15.471,sm,2024.2.4,59.94959438107896,2025-06-23 16h27.25.882717 +0200,
53,0,53,,,,,,space,2.709397300001001,None,None,2,None,0.8561348000002909,0.2792649999992136,0,0,0,0,,,,,0,0,0,0,,,,,53,0,53,0,443.5799203000006,,,,,,,,,,,,,,,,,,,,,,,,,,,,,,,,,,,,,,,,,,,,,,,,,,,,,,,,,Klee,4.0672,443.5651398000009,443.56568660000084,443.5657919000005,443.5799203000006,447.64605010000014,447.6306428000007,447.6340297000006,447.64605010000014,447.64605010000014,447.64605010000014,447.64605010000014,449.6461717000002,449.6461717000002,449.6461717000002,449.6461717000002,449.6308297000014,2,None,0.8561348000002909,0.2792649999992136,,,,,,,,,,,,,,,,,,,,,,2172,1,2025-06-23_16h27.15.471,sm,2024.2.4,59.94959438107896,2025-06-23 16h27.25.882717 +0200,
54,0,54,,,,,,space,2.709397300001001,None,None,3,None,0.7770823000009841,0.27139290000013716,0,0,0,0,,,,,0,0,0,0,,,,,54,0,54,0,449.6461717000002,,,,,,,,,,,,,,,,,,,,,,,,,,,,,,,,,,,,,,,,,,,,,,,,,,,,,,,,,Wissen,2.1689,449.63133860000016,449.6318415000005,449.6319452000007,449.6461717000002,451.82971910000015,451.8136639000004,451.81829030000154,451.82971910000015,451.82971910000015,451.82971910000015,451.82971910000015,453.82939460000125,453.82939460000125,453.82939460000125,453.82939460000125,453.8138791000001,3,None,0.7770823000009841,0.27139290000013716,,,,,,,,,,,,,,,,,,,,,,2172,1,2025-06-23_16h27.15.471,sm,2024.2.4,59.94959438107896,2025-06-23 16h27.25.882717 +0200,
55,0,55,,,,,,space,2.709397300001001,None,None,2,None,0.9021796999986691,0.2557522000006429,0,0,0,0,,,,,0,0,0,0,,,,,55,0,55,0,453.82939460000125,,,,,,,,,,,,,,,,,,,,,,,,,,,,,,,,,,,,,,,,,,,,,,,,,,,,,,,,,Fuß,2.7119,453.8143834000002,453.8149078000006,453.8150123000014,453.82939460000125,456.54583920000005,456.5302953999999,456.5337638000001,456.54583920000005,456.54583920000005,456.54583920000005,456.54583920000005,458.54600910000045,458.54600910000045,458.54600910000045,458.54600910000045,458.5302533000013,2,None,0.9021796999986691,0.2557522000006429,,,,,,,,,,,,,,,,,,,,,,2172,1,2025-06-23_16h27.15.471,sm,2024.2.4,59.94959438107896,2025-06-23 16h27.25.882717 +0200,
56,0,56,,,,,,space,2.709397300001001,None,None,2,None,1.0042145999996137,0.23048640000160958,0,0,0,0,,,,,0,0,0,0,,,,,56,0,56,0,458.54600910000045,,,,,,,,,,,,,,,,,,,,,,,,,,,,,,,,,,,,,,,,,,,,,,,,,,,,,,,,,Kopf,2.1467,458.5307556000007,458.53127180000047,458.5313833,458.54600910000045,460.6955020000005,460.6798751000006,460.6832934000013,460.6955020000005,460.6955020000005,460.6955020000005,460.6955020000005,462.6954515000016,462.6954515000016,462.6954515000016,462.6954515000016,462.67991880000045,2,None,1.0042145999996137,0.23048640000160958,,,,,,,,,,,,,,,,,,,,,,2172,1,2025-06-23_16h27.15.471,sm,2024.2.4,59.94959438107896,2025-06-23 16h27.25.882717 +0200,
57,0,57,,,,,,space,2.709397300001001,None,None,3,None,0.8276032000012492,0.26129069999842613,0,0,0,0,,,,,0,0,0,0,,,,,57,0,57,0,462.6954515000016,,,,,,,,,,,,,,,,,,,,,,,,,,,,,,,,,,,,,,,,,,,,,,,,,,,,,,,,,Lava,2.4013,462.6804275000013,462.68094070000006,462.68104420000054,462.6954515000016,465.1121428000006,465.09622050000144,465.09954730000027,465.1121428000006,465.1121428000006,465.1121428000006,465.1121428000006,467.1119587000012,467.1119587000012,467.1119587000012,467.1119587000012,467.096254600001,3,None,0.8276032000012492,0.26129069999842613,,,,,,,,,,,,,,,,,,,,,,2172,1,2025-06-23_16h27.15.471,sm,2024.2.4,59.94959438107896,2025-06-23 16h27.25.882717 +0200,
58,0,58,,,,,,space,2.709397300001001,None,None,3,None,0.7227932999994664,0.301191700000345,0,0,0,0,,,,,0,0,0,0,,,,,58,0,58,0,467.1119587000012,,,,,,,,,,,,,,,,,,,,,,,,,,,,,,,,,,,,,,,,,,,,,,,,,,,,,,,,,Wein,2.4487,467.09676220000074,467.09734449999996,467.0974492000005,467.1119587000012,469.5617209000011,469.5460800000001,469.54927210000096,469.5617209000011,469.5617209000011,469.5617209000011,469.5617209000011,471.5615378000002,471.5615378000002,471.5615378000002,471.5615378000002,471.5460787000011,3,None,0.7227932999994664,0.301191700000345,,,,,,,,,,,,,,,,,,,,,,2172,1,2025-06-23_16h27.15.471,sm,2024.2.4,59.94959438107896,2025-06-23 16h27.25.882717 +0200,
59,0,59,,,,,,space,2.709397300001001,None,None,2,None,0.7241100999999617,0.26590070000020205,0,0,0,0,,,,,0,0,0,0,,,,,59,0,59,0,471.5615378000002,,,,,,,,,,,,,,,,,,,,,,,,,,,,,,,,,,,,,,,,,,,,,,,,,,,,,,,,,Handwerker,2.3511,471.5465496000015,471.5470830000013,471.54718839999987,471.5615378000002,473.92813019999994,473.91258070000003,473.9169044999999,473.92813019999994,473.92813019999994,473.92813019999994,473.92813019999994,475.9280942000005,475.9280942000005,475.9280942000005,475.9280942000005,475.9125277000003,2,None,0.7241100999999617,0.26590070000020205,,,,,,,,,,,,,,,,,,,,,,2172,1,2025-06-23_16h27.15.471,sm,2024.2.4,59.94959438107896,2025-06-23 16h27.25.882717 +0200,
60,0,60,,,,,,space,2.709397300001001,None,None,3,None,0.6807582000001275,0.2642188999998325,0,0,0,0,,,,,0,0,0,0,,,,,60,0,60,0,475.9280942000005,,,,,,,,,,,,,,,,,,,,,,,,,,,,,,,,,,,,,,,,,,,,,,,,,,,,,,,,,Nummer,3.3336,475.91303120000157,475.91353210000125,475.91363570000067,475.9280942000005,479.26103070000136,479.2452877000014,479.24855950000165,479.26103070000136,479.26103070000136,479.26103070000136,479.26103070000136,481.2613572999999,481.2613572999999,481.2613572999999,481.2613572999999,481.24552570000014,3,None,0.6807582000001275,0.2642188999998325,,,,,,,,,,,,,,,,,,,,,,2172,1,2025-06-23_16h27.15.471,sm,2024.2.4,59.94959438107896,2025-06-23 16h27.25.882717 +0200,
61,0,61,,,,,,space,2.709397300001001,None,None,3,None,0.6799111000000266,0.3855738999991445,0,0,0,0,,,,,0,0,0,0,,,,,61,0,61,0,481.2613572999999,,,,,,,,,,,,,,,,,,,,,,,,,,,,,,,,,,,,,,,,,,,,,,,,,,,,,,,,,Bürste,3.1693,481.24603370000114,481.2465462,481.24665129999994,481.2613572999999,484.44462770000064,484.4288721000012,484.4329753000002,484.44462770000064,484.44462770000064,484.44462770000064,484.44462770000064,486.4442173000007,486.4442173000007,486.4442173000007,486.4442173000007,486.42901620000157,3,None,0.6799111000000266,0.3855738999991445,,,,,,,,,,,,,,,,,,,,,,2172,1,2025-06-23_16h27.15.471,sm,2024.2.4,59.94959438107896,2025-06-23 16h27.25.882717 +0200,
62,0,62,,,,,,space,2.709397300001001,None,None,2,None,0.6293382000003476,0.26083639999887964,0,0,0,0,,,,,0,0,0,0,,,,,62,0,62,0,486.4442173000007,,,,,,,,,,,,,,,,,,,,,,,,,,,,,,,,,,,,,,,,,,,,,,,,,,,,,,,,,Bruder,3.7585,486.42952220000006,486.43003430000135,486.43013750000136,486.4442173000007,490.2104771000013,490.19502079999984,490.1992155000007,490.2104771000013,490.2104771000013,490.2104771000013,490.2104771000013,492.2105898000009,492.2105898000009,492.2105898000009,492.2105898000009,492.1954235000012,2,None,0.6293382000003476,0.26083639999887964,,,,,,,,,,,,,,,,,,,,,,2172,1,2025-06-23_16h27.15.471,sm,2024.2.4,59.94959438107896,2025-06-23 16h27.25.882717 +0200,
63,0,63,,,,,,space,2.709397300001001,None,None,3,None,0.6786962999995012,0.2756473999997979,0,0,0,0,,,,,0,0,0,0,,,,,63,0,63,0,492.2105898000009,,,,,,,,,,,,,,,,,,,,,,,,,,,,,,,,,,,,,,,,,,,,,,,,,,,,,,,,,Bild,2.3952,492.19593800000075,492.1965983000009,492.1967056000012,492.2105898000009,494.6102649000004,494.59473660000003,494.59804860000077,494.6102649000004,494.6102649000004,494.6102649000004,494.6102649000004,496.6103277000002,496.6103277000002,496.6103277000002,496.6103277000002,496.5946218000008,3,None,0.6786962999995012,0.2756473999997979,,,,,,,,,,,,,,,,,,,,,,2172,1,2025-06-23_16h27.15.471,sm,2024.2.4,59.94959438107896,2025-06-23 16h27.25.882717 +0200,
64,0,64,,,,,,space,2.709397300001001,None,None,2,None,0.625973399999566,0.25890090000029886,0,0,0,0,,,,,0,0,0,0,,,,,64,0,64,0,496.6103277000002,,,,,,,,,,,,,,,,,,,,,,,,,,,,,,,,,,,,,,,,,,,,,,,,,,,,,,,,,Professor,2.3392,496.59513479999987,496.59564690000116,496.59575399999994,496.6103277000002,498.9598313000006,498.94434020000153,498.95074250000107,498.9598313000006,498.9598313000006,498.9598313000006,498.9598313000006,500.95989680000093,500.95989680000093,500.95989680000093,500.95989680000093,500.94449840000016,2,None,0.625973399999566,0.25890090000029886,,,,,,,,,,,,,,,,,,,,,,2172,1,2025-06-23_16h27.15.471,sm,2024.2.4,59.94959438107896,2025-06-23 16h27.25.882717 +0200,
65,0,65,,,,,,space,2.709397300001001,None,None,2,None,0.598325200000545,0.2695320000002539,0,0,0,0,,,,,0,0,0,0,,,,,65,0,65,0,500.95989680000093,,,,,,,,,,,,,,,,,,,,,,,,,,,,,,,,,,,,,,,,,,,,,,,,,,,,,,,,,Elephant,2.9855,500.94500040000094,500.94551950000096,500.9456258000009,500.95989680000093,503.959744400001,503.9443332999999,503.9485345000012,503.959744400001,503.959744400001,503.959744400001,503.959744400001,505.9598143000003,505.9598143000003,505.9598143000003,505.9598143000003,505.9442736000001,2,None,0.598325200000545,0.2695320000002539,,,,,,,,,,,,,,,,,,,,,,2172,1,2025-06-23_16h27.15.471,sm,2024.2.4,59.94959438107896,2025-06-23 16h27.25.882717 +0200,
66,0,66,,,,,,space,2.709397300001001,None,None,2,None,0.578792300000714,0.24472459999924467,0,0,0,0,,,,,0,0,0,0,,,,,66,0,66,0,505.9598143000003,,,,,,,,,,,,,,,,,,,,,,,,,,,,,,,,,,,,,,,,,,,,,,,,,,,,,,,,,Turnerin,2.1055,505.94477970000116,505.94529090000105,505.9454011000016,505.9598143000003,508.0761371000008,508.06054050000057,508.064208400001,508.0761371000008,508.0761371000008,508.0761371000008,508.0761371000008,510.0764740000013,510.0764740000013,510.0764740000013,510.0764740000013,510.06073150000157,2,None,0.578792300000714,0.24472459999924467,,,,,,,,,,,,,,,,,,,,,,2172,1,2025-06-23_16h27.15.471,sm,2024.2.4,59.94959438107896,2025-06-23 16h27.25.882717 +0200,
67,0,67,,,,,,space,2.709397300001001,None,None,3,None,0.6001852999997936,0.24126350000005914,0,0,0,0,,,,,0,0,0,0,,,,,67,0,67,0,510.0764740000013,,,,,,,,,,,,,,,,,,,,,,,,,,,,,,,,,,,,,,,,,,,,,,,,,,,,,,,,,Ring,2.2618,510.06123110000044,510.06200010000066,510.0621062000009,510.0764740000013,512.3429133000009,512.3270177000013,512.3329105000012,512.3429133000009,512.3429133000009,512.3429133000009,512.3429133000009,514.343119000001,514.343119000001,514.343119000001,514.343119000001,514.3271853000006,3,None,0.6001852999997936,0.24126350000005914,,,,,,,,,,,,,,,,,,,,,,2172,1,2025-06-23_16h27.15.471,sm,2024.2.4,59.94959438107896,2025-06-23 16h27.25.882717 +0200,
68,0,68,,,,,,space,2.709397300001001,None,None,3,None,0.5339490999995178,0.29103310000027705,0,0,0,0,,,,,0,0,0,0,,,,,68,0,68,0,514.343119000001,,,,,,,,,,,,,,,,,,,,,,,,,,,,,,,,,,,,,,,,,,,,,,,,,,,,,,,,,Ostern,2.1915,514.3276902000016,514.3283375999999,514.3284436000013,514.343119000001,516.5421542000004,516.5266271,516.5322798000016,516.5421542000004,516.5421542000004,516.5421542000004,516.5421542000004,518.5425360000008,518.5425360000008,518.5425360000008,518.5425360000008,518.5266927000011,3,None,0.5339490999995178,0.29103310000027705,,,,,,,,,,,,,,,,,,,,,,2172,1,2025-06-23_16h27.15.471,sm,2024.2.4,59.94959438107896,2025-06-23 16h27.25.882717 +0200,
69,0,69,,,,,,space,2.709397300001001,None,None,3,None,0.5403852999988885,0.2666934000008041,0,0,0,0,,,,,0,0,0,0,,,,,69,0,69,0,518.5425360000008,,,,,,,,,,,,,,,,,,,,,,,,,,,,,,,,,,,,,,,,,,,,,,,,,,,,,,,,,Popcorn,3.0118,518.527201500001,518.5278543000004,518.5279620000001,518.5425360000008,521.5587393000005,521.5436227000009,521.5480599000002,521.5587393000005,521.5587393000005,521.5587393000005,521.5587393000005,523.558865500001,523.558865500001,523.558865500001,523.558865500001,523.5431810999999,3,None,0.5403852999988885,0.2666934000008041,,,,,,,,,,,,,,,,,,,,,,2172,1,2025-06-23_16h27.15.471,sm,2024.2.4,59.94959438107896,2025-06-23 16h27.25.882717 +0200,
70,0,70,,,,,,space,2.709397300001001,None,None,3,None,0.5360930999995617,0.3036721000007674,0,0,0,0,,,,,0,0,0,0,,,,,70,0,70,0,523.558865500001,,,,,,,,,,,,,,,,,,,,,,,,,,,,,,,,,,,,,,,,,,,,,,,,,,,,,,,,,Schreibtisch,2.6266,523.5436857000004,523.5442030000013,523.5443071000009,523.558865500001,526.1918412000014,526.176468900001,526.181106,526.1918412000014,526.1918412000014,526.1918412000014,526.1918412000014,528.1923371000012,528.1923371000012,528.1923371000012,528.1923371000012,528.1763759000005,3,None,0.5360930999995617,0.3036721000007674,,,,,,,,,,,,,,,,,,,,,,2172,1,2025-06-23_16h27.15.471,sm,2024.2.4,59.94959438107896,2025-06-23 16h27.25.882717 +0200,
71,0,71,,,,,,space,2.709397300001001,None,None,3,None,0.708379599998807,0.3025965000015276,0,0,0,0,,,,,0,0,0,0,,,,,71,0,71,0,528.1923371000012,,,,,,,,,,,,,,,,,,,,,,,,,,,,,,,,,,,,,,,,,,,,,,,,,,,,,,,,,Poesie,3.7324,528.176882400001,528.1774523000004,528.1775553000007,528.1923371000012,531.9249303000015,531.9093963000014,531.9139276000005,531.9249303000015,531.9249303000015,531.9249303000015,531.9249303000015,533.9249568000014,533.9249568000014,533.9249568000014,533.9249568000014,533.9092768999999,3,None,0.708379599998807,0.3025965000015276,,,,,,,,,,,,,,,,,,,,,,2172,1,2025-06-23_16h27.15.471,sm,2024.2.4,59.94959438107896,2025-06-23 16h27.25.882717 +0200,
72,0,72,,,,,,space,2.709397300001001,None,None,3,None,0.7479316999997536,0.35298879999936617,0,0,0,0,,,,,0,0,0,0,,,,,72,0,72,0,533.9249568000014,,,,,,,,,,,,,,,,,,,,,,,,,,,,,,,,,,,,,,,,,,,,,,,,,,,,,,,,,Medaille,2.1597,533.9097807000016,533.9103006000005,533.9104054,533.9249568000014,536.0910347000008,536.0758735,536.080421300001,536.0910347000008,536.0910347000008,536.0910347000008,536.0910347000008,538.0914934000011,538.0914934000011,538.0914934000011,538.0914934000011,538.0756832000006,3,None,0.7479316999997536,0.35298879999936617,,,,,,,,,,,,,,,,,,,,,,2172,1,2025-06-23_16h27.15.471,sm,2024.2.4,59.94959438107896,2025-06-23 16h27.25.882717 +0200,
73,0,73,,,,,,space,2.709397300001001,None,None,3,None,0.6699994999999035,0.30657570000039414,0,0,0,0,,,,,0,0,0,0,,,,,73,0,73,0,538.0914934000011,,,,,,,,,,,,,,,,,,,,,,,,,,,,,,,,,,,,,,,,,,,,,,,,,,,,,,,,,Ordner,2.9084,538.0761964000012,538.0766969000015,538.0768012000008,538.0914934000011,541.0082816000013,540.9919688999998,540.9962052999999,541.0082816000013,541.0082816000013,541.0082816000013,541.0082816000013,543.0080406000016,543.0080406000016,543.0080406000016,543.0080406000016,542.9922349000008,3,None,0.6699994999999035,0.30657570000039414,,,,,,,,,,,,,,,,,,,,,,2172,1,2025-06-23_16h27.15.471,sm,2024.2.4,59.94959438107896,2025-06-23 16h27.25.882717 +0200,
74,0,74,,,,,,space,2.709397300001001,None,None,3,None,1.0754050000014104,0.28323599999930593,0,0,0,0,,,,,0,0,0,0,,,,,74,0,74,0,543.0080406000016,,,,,,,,,,,,,,,,,,,,,,,,,,,,,,,,,,,,,,,,,,,,,,,,,,,,,,,,,Sumpf,3.2864,542.9927454000008,542.9932636000012,542.9933691000006,543.0080406000016,546.3072387000011,546.2918524000015,546.295802300001,546.3072387000011,546.3072387000011,546.3072387000011,546.3072387000011,548.3074998000011,548.3074998000011,548.3074998000011,548.3074998000011,548.2921566000005,3,None,1.0754050000014104,0.28323599999930593,,,,,,,,,,,,,,,,,,,,,,2172,1,2025-06-23_16h27.15.471,sm,2024.2.4,59.94959438107896,2025-06-23 16h27.25.882717 +0200,
75,0,75,,,,,,space,2.709397300001001,None,None,2,None,0.7100571999999374,0.2709188000007998,0,0,0,0,,,,,0,0,0,0,,,,,75,0,75,0,548.3074998000011,,,,,,,,,,,,,,,,,,,,,,,,,,,,,,,,,,,,,,,,,,,,,,,,,,,,,,,,,Apfel,2.048,548.2926747000001,548.2934557000008,548.2935663000007,548.3074998000011,550.3571540000012,550.3415685,550.3451436000014,550.3571540000012,550.3571540000012,550.3571540000012,550.3571540000012,552.3570976999999,552.3570976999999,552.3570976999999,552.3570976999999,552.3417666000005,2,None,0.7100571999999374,0.2709188000007998,,,,,,,,,,,,,,,,,,,,,,2172,1,2025-06-23_16h27.15.471,sm,2024.2.4,59.94959438107896,2025-06-23 16h27.25.882717 +0200,
76,0,76,,,,,,space,2.709397300001001,None,None,3,None,0.6401927999995678,0.267226899999514,0,0,0,0,,,,,0,0,0,0,,,,,76,0,76,0,552.3570976999999,,,,,,,,,,,,,,,,,,,,,,,,,,,,,,,,,,,,,,,,,,,,,,,,,,,,,,,,,Marmor,3.1933,552.3422948000007,552.3428077000008,552.3429119000011,552.3570976999999,555.5568500000008,555.5415055000012,555.5452521000007,555.5568500000008,555.5568500000008,555.5568500000008,555.5568500000008,557.5567836999999,557.5567836999999,557.5567836999999,557.5567836999999,557.5412147000006,3,None,0.6401927999995678,0.267226899999514,,,,,,,,,,,,,,,,,,,,,,2172,1,2025-06-23_16h27.15.471,sm,2024.2.4,59.94959438107896,2025-06-23 16h27.25.882717 +0200,
77,0,77,,,,,,space,2.709397300001001,None,None,3,None,0.57405160000053,0.3270467999991524,0,0,0,0,,,,,0,0,0,0,,,,,77,0,77,0,557.5567836999999,,,,,,,,,,,,,,,,,,,,,,,,,,,,,,,,,,,,,,,,,,,,,,,,,,,,,,,,,Sendung,5.0849,557.5416889000007,557.5422593000003,557.5423561000007,557.5567836999999,562.6574159000011,562.6407306000001,562.6443953000016,562.6574159000011,562.6574159000011,562.6574159000011,562.6574159000011,564.6565638000011,564.6565638000011,564.6565638000011,564.6565638000011,564.6411943000003,3,None,0.57405160000053,0.3270467999991524,,,,,,,,,,,,,,,,,,,,,,2172,1,2025-06-23_16h27.15.471,sm,2024.2.4,59.94959438107896,2025-06-23 16h27.25.882717 +0200,
78,0,78,,,,,,space,2.709397300001001,None,None,2,None,0.8305710000004183,0.2542086000012205,0,0,0,0,,,,,0,0,0,0,,,,,78,0,78,0,564.6565638000011,,,,,,,,,,,,,,,,,,,,,,,,,,,,,,,,,,,,,,,,,,,,,,,,,,,,,,,,,Gesicht,5.0432,564.6416972000006,564.6421876000004,564.6422937000007,564.6565638000011,569.7060876000014,569.6904720000002,569.6956167000008,569.7060876000014,569.7060876000014,569.7060876000014,569.7060876000014,571.7061833000007,571.7061833000007,571.7061833000007,571.7061833000007,571.6905554000004,2,None,0.8305710000004183,0.2542086000012205,,,,,,,,,,,,,,,,,,,,,,2172,1,2025-06-23_16h27.15.471,sm,2024.2.4,59.94959438107896,2025-06-23 16h27.25.882717 +0200,
79,0,79,,,,,,space,2.709397300001001,None,None,3,None,1.2586623999995936,0.2947975999995833,0,0,0,0,,,,,0,0,0,0,,,,,79,0,79,0,571.7061833000007,,,,,,,,,,,,,,,,,,,,,,,,,,,,,,,,,,,,,,,,,,,,,,,,,,,,,,,,,Ozean,2.6624,571.6910658000015,571.6915825000015,571.6916871000012,571.7061833000007,574.3722092000007,574.3564191000005,574.3603171000013,574.3722092000007,574.3722092000007,574.3722092000007,574.3722092000007,576.3837641000009,576.3837641000009,576.3837641000009,576.3837641000009,576.3568525999999,3,None,1.2586623999995936,0.2947975999995833,,,,,,,,,,,,,,,,,,,,,,2172,1,2025-06-23_16h27.15.471,sm,2024.2.4,59.94959438107896,2025-06-23 16h27.25.882717 +0200,
0,0,0,,,,,3.7553,space,2.212062100001276,None,None,3,None,1.0694227999993018,0.2746519000011176,0,0,0,0,,,,,1,0,1,0,0,79,79,0,0,0,0,0,621.3698139000007,,,,,,,,,,,,,,,,,,,,,,,,,,,,,,,,,,,,594.3338360000016,594.3340928000016,594.3403565000008,594.3445944000014,594.3445944000014,596.5732529000015,space,2.212062100001276,None,596.5734076000008,596.5880990000005,596.5880990000005,609.3539375,None,609.3605935000014,609.3705469000015,609.3689439666671,610.5759245000008,619.353560366668,620.3563941000011,621.3542572000006,Glück,3.7553,621.3557473000001,621.3563373000015,621.3564463000002,621.3698139000007,625.1362142000016,625.1206013999999,625.1240056000006,625.1362142000016,625.1362142000016,625.1362142000016,625.1362142000016,627.1363254000007,627.1363254000007,627.1363254000007,627.1363254000007,627.1207259000003,3,None,1.0694227999993018,0.2746519000011176,588.3726106000013,588.3726847000016,None,588.3801636000007,588.3881502000004,592.388280000001,592.388280000001,592.388280000001,594.2896106000007,2,1.884039999999004,None,621.3698139000007,,,,,,,,,2172,1,2025-06-23_16h27.15.471,sm,2024.2.4,59.94959438107896,2025-06-23 16h27.25.882717 +0200,
1,0,1,,,,,,space,2.212062100001276,None,None,3,None,0.5986689000001206,0.2678765000000567,0,0,0,0,,,,,1,0,1,0,,,,,1,0,1,0,627.1363254000007,,,,,,,,,,,,,,,,,,,,,,,,,,,,,,,,,,,,,,,,,,,,,,,,,,,,,,,,,Zimt,3.6532,627.1212323,627.1219164000013,627.1220195000005,627.1363254000007,630.8023602000012,630.7870987000006,630.7900004000003,630.8023602000012,630.8023602000012,630.8023602000012,630.8023602000012,632.8025866000007,632.8025866000007,632.8025866000007,632.8025866000007,632.7870032999999,3,None,0.5986689000001206,0.2678765000000567,,,,,,,,,,,,,,,,,,,,,,2172,1,2025-06-23_16h27.15.471,sm,2024.2.4,59.94959438107896,2025-06-23 16h27.25.882717 +0200,
2,0,2,,,,,,space,2.212062100001276,None,None,3,None,0.5590862999997626,0.26963119999891205,0,0,0,0,,,,,1,0,1,0,,,,,2,0,2,0,632.8025866000007,,,,,,,,,,,,,,,,,,,,,,,,,,,,,,,,,,,,,,,,,,,,,,,,,,,,,,,,,Dusche,2.8735,632.787476200001,632.7879850000008,632.7880865000006,632.8025866000007,635.6858324000004,635.6703404,635.6743586000011,635.6858324000004,635.6858324000004,635.6858324000004,635.6858324000004,637.6856805000007,637.6856805000007,637.6856805000007,637.6856805000007,637.6703364000005,3,None,0.5590862999997626,0.26963119999891205,,,,,,,,,,,,,,,,,,,,,,2172,1,2025-06-23_16h27.15.471,sm,2024.2.4,59.94959438107896,2025-06-23 16h27.25.882717 +0200,
3,0,3,,,,,,space,2.212062100001276,None,None,3,None,1.3127662999995664,0.26086539999960223,0,0,0,0,,,,,1,0,1,0,,,,,3,0,3,0,637.6856805000007,,,,,,,,,,,,,,,,,,,,,,,,,,,,,,,,,,,,,,,,,,,,,,,,,,,,,,,,,Knöchel,3.0483,637.6708557000002,637.6713808000004,637.6714860000011,637.6856805000007,640.7354556999999,640.7200025000002,640.723919600001,640.7354556999999,640.7354556999999,640.7354556999999,640.7354556999999,642.7357040000006,642.7357040000006,642.7357040000006,642.7357040000006,642.7201407000011,3,None,1.3127662999995664,0.26086539999960223,,,,,,,,,,,,,,,,,,,,,,2172,1,2025-06-23_16h27.15.471,sm,2024.2.4,59.94959438107896,2025-06-23 16h27.25.882717 +0200,
4,0,4,,,,,,space,2.212062100001276,None,None,2,None,0.7457073000005039,0.25190010000005714,0,0,0,0,,,,,1,0,1,0,,,,,4,0,4,0,642.7357040000006,,,,,,,,,,,,,,,,,,,,,,,,,,,,,,,,,,,,,,,,,,,,,,,,,,,,,,,,,Eule,2.3524,642.7206246000005,642.7212251000001,642.7213317000005,642.7357040000006,645.1019154000005,645.0863674000011,645.0897663000014,645.1019154000005,645.1019154000005,645.1019154000005,645.1019154000005,647.1018968000008,647.1018968000008,647.1018968000008,647.1018968000008,647.0862660000003,2,None,0.7457073000005039,0.25190010000005714,,,,,,,,,,,,,,,,,,,,,,2172,1,2025-06-23_16h27.15.471,sm,2024.2.4,59.94959438107896,2025-06-23 16h27.25.882717 +0200,
5,0,5,,,,,,space,2.212062100001276,None,None,3,None,0.9635551999999734,0.25112129999979516,0,0,0,0,,,,,1,0,1,0,,,,,5,0,5,0,647.1018968000008,,,,,,,,,,,,,,,,,,,,,,,,,,,,,,,,,,,,,,,,,,,,,,,,,,,,,,,,,Geschichte,3.2502,647.0867801000004,647.0872807000014,647.0873843000008,647.1018968000008,650.3515334000003,650.335935000001,650.340658000001,650.3515334000003,650.3515334000003,650.3515334000003,650.3515334000003,652.3520430000008,652.3520430000008,652.3520430000008,652.3520430000008,652.3359915000001,3,None,0.9635551999999734,0.25112129999979516,,,,,,,,,,,,,,,,,,,,,,2172,1,2025-06-23_16h27.15.471,sm,2024.2.4,59.94959438107896,2025-06-23 16h27.25.882717 +0200,
6,0,6,,,,,,space,2.212062100001276,None,None,3,None,0.7582466000003478,0.23687710000012885,0,0,0,0,,,,,1,0,1,0,,,,,6,0,6,0,652.3520430000008,,,,,,,,,,,,,,,,,,,,,,,,,,,,,,,,,,,,,,,,,,,,,,,,,,,,,,,,,Berg,2.048,652.3364934000001,652.336990400001,652.3370938000007,652.3520430000008,654.4011081000008,654.3858944000003,654.3892488000001,654.4011081000008,654.4011081000008,654.4011081000008,654.4011081000008,656.4013865000015,656.4013865000015,656.4013865000015,656.4013865000015,656.3859634,3,None,0.7582466000003478,0.23687710000012885,,,,,,,,,,,,,,,,,,,,,,2172,1,2025-06-23_16h27.15.471,sm,2024.2.4,59.94959438107896,2025-06-23 16h27.25.882717 +0200,
7,0,7,,,,,,space,2.212062100001276,None,None,3,None,0.5686009000000922,0.23538969999935944,0,0,0,0,,,,,1,0,1,0,,,,,7,0,7,0,656.4013865000015,,,,,,,,,,,,,,,,,,,,,,,,,,,,,,,,,,,,,,,,,,,,,,,,,,,,,,,,,Postkarte,2.6832,656.386471400001,656.3870557000009,656.3871659000015,656.4013865000015,659.0844592000012,659.0689095000016,659.0736240000006,659.0844592000012,659.0844592000012,659.0844592000012,659.0844592000012,661.0844635000012,661.0844635000012,661.0844635000012,661.0844635000012,661.0686998000001,3,None,0.5686009000000922,0.23538969999935944,,,,,,,,,,,,,,,,,,,,,,2172,1,2025-06-23_16h27.15.471,sm,2024.2.4,59.94959438107896,2025-06-23 16h27.25.882717 +0200,
8,0,8,,,,,,space,2.212062100001276,None,None,3,None,0.6222319999997126,0.25072870000076364,0,0,0,0,,,,,1,0,1,0,,,,,8,0,8,0,661.0844635000012,,,,,,,,,,,,,,,,,,,,,,,,,,,,,,,,,,,,,,,,,,,,,,,,,,,,,,,,,Center,2.4013,661.0691842000015,661.0696908999998,661.0697881000015,661.0844635000012,663.501011100001,663.4852658,663.4891086000007,663.501011100001,663.501011100001,663.501011100001,663.501011100001,665.5008517000006,665.5008517000006,665.5008517000006,665.5008517000006,665.4852148000009,3,None,0.6222319999997126,0.25072870000076364,,,,,,,,,,,,,,,,,,,,,,2172,1,2025-06-23_16h27.15.471,sm,2024.2.4,59.94959438107896,2025-06-23 16h27.25.882717 +0200,
9,0,9,,,,,,space,2.212062100001276,None,None,3,None,0.5546563000007154,0.3227397999999084,0,0,0,0,,,,,1,0,1,0,,,,,9,0,9,0,665.5008517000006,,,,,,,,,,,,,,,,,,,,,,,,,,,,,,,,,,,,,,,,,,,,,,,,,,,,,,,,,Mappe,2.04,665.485727700001,665.486233900001,665.4863380000006,665.5008517000006,667.5506191000004,667.5347130999999,667.5381700000016,667.5506191000004,667.5506191000004,667.5506191000004,667.5506191000004,669.5505116000004,669.5505116000004,669.5505116000004,669.5505116000004,669.5351128000002,3,None,0.5546563000007154,0.3227397999999084,,,,,,,,,,,,,,,,,,,,,,2172,1,2025-06-23_16h27.15.471,sm,2024.2.4,59.94959438107896,2025-06-23 16h27.25.882717 +0200,
10,0,10,,,,,,space,2.212062100001276,None,None,2,None,0.7631172000001243,0.317509999998947,0,0,0,0,,,,,1,0,1,0,,,,,10,0,10,0,669.5505116000004,,,,,,,,,,,,,,,,,,,,,,,,,,,,,,,,,,,,,,,,,,,,,,,,,,,,,,,,,Zunge,2.1597,669.5356101000016,669.5361238000005,669.5362295000014,669.5505116000004,671.7168936000016,671.7012562,671.7049590000006,671.7168936000016,671.7168936000016,671.7168936000016,671.7168936000016,673.7170876,673.7170876,673.7170876,673.7170876,673.7017635000011,2,None,0.7631172000001243,0.317509999998947,,,,,,,,,,,,,,,,,,,,,,2172,1,2025-06-23_16h27.15.471,sm,2024.2.4,59.94959438107896,2025-06-23 16h27.25.882717 +0200,
11,0,11,,,,,,space,2.212062100001276,None,None,2,None,1.0324242000006052,0.28259369999977935,0,0,0,0,,,,,1,0,1,0,,,,,11,0,11,0,673.7170876,,,,,,,,,,,,,,,,,,,,,,,,,,,,,,,,,,,,,,,,,,,,,,,,,,,,,,,,,Spion,2.6483,673.7022702000013,673.7028404000012,673.7029461000002,673.7170876,676.3669488000014,676.3513125000009,676.3561933000001,676.3669488000014,676.3669488000014,676.3669488000014,676.3669488000014,678.3669227999999,678.3669227999999,678.3669227999999,678.3669227999999,678.3511616000014,2,None,1.0324242000006052,0.28259369999977935,,,,,,,,,,,,,,,,,,,,,,2172,1,2025-06-23_16h27.15.471,sm,2024.2.4,59.94959438107896,2025-06-23 16h27.25.882717 +0200,
12,0,12,,,,,,space,2.212062100001276,None,None,3,None,0.5873930000016117,0.2559616999988066,0,0,0,0,,,,,1,0,1,0,,,,,12,0,12,0,678.3669227999999,,,,,,,,,,,,,,,,,,,,,,,,,,,,,,,,,,,,,,,,,,,,,,,,,,,,,,,,,Chips,2.7763,678.3516724000001,678.3521830000009,678.3522890000004,678.3669227999999,681.1496889000009,681.1343130000005,681.137669400001,681.1496889000009,681.1496889000009,681.1496889000009,681.1496889000009,683.1498517,683.1498517,683.1498517,683.1498517,683.1346535000011,3,None,0.5873930000016117,0.2559616999988066,,,,,,,,,,,,,,,,,,,,,,2172,1,2025-06-23_16h27.15.471,sm,2024.2.4,59.94959438107896,2025-06-23 16h27.25.882717 +0200,
13,0,13,,,,,,space,2.212062100001276,None,None,3,None,0.6281436999997823,0.26768649999939953,0,0,0,0,,,,,1,0,1,0,,,,,13,0,13,0,683.1498517,,,,,,,,,,,,,,,,,,,,,,,,,,,,,,,,,,,,,,,,,,,,,,,,,,,,,,,,,Bücher,3.7585,683.1351626000014,683.1356570000007,683.1357617000012,683.1498517,686.9162325000016,686.900862800001,686.9050454000007,686.9162325000016,686.9162325000016,686.9162325000016,686.9162325000016,688.916713300001,688.916713300001,688.916713300001,688.916713300001,688.9006130000016,3,None,0.6281436999997823,0.26768649999939953,,,,,,,,,,,,,,,,,,,,,,2172,1,2025-06-23_16h27.15.471,sm,2024.2.4,59.94959438107896,2025-06-23 16h27.25.882717 +0200,
14,0,14,,,,,,space,2.212062100001276,None,None,2,None,0.7027106000005006,0.26422160000038275,0,0,0,0,,,,,1,0,1,0,,,,,14,0,14,0,688.916713300001,,,,,,,,,,,,,,,,,,,,,,,,,,,,,,,,,,,,,,,,,,,,,,,,,,,,,,,,,Autorin,3.1829,688.9011159000001,688.9016893000007,688.9017936,688.916713300001,692.0990880000008,692.0834453000007,692.0870509000015,692.0990880000008,692.0990880000008,692.0990880000008,692.0990880000008,694.0992274,694.0992274,694.0992274,694.0992274,694.0842267000007,2,None,0.7027106000005006,0.26422160000038275,,,,,,,,,,,,,,,,,,,,,,2172,1,2025-06-23_16h27.15.471,sm,2024.2.4,59.94959438107896,2025-06-23 16h27.25.882717 +0200,
15,0,15,,,,,,space,2.212062100001276,None,None,3,None,0.6501714999994874,0.26169800000025134,0,0,0,0,,,,,1,0,1,0,,,,,15,0,15,0,694.0992274,,,,,,,,,,,,,,,,,,,,,,,,,,,,,,,,,,,,,,,,,,,,,,,,,,,,,,,,,Rock,2.9084,694.0847534000004,694.0853442000007,694.0854502000002,694.0992274,697.0155278000002,697.0000494000014,697.0033627000012,697.0155278000002,697.0155278000002,697.0155278000002,697.0155278000002,699.0156026000004,699.0156026000004,699.0156026000004,699.0156026000004,699.0002781000003,3,None,0.6501714999994874,0.26169800000025134,,,,,,,,,,,,,,,,,,,,,,2172,1,2025-06-23_16h27.15.471,sm,2024.2.4,59.94959438107896,2025-06-23 16h27.25.882717 +0200,
16,0,16,,,,,,space,2.212062100001276,None,None,2,None,0.6909864999997808,0.2782777000011265,0,0,0,0,,,,,1,0,1,0,,,,,16,0,16,0,699.0156026000004,,,,,,,,,,,,,,,,,,,,,,,,,,,,,,,,,,,,,,,,,,,,,,,,,,,,,,,,,Monster,2.3392,699.0007839000009,699.0012927000007,699.0013974000012,699.0156026000004,701.3652878000012,701.3496321000002,701.3534047000012,701.3652878000012,701.3652878000012,701.3652878000012,701.3652878000012,703.3654252000015,703.3654252000015,703.3654252000015,703.3654252000015,703.3505208000006,2,None,0.6909864999997808,0.2782777000011265,,,,,,,,,,,,,,,,,,,,,,2172,1,2025-06-23_16h27.15.471,sm,2024.2.4,59.94959438107896,2025-06-23 16h27.25.882717 +0200,
17,0,17,,,,,,space,2.212062100001276,None,None,3,None,1.667631900001652,0.24938099999963015,0,0,0,0,,,,,1,0,1,0,,,,,17,0,17,0,703.3654252000015,,,,,,,,,,,,,,,,,,,,,,,,,,,,,,,,,,,,,,,,,,,,,,,,,,,,,,,,,Komödie,2.8689,703.3510159000016,703.3517035000004,703.3518116000014,703.3654252000015,706.2484573000002,706.2328100000013,706.2369257999999,706.2484573000002,706.2484573000002,706.2484573000002,706.2484573000002,708.2487321000008,708.2487321000008,708.2487321000008,708.2487321000008,708.2330109000013,3,None,1.667631900001652,0.24938099999963015,,,,,,,,,,,,,,,,,,,,,,2172,1,2025-06-23_16h27.15.471,sm,2024.2.4,59.94959438107896,2025-06-23 16h27.25.882717 +0200,
18,0,18,,,,,,space,2.212062100001276,None,None,3,None,1.5791101999984676,0.25740480000058596,0,0,0,0,,,,,1,0,1,0,,,,,18,0,18,0,708.2487321000008,,,,,,,,,,,,,,,,,,,,,,,,,,,,,,,,,,,,,,,,,,,,,,,,,,,,,,,,,Bart,2.1385,708.2335090000015,708.2340628000002,708.2341700000015,708.2487321000008,710.3983175000012,710.3826108000012,710.3865744000013,710.3983175000012,710.3983175000012,710.3983175000012,710.3983175000012,712.3982228000004,712.3982228000004,712.3982228000004,712.3982228000004,712.3825434999999,3,None,1.5791101999984676,0.25740480000058596,,,,,,,,,,,,,,,,,,,,,,2172,1,2025-06-23_16h27.15.471,sm,2024.2.4,59.94959438107896,2025-06-23 16h27.25.882717 +0200,
19,0,19,,,,,,space,2.212062100001276,None,None,3,None,0.6696857000006275,0.37337339999976393,0,0,0,0,,,,,1,0,1,0,,,,,19,0,19,0,712.3982228000004,,,,,,,,,,,,,,,,,,,,,,,,,,,,,,,,,,,,,,,,,,,,,,,,,,,,,,,,,Afrika,3.3336,712.3830569000002,712.3838016000009,712.3839076000004,712.3982228000004,715.7313327000011,715.715572000001,715.719452700001,715.7313327000011,715.7313327000011,715.7313327000011,715.7313327000011,717.7312645000002,717.7312645000002,717.7312645000002,717.7312645000002,717.7156755000015,3,None,0.6696857000006275,0.37337339999976393,,,,,,,,,,,,,,,,,,,,,,2172,1,2025-06-23_16h27.15.471,sm,2024.2.4,59.94959438107896,2025-06-23 16h27.25.882717 +0200,
20,0,20,,,,,,space,2.212062100001276,None,None,3,None,0.5655182999998942,0.2589782000013656,0,0,0,0,,,,,1,0,1,0,,,,,20,0,20,0,717.7312645000002,,,,,,,,,,,,,,,,,,,,,,,,,,,,,,,,,,,,,,,,,,,,,,,,,,,,,,,,,Schwung,2.3585,717.7161808000001,717.7168277000001,717.7169331000005,717.7312645000002,720.0977147000012,720.0820990000011,720.0861872000005,720.0977147000012,720.0977147000012,720.0977147000012,720.0977147000012,722.0978455000004,722.0978455000004,722.0978455000004,722.0978455000004,722.0823005000002,3,None,0.5655182999998942,0.2589782000013656,,,,,,,,,,,,,,,,,,,,,,2172,1,2025-06-23_16h27.15.471,sm,2024.2.4,59.94959438107896,2025-06-23 16h27.25.882717 +0200,
21,0,21,,,,,,space,2.212062100001276,None,None,3,None,0.5431301000007807,0.2523975000003702,0,0,0,0,,,,,1,0,1,0,,,,,21,0,21,0,722.0978455000004,,,,,,,,,,,,,,,,,,,,,,,,,,,,,,,,,,,,,,,,,,,,,,,,,,,,,,,,,Ringe,4.3594,722.0828141000002,722.083322800001,722.0834298000009,722.0978455000004,726.4639676000006,726.4484139000015,726.451916,726.4639676000006,726.4639676000006,726.4639676000006,726.4639676000006,728.4638431000003,728.4638431000003,728.4638431000003,728.4638431000003,728.4481165000016,3,None,0.5431301000007807,0.2523975000003702,,,,,,,,,,,,,,,,,,,,,,2172,1,2025-06-23_16h27.15.471,sm,2024.2.4,59.94959438107896,2025-06-23 16h27.25.882717 +0200,
22,0,22,,,,,,space,2.212062100001276,None,None,3,None,0.5381239999987883,0.2663389000008465,0,0,0,0,,,,,1,0,1,0,,,,,22,0,22,0,728.4638431000003,,,,,,,,,,,,,,,,,,,,,,,,,,,,,,,,,,,,,,,,,,,,,,,,,,,,,,,,,Teller,2.2618,728.4485491000014,728.4491431000006,728.4492366000013,728.4638431000003,730.7306172000008,730.7149186000006,730.7189277000016,730.7306172000008,730.7306172000008,730.7306172000008,730.7306172000008,732.7307093,732.7307093,732.7307093,732.7307093,732.7148045000013,3,None,0.5381239999987883,0.2663389000008465,,,,,,,,,,,,,,,,,,,,,,2172,1,2025-06-23_16h27.15.471,sm,2024.2.4,59.94959438107896,2025-06-23 16h27.25.882717 +0200,
23,0,23,,,,,,space,2.212062100001276,None,None,3,None,0.5471978999994462,0.26915940000071714,0,0,0,0,,,,,1,0,1,0,,,,,23,0,23,0,732.7307093,,,,,,,,,,,,,,,,,,,,,,,,,,,,,,,,,,,,,,,,,,,,,,,,,,,,,,,,,Sturm,2.6637,732.715237800001,732.7157052000002,732.7157947000014,732.7307093,735.3968894000009,735.3812925000002,735.3848074000016,735.3968894000009,735.3968894000009,735.3968894000009,735.3968894000009,737.3968894000009,737.3968894000009,737.3968894000009,737.3968894000009,737.3812518000013,3,None,0.5471978999994462,0.26915940000071714,,,,,,,,,,,,,,,,,,,,,,2172,1,2025-06-23_16h27.15.471,sm,2024.2.4,59.94959438107896,2025-06-23 16h27.25.882717 +0200,
24,0,24,,,,,,space,2.212062100001276,None,None,3,None,0.7422616999992897,0.2819260000014765,0,0,0,0,,,,,1,0,1,0,,,,,24,0,24,0,737.3968894000009,,,,,,,,,,,,,,,,,,,,,,,,,,,,,,,,,,,,,,,,,,,,,,,,,,,,,,,,,Schnürsenkel,5.8019,737.3817608000008,737.3822574000005,737.3823615000001,737.3968894000009,743.2128084000014,743.1972994000007,743.201133300001,743.2128084000014,743.2128084000014,743.2128084000014,743.2128084000014,745.2129896000006,745.2129896000006,745.2129896000006,745.2129896000006,745.197686200001,3,None,0.7422616999992897,0.2819260000014765,,,,,,,,,,,,,,,,,,,,,,2172,1,2025-06-23_16h27.15.471,sm,2024.2.4,59.94959438107896,2025-06-23 16h27.25.882717 +0200,
25,0,25,,,,,,space,2.212062100001276,None,None,3,None,0.6974329999993643,0.26910250000037195,0,0,0,0,,,,,1,0,1,0,,,,,25,0,25,0,745.2129896000006,,,,,,,,,,,,,,,,,,,,,,,,,,,,,,,,,,,,,,,,,,,,,,,,,,,,,,,,,Moor,3.1169,745.1981976000006,745.1987294999999,745.1988390000006,745.2129896000006,748.3292846000004,748.3138646000007,748.3176265000002,748.3292846000004,748.3292846000004,748.3292846000004,748.3292846000004,750.329443300001,750.329443300001,750.329443300001,750.329443300001,750.3139995000001,3,None,0.6974329999993643,0.26910250000037195,,,,,,,,,,,,,,,,,,,,,,2172,1,2025-06-23_16h27.15.471,sm,2024.2.4,59.94959438107896,2025-06-23 16h27.25.882717 +0200,
26,0,26,,,,,,space,2.212062100001276,None,None,3,None,0.4860155999995186,0.2831968999998935,0,0,0,0,,,,,1,0,1,0,,,,,26,0,26,0,750.329443300001,,,,,,,,,,,,,,,,,,,,,,,,,,,,,,,,,,,,,,,,,,,,,,,,,,,,,,,,,Strand,3.4552,750.314502700001,750.3150985000011,750.3152035000003,750.329443300001,753.7958765000003,753.7805338000016,753.7847457000007,753.7958765000003,753.7958765000003,753.7958765000003,753.7958765000003,755.7962607000009,755.7962607000009,755.7962607000009,755.7962607000009,755.7803816000014,3,None,0.4860155999995186,0.2831968999998935,,,,,,,,,,,,,,,,,,,,,,2172,1,2025-06-23_16h27.15.471,sm,2024.2.4,59.94959438107896,2025-06-23 16h27.25.882717 +0200,
27,0,27,,,,,,space,2.212062100001276,None,None,3,None,0.43078699999932724,0.27426070000001346,0,0,0,0,,,,,1,0,1,0,,,,,27,0,27,0,755.7962607000009,,,,,,,,,,,,,,,,,,,,,,,,,,,,,,,,,,,,,,,,,,,,,,,,,,,,,,,,,Wohnung,3.0118,755.7808700000005,755.7815005000011,755.781607500001,755.7962607000009,758.8121296000008,758.7966080000006,758.8008469000015,758.8121296000008,758.8121296000008,758.8121296000008,758.8121296000008,760.8122321999999,760.8122321999999,760.8122321999999,760.8122321999999,760.7971375000016,3,None,0.43078699999932724,0.27426070000001346,,,,,,,,,,,,,,,,,,,,,,2172,1,2025-06-23_16h27.15.471,sm,2024.2.4,59.94959438107896,2025-06-23 16h27.25.882717 +0200,
28,0,28,,,,,,space,2.212062100001276,None,None,3,None,0.8851610999990953,0.32701600000109465,0,0,0,0,,,,,1,0,1,0,,,,,28,0,28,0,760.8122321999999,,,,,,,,,,,,,,,,,,,,,,,,,,,,,,,,,,,,,,,,,,,,,,,,,,,,,,,,,Dorn,2.6624,760.7976482000013,760.7981691000005,760.7982803000014,760.8122321999999,763.4787480000014,763.4632190000011,763.4669125,763.4787480000014,763.4787480000014,763.4787480000014,763.4787480000014,765.4787297000003,765.4787297000003,765.4787297000003,765.4787297000003,765.4630677000005,3,None,0.8851610999990953,0.32701600000109465,,,,,,,,,,,,,,,,,,,,,,2172,1,2025-06-23_16h27.15.471,sm,2024.2.4,59.94959438107896,2025-06-23 16h27.25.882717 +0200,
29,0,29,,,,,,space,2.212062100001276,None,None,3,None,0.5988020999993751,0.29641950000041106,0,0,0,0,,,,,1,0,1,0,,,,,29,0,29,0,765.4787297000003,,,,,,,,,,,,,,,,,,,,,,,,,,,,,,,,,,,,,,,,,,,,,,,,,,,,,,,,,Anruf,2.5939,765.4635214000009,765.4640037000008,765.4640972000016,765.4787297000003,768.0784211000009,768.0634201000012,768.067332300001,768.0784211000009,768.0784211000009,768.0784211000009,768.0784211000009,770.0783297000016,770.0783297000016,770.0783297000016,770.0783297000016,770.0627118000011,3,None,0.5988020999993751,0.29641950000041106,,,,,,,,,,,,,,,,,,,,,,2172,1,2025-06-23_16h27.15.471,sm,2024.2.4,59.94959438107896,2025-06-23 16h27.25.882717 +0200,
30,0,30,,,,,,space,2.212062100001276,None,None,3,None,0.8432400000001508,0.25317919999906735,0,0,0,0,,,,,1,0,1,0,,,,,30,0,30,0,770.0783297000016,,,,,,,,,,,,,,,,,,,,,,,,,,,,,,,,,,,,,,,,,,,,,,,,,,,,,,,,,Zeigen,2.3511,770.0632370000003,770.0637471000009,770.0638503000009,770.0783297000016,772.4449278000011,772.4289830000016,772.4325074000008,772.4449278000011,772.4449278000011,772.4449278000011,772.4449278000011,774.4448563000005,774.4448563000005,774.4448563000005,774.4448563000005,774.4296751000002,3,None,0.8432400000001508,0.25317919999906735,,,,,,,,,,,,,,,,,,,,,,2172,1,2025-06-23_16h27.15.471,sm,2024.2.4,59.94959438107896,2025-06-23 16h27.25.882717 +0200,
31,0,31,,,,,,space,2.212062100001276,None,None,3,None,0.5988084000000526,0.2894916999994166,0,0,0,0,,,,,1,0,1,0,,,,,31,0,31,0,774.4448563000005,,,,,,,,,,,,,,,,,,,,,,,,,,,,,,,,,,,,,,,,,,,,,,,,,,,,,,,,,Weinen,2.9855,774.4301841000015,774.4306924000011,774.4307968000012,774.4448563000005,777.4443960000008,777.4288312000008,777.4325035000002,777.4443960000008,777.4443960000008,777.4443960000008,777.4443960000008,779.4444791000005,779.4444791000005,779.4444791000005,779.4444791000005,779.4290240000009,3,None,0.5988084000000526,0.2894916999994166,,,,,,,,,,,,,,,,,,,,,,2172,1,2025-06-23_16h27.15.471,sm,2024.2.4,59.94959438107896,2025-06-23 16h27.25.882717 +0200,
32,0,32,,,,,,space,2.212062100001276,None,None,3,None,0.5157897000008234,0.30038989999957266,0,0,0,0,,,,,1,0,1,0,,,,,32,0,32,0,779.4444791000005,,,,,,,,,,,,,,,,,,,,,,,,,,,,,,,,,,,,,,,,,,,,,,,,,,,,,,,,,Spaghetti,3.1693,779.4295319000012,779.4301028000009,779.4302066,779.4444791000005,782.627398300001,782.6123541000015,782.6185605999999,782.627398300001,782.627398300001,782.627398300001,782.627398300001,784.6274492000011,784.6274492000011,784.6274492000011,784.6274492000011,784.6117938000007,3,None,0.5157897000008234,0.30038989999957266,,,,,,,,,,,,,,,,,,,,,,2172,1,2025-06-23_16h27.15.471,sm,2024.2.4,59.94959438107896,2025-06-23 16h27.25.882717 +0200,
33,0,33,,,,,,space,2.212062100001276,None,None,3,None,0.6809799000002386,0.28420809999988705,0,0,0,0,,,,,1,0,1,0,,,,,33,0,33,0,784.6274492000011,,,,,,,,,,,,,,,,,,,,,,,,,,,,,,,,,,,,,,,,,,,,,,,,,,,,,,,,,Skizze,3.7881,784.6122734,784.6127597000013,784.6128605000013,784.6274492000011,788.4272208000002,788.4114475000006,788.4150148000008,788.4272208000002,788.4272208000002,788.4272208000002,788.4272208000002,790.427195100001,790.427195100001,790.427195100001,790.427195100001,790.4118290000006,3,None,0.6809799000002386,0.28420809999988705,,,,,,,,,,,,,,,,,,,,,,2172,1,2025-06-23_16h27.15.471,sm,2024.2.4,59.94959438107896,2025-06-23 16h27.25.882717 +0200,
34,0,34,,,,,,space,2.212062100001276,None,None,3,None,0.7784960999997566,0.28252530000099796,0,0,0,0,,,,,1,0,1,0,,,,,34,0,34,0,790.427195100001,,,,,,,,,,,,,,,,,,,,,,,,,,,,,,,,,,,,,,,,,,,,,,,,,,,,,,,,,Weltraum,4.6935,790.4123475000015,790.4128564000002,790.4129628999999,790.427195100001,795.1271895000009,795.1115118000016,795.1156373000013,795.1271895000009,795.1271895000009,795.1271895000009,795.1271895000009,797.1271568000011,797.1271568000011,797.1271568000011,797.1271568000011,797.1112689000001,3,None,0.7784960999997566,0.28252530000099796,,,,,,,,,,,,,,,,,,,,,,2172,1,2025-06-23_16h27.15.471,sm,2024.2.4,59.94959438107896,2025-06-23 16h27.25.882717 +0200,
35,0,35,,,,,,space,2.212062100001276,None,None,3,None,0.8486922000010964,0.27739590000055614,0,0,0,0,,,,,1,0,1,0,,,,,35,0,35,0,797.1271568000011,,,,,,,,,,,,,,,,,,,,,,,,,,,,,,,,,,,,,,,,,,,,,,,,,,,,,,,,,Ausbruch,3.8802,797.1117775000002,797.1122918000001,797.1123983000016,797.1271568000011,801.0099090000003,800.9944797000007,800.9986727000014,801.0099090000003,801.0099090000003,801.0099090000003,801.0099090000003,803.0098990000006,803.0098990000006,803.0098990000006,803.0098990000006,802.994442700001,3,None,0.8486922000010964,0.27739590000055614,,,,,,,,,,,,,,,,,,,,,,2172,1,2025-06-23_16h27.15.471,sm,2024.2.4,59.94959438107896,2025-06-23 16h27.25.882717 +0200,
36,0,36,,,,,,space,2.212062100001276,None,None,3,None,0.6069837999984884,0.29324330000054033,0,0,0,0,,,,,1,0,1,0,,,,,36,0,36,0,803.0098990000006,,,,,,,,,,,,,,,,,,,,,,,,,,,,,,,,,,,,,,,,,,,,,,,,,,,,,,,,,Klippe,2.1079,802.9949652000014,802.9954779,802.9955825000015,803.0098990000006,805.1263678000014,805.1108564000006,805.1149312000016,805.1263678000014,805.1263678000014,805.1263678000014,805.1263678000014,807.1265893,807.1265893,807.1265893,807.1265893,807.1108672000009,3,None,0.6069837999984884,0.29324330000054033,,,,,,,,,,,,,,,,,,,,,,2172,1,2025-06-23_16h27.15.471,sm,2024.2.4,59.94959438107896,2025-06-23 16h27.25.882717 +0200,
37,0,37,,,,,,space,2.212062100001276,None,None,3,None,0.5502765000001091,0.3191058000011253,0,0,0,0,,,,,1,0,1,0,,,,,37,0,37,0,807.1265893,,,,,,,,,,,,,,,,,,,,,,,,,,,,,,,,,,,,,,,,,,,,,,,,,,,,,,,,,Fakt,2.6266,807.1113786000005,807.1118843000004,807.1119902999999,807.1265893,809.7601937,809.7437632000001,809.7474757,809.7601937,809.7601937,809.7601937,809.7601937,811.7595670999999,811.7595670999999,811.7595670999999,811.7595670999999,811.7439481000001,3,None,0.5502765000001091,0.3191058000011253,,,,,,,,,,,,,,,,,,,,,,2172,1,2025-06-23_16h27.15.471,sm,2024.2.4,59.94959438107896,2025-06-23 16h27.25.882717 +0200,
38,0,38,,,,,,space,2.212062100001276,None,None,3,None,0.5093894000001455,0.30164460000014515,0,0,0,0,,,,,1,0,1,0,,,,,38,0,38,0,811.7595670999999,,,,,,,,,,,,,,,,,,,,,,,,,,,,,,,,,,,,,,,,,,,,,,,,,,,,,,,,,Foto,3.7998,811.7444356000015,811.7449395000003,811.7450462000015,811.7595670999999,815.5592525000011,815.5438407000001,815.5472960000006,815.5592525000011,815.5592525000011,815.5592525000011,815.5592525000011,817.5589532000013,817.5589532000013,817.5589532000013,817.5589532000013,817.5439708000013,3,None,0.5093894000001455,0.30164460000014515,,,,,,,,,,,,,,,,,,,,,,2172,1,2025-06-23_16h27.15.471,sm,2024.2.4,59.94959438107896,2025-06-23 16h27.25.882717 +0200,
39,0,39,,,,,,space,2.212062100001276,None,None,3,None,0.524663000000146,0.2986787000008917,0,0,0,0,,,,,1,0,1,0,,,,,39,0,39,0,817.5589532000013,,,,,,,,,,,,,,,,,,,,,,,,,,,,,,,,,,,,,,,,,,,,,,,,,,,,,,,,,Monument,2.1467,817.5444643999999,817.5449644,817.5450753000005,817.5589532000013,819.7088795,819.6934894000005,819.6984995000003,819.7088795,819.7088795,819.7088795,819.7088795,821.7089216000004,821.7089216000004,821.7089216000004,821.7089216000004,821.6932141000016,3,None,0.524663000000146,0.2986787000008917,,,,,,,,,,,,,,,,,,,,,,2172,1,2025-06-23_16h27.15.471,sm,2024.2.4,59.94959438107896,2025-06-23 16h27.25.882717 +0200,
40,0,40,,,,,,space,2.212062100001276,None,None,3,None,0.5670297000015125,0.26492229999894334,0,0,0,0,,,,,1,0,1,0,,,,,40,0,40,0,821.7089216000004,,,,,,,,,,,,,,,,,,,,,,,,,,,,,,,,,,,,,,,,,,,,,,,,,,,,,,,,,Sack,3.7324,821.6937210000015,821.6943046000015,821.6944104000013,821.7089216000004,825.4420774000009,825.4259494000016,825.4290934,825.4420774000009,825.4420774000009,825.4420774000009,825.4420774000009,827.4419722000002,827.4419722000002,827.4419722000002,827.4419722000002,827.4263457000015,3,None,0.5670297000015125,0.26492229999894334,,,,,,,,,,,,,,,,,,,,,,2172,1,2025-06-23_16h27.15.471,sm,2024.2.4,59.94959438107896,2025-06-23 16h27.25.882717 +0200,
41,0,41,,,,,,space,2.212062100001276,None,None,3,None,0.8659360999990895,0.26739180000004126,0,0,0,0,,,,,1,0,1,0,,,,,41,0,41,0,827.4419722000002,,,,,,,,,,,,,,,,,,,,,,,,,,,,,,,,,,,,,,,,,,,,,,,,,,,,,,,,,Garten,3.2864,827.4268491000003,827.4273719000012,827.4274781000004,827.4419722000002,830.7417834000007,830.7261300999999,830.7303361000013,830.7417834000007,830.7417834000007,830.7417834000007,830.7417834000007,832.7416354000015,832.7416354000015,832.7416354000015,832.7416354000015,832.7259967999998,3,None,0.8659360999990895,0.26739180000004126,,,,,,,,,,,,,,,,,,,,,,2172,1,2025-06-23_16h27.15.471,sm,2024.2.4,59.94959438107896,2025-06-23 16h27.25.882717 +0200,
42,0,42,,,,,,space,2.212062100001276,None,None,3,None,1.256552600001669,0.3483825999992405,0,0,0,0,,,,,1,0,1,0,,,,,42,0,42,0,832.7416354000015,,,,,,,,,,,,,,,,,,,,,,,,,,,,,,,,,,,,,,,,,,,,,,,,,,,,,,,,,Atem,2.7501,832.7265114000002,832.727026300001,832.7271312000012,832.7416354000015,835.4911790000006,835.4756866000007,835.4790063,835.4911790000006,835.4911790000006,835.4911790000006,835.4911790000006,837.4912485000004,837.4912485000004,837.4912485000004,837.4912485000004,837.4757313000009,3,None,1.256552600001669,0.3483825999992405,,,,,,,,,,,,,,,,,,,,,,2172,1,2025-06-23_16h27.15.471,sm,2024.2.4,59.94959438107896,2025-06-23 16h27.25.882717 +0200,
43,0,43,,,,,,space,2.212062100001276,None,None,3,None,0.7236757000009675,0.2822484999996959,0,0,0,0,,,,,1,0,1,0,,,,,43,0,43,0,837.4912485000004,,,,,,,,,,,,,,,,,,,,,,,,,,,,,,,,,,,,,,,,,,,,,,,,,,,,,,,,,Ehe,3.8606,837.4762411000011,837.4767452000015,837.4768462000011,837.4912485000004,841.3575541999999,841.3419435000014,841.3456666000002,841.3575541999999,841.3575541999999,841.3575541999999,841.3575541999999,843.357500600001,843.357500600001,843.357500600001,843.357500600001,843.3419699000005,3,None,0.7236757000009675,0.2822484999996959,,,,,,,,,,,,,,,,,,,,,,2172,1,2025-06-23_16h27.15.471,sm,2024.2.4,59.94959438107896,2025-06-23 16h27.25.882717 +0200,
44,0,44,,,,,,space,2.212062100001276,None,None,2,None,1.0651819999984582,0.2729650000001129,0,0,0,0,,,,,1,0,1,0,,,,,44,0,44,0,843.357500600001,,,,,,,,,,,,,,,,,,,,,,,,,,,,,,,,,,,,,,,,,,,,,,,,,,,,,,,,,Rebe,3.8906,843.3424852000007,843.3429992000001,843.3431045000016,843.357500600001,847.2572531000005,847.2415117,847.2446989,847.2572531000005,847.2572531000005,847.2572531000005,847.2572531000005,849.2572858000003,849.2572858000003,849.2572858000003,849.2572858000003,849.2420766000014,2,None,1.0651819999984582,0.2729650000001129,,,,,,,,,,,,,,,,,,,,,,2172,1,2025-06-23_16h27.15.471,sm,2024.2.4,59.94959438107896,2025-06-23 16h27.25.882717 +0200,
45,0,45,,,,,,space,2.212062100001276,None,None,3,None,0.6250603000007686,0.2484004999987519,0,0,0,0,,,,,1,0,1,0,,,,,45,0,45,0,849.2572858000003,,,,,,,,,,,,,,,,,,,,,,,,,,,,,,,,,,,,,,,,,,,,,,,,,,,,,,,,,Theater,2.1915,849.2425851000007,849.2430874000001,849.2431982000016,849.2572858000003,851.457298700001,851.4419283000007,851.4461153000011,851.457298700001,851.457298700001,851.457298700001,851.457298700001,853.4572305000002,853.4572305000002,853.4572305000002,853.4572305000002,853.4414265000014,3,None,0.6250603000007686,0.2484004999987519,,,,,,,,,,,,,,,,,,,,,,2172,1,2025-06-23_16h27.15.471,sm,2024.2.4,59.94959438107896,2025-06-23 16h27.25.882717 +0200,
46,0,46,,,,,,space,2.212062100001276,None,None,3,None,0.4631069999995816,0.275261099999625,0,0,0,0,,,,,1,0,1,0,,,,,46,0,46,0,853.4572305000002,,,,,,,,,,,,,,,,,,,,,,,,,,,,,,,,,,,,,,,,,,,,,,,,,,,,,,,,,Flut,2.4678,853.4419774000016,853.4424892000006,853.4425987000013,853.4572305000002,855.9400909000015,855.9245459000012,855.9287183000015,855.9400909000015,855.9400909000015,855.9400909000015,855.9400909000015,857.9400749000015,857.9400749000015,857.9400749000015,857.9400749000015,857.9247413000012,3,None,0.4631069999995816,0.275261099999625,,,,,,,,,,,,,,,,,,,,,,2172,1,2025-06-23_16h27.15.471,sm,2024.2.4,59.94959438107896,2025-06-23 16h27.25.882717 +0200,
47,0,47,,,,,,space,2.212062100001276,None,None,3,None,0.4721833000003244,0.31555370000023686,0,0,0,0,,,,,1,0,1,0,,,,,47,0,47,0,857.9400749000015,,,,,,,,,,,,,,,,,,,,,,,,,,,,,,,,,,,,,,,,,,,,,,,,,,,,,,,,,Fahrrad,3.6156,857.9252515000007,857.925766100001,857.9258715000014,857.9400749000015,861.5566678000014,861.5410430000011,861.5448947000004,861.5566678000014,861.5566678000014,861.5566678000014,861.5566678000014,863.556558100001,863.556558100001,863.556558100001,863.556558100001,863.5409565000009,3,None,0.4721833000003244,0.31555370000023686,,,,,,,,,,,,,,,,,,,,,,2172,1,2025-06-23_16h27.15.471,sm,2024.2.4,59.94959438107896,2025-06-23 16h27.25.882717 +0200,
48,0,48,,,,,,space,2.212062100001276,None,None,3,None,0.7826476999998704,0.28045270000075107,0,0,0,0,,,,,1,0,1,0,,,,,48,0,48,0,863.556558100001,,,,,,,,,,,,,,,,,,,,,,,,,,,,,,,,,,,,,,,,,,,,,,,,,,,,,,,,,Diamant,2.9951,863.5414457000006,863.5419393000011,863.5420446000007,863.556558100001,866.556985700001,866.5405562000014,866.5443283000004,866.556985700001,866.556985700001,866.556985700001,866.556985700001,868.557150300001,868.557150300001,868.557150300001,868.557150300001,868.5406515000013,3,None,0.7826476999998704,0.28045270000075107,,,,,,,,,,,,,,,,,,,,,,2172,1,2025-06-23_16h27.15.471,sm,2024.2.4,59.94959438107896,2025-06-23 16h27.25.882717 +0200,
49,0,49,,,,,,space,2.212062100001276,None,None,3,None,0.6787311999996746,0.26191990000006626,0,0,0,0,,,,,1,0,1,0,,,,,49,0,49,0,868.557150300001,,,,,,,,,,,,,,,,,,,,,,,,,,,,,,,,,,,,,,,,,,,,,,,,,,,,,,,,,Zähne,2.1491,868.5411593000008,868.5416605999999,868.5417697000012,868.557150300001,870.7057494000001,870.6900599,870.6933128000001,870.7057494000001,870.7057494000001,870.7057494000001,870.7057494000001,872.7059646000016,872.7059646000016,872.7059646000016,872.7059646000016,872.6907953000009,3,None,0.6787311999996746,0.26191990000006626,,,,,,,,,,,,,,,,,,,,,,2172,1,2025-06-23_16h27.15.471,sm,2024.2.4,59.94959438107896,2025-06-23 16h27.25.882717 +0200,
50,0,50,,,,,,space,2.212062100001276,None,None,3,None,0.5770523999999568,0.25539650000064285,0,0,0,0,,,,,1,0,1,0,,,,,50,0,50,0,872.7059646000016,,,,,,,,,,,,,,,,,,,,,,,,,,,,,,,,,,,,,,,,,,,,,,,,,,,,,,,,,Nebel,2.9626,872.6913010000007,872.6918148000004,872.6919177,872.7059646000016,875.6720412000013,875.6565899000016,875.6598819999999,875.6720412000013,875.6720412000013,875.6720412000013,875.6720412000013,877.6724284000011,877.6724284000011,877.6724284000011,877.6724284000011,877.6569704000012,3,None,0.5770523999999568,0.25539650000064285,,,,,,,,,,,,,,,,,,,,,,2172,1,2025-06-23_16h27.15.471,sm,2024.2.4,59.94959438107896,2025-06-23 16h27.25.882717 +0200,
51,0,51,,,,,,space,2.212062100001276,None,None,3,None,0.5549315999996907,0.26089760000104434,0,0,0,0,,,,,1,0,1,0,,,,,51,0,51,0,877.6724284000011,,,,,,,,,,,,,,,,,,,,,,,,,,,,,,,,,,,,,,,,,,,,,,,,,,,,,,,,,Frieden,3.2132,877.6574771000014,877.6579914000013,877.6580973,877.6724284000011,880.8886891000002,880.8730276000006,880.8770600000007,880.8886891000002,880.8886891000002,880.8886891000002,880.8886891000002,882.8888243000001,882.8888243000001,882.8888243000001,882.8888243000001,882.8733742000004,3,None,0.5549315999996907,0.26089760000104434,,,,,,,,,,,,,,,,,,,,,,2172,1,2025-06-23_16h27.15.471,sm,2024.2.4,59.94959438107896,2025-06-23 16h27.25.882717 +0200,
52,0,52,,,,,,space,2.212062100001276,None,None,3,None,0.45942529999956605,0.31488639999952284,0,0,0,0,,,,,1,0,1,0,,,,,52,0,52,0,882.8888243000001,,,,,,,,,,,,,,,,,,,,,,,,,,,,,,,,,,,,,,,,,,,,,,,,,,,,,,,,,Tür,4.471,882.8738826000008,882.8743964000005,882.8745024,882.8888243000001,887.3718317000003,887.3557719,887.3587656,887.3718317000003,887.3718317000003,887.3718317000003,887.3718317000003,889.3717230000002,889.3717230000002,889.3717230000002,889.3717230000002,889.3561363000008,3,None,0.45942529999956605,0.31488639999952284,,,,,,,,,,,,,,,,,,,,,,2172,1,2025-06-23_16h27.15.471,sm,2024.2.4,59.94959438107896,2025-06-23 16h27.25.882717 +0200,
53,0,53,,,,,,space,2.212062100001276,None,None,3,None,0.662887899999987,0.29815570000027947,0,0,0,0,,,,,1,0,1,0,,,,,53,0,53,0,889.3717230000002,,,,,,,,,,,,,,,,,,,,,,,,,,,,,,,,,,,,,,,,,,,,,,,,,,,,,,,,,Weiß,2.2674,889.356660200001,889.3571740000007,889.3572789999998,889.3717230000002,891.6382080000003,891.6224376000009,891.6265549,891.6382080000003,891.6382080000003,891.6382080000003,891.6382080000003,893.638117800001,893.638117800001,893.638117800001,893.638117800001,893.6225415000008,3,None,0.662887899999987,0.29815570000027947,,,,,,,,,,,,,,,,,,,,,,2172,1,2025-06-23_16h27.15.471,sm,2024.2.4,59.94959438107896,2025-06-23 16h27.25.882717 +0200,
54,0,54,,,,,,space,2.212062100001276,None,None,3,None,0.4999222999995254,0.29987330000039947,0,0,0,0,,,,,1,0,1,0,,,,,54,0,54,0,893.638117800001,,,,,,,,,,,,,,,,,,,,,,,,,,,,,,,,,,,,,,,,,,,,,,,,,,,,,,,,,Tisch,3.2317,893.6230659000012,893.6235856000003,893.6236959000016,893.638117800001,896.8718832000013,896.8554550000008,896.8587924000003,896.8718832000013,896.8718832000013,896.8718832000013,896.8718832000013,898.8710789000015,898.8710789000015,898.8710789000015,898.8710789000015,898.8556334000004,3,None,0.4999222999995254,0.29987330000039947,,,,,,,,,,,,,,,,,,,,,,2172,1,2025-06-23_16h27.15.471,sm,2024.2.4,59.94959438107896,2025-06-23 16h27.25.882717 +0200,
55,0,55,,,,,,space,2.212062100001276,None,None,2,None,0.8286410000000615,0.28922480000073847,0,0,0,0,,,,,1,0,1,0,,,,,55,0,55,0,898.8710789000015,,,,,,,,,,,,,,,,,,,,,,,,,,,,,,,,,,,,,,,,,,,,,,,,,,,,,,,,,Gruppe,2.1949,898.8561456000007,898.8566534000001,898.8567601000013,898.8710789000015,901.0708935000002,901.0551905000011,901.0586057,901.0708935000002,901.0708935000002,901.0708935000002,901.0708935000002,903.0710472999999,903.0710472999999,903.0710472999999,903.0710472999999,903.0553975000003,2,None,0.8286410000000615,0.28922480000073847,,,,,,,,,,,,,,,,,,,,,,2172,1,2025-06-23_16h27.15.471,sm,2024.2.4,59.94959438107896,2025-06-23 16h27.25.882717 +0200,
56,0,56,,,,,,space,2.212062100001276,None,None,2,None,1.0272808999998233,0.24595680000129505,0,0,0,0,,,,,1,0,1,0,,,,,56,0,56,0,903.0710472999999,,,,,,,,,,,,,,,,,,,,,,,,,,,,,,,,,,,,,,,,,,,,,,,,,,,,,,,,,Fliegen,2.0203,903.0559024000013,903.0564094000001,903.0565173000014,903.0710472999999,905.1042452000002,905.0885775000006,905.092617100001,905.1042452000002,905.1042452000002,905.1042452000002,905.1042452000002,907.1045596000004,907.1045596000004,907.1045596000004,907.1045596000004,907.0888434000008,2,None,1.0272808999998233,0.24595680000129505,,,,,,,,,,,,,,,,,,,,,,2172,1,2025-06-23_16h27.15.471,sm,2024.2.4,59.94959438107896,2025-06-23 16h27.25.882717 +0200,
57,0,57,,,,,,space,2.212062100001276,None,None,2,None,1.1009274999996705,0.2504699000000983,0,0,0,0,,,,,1,0,1,0,,,,,57,0,57,0,907.1045596000004,,,,,,,,,,,,,,,,,,,,,,,,,,,,,,,,,,,,,,,,,,,,,,,,,,,,,,,,,Rasen,2.1055,907.0893634000004,907.0901460000005,907.0903093000015,907.1045596000004,909.2204968000005,909.2049228000014,909.2088561,909.2204968000005,909.2204968000005,909.2204968000005,909.2204968000005,911.2205680000006,911.2205680000006,911.2205680000006,911.2205680000006,911.2050818000007,2,None,1.1009274999996705,0.2504699000000983,,,,,,,,,,,,,,,,,,,,,,2172,1,2025-06-23_16h27.15.471,sm,2024.2.4,59.94959438107896,2025-06-23 16h27.25.882717 +0200,
58,0,58,,,,,,space,2.212062100001276,None,None,2,None,0.6577070999992429,0.24892309999995632,0,0,0,0,,,,,1,0,1,0,,,,,58,0,58,0,911.2205680000006,,,,,,,,,,,,,,,,,,,,,,,,,,,,,,,,,,,,,,,,,,,,,,,,,,,,,,,,,Anführer,2.0718,911.2055830000008,911.2062287000008,911.2063328000004,911.2205680000006,913.3036767000012,913.2878064000015,913.2915327999999,913.3036767000012,913.3036767000012,913.3036767000012,913.3036767000012,915.3036877000013,915.3036877000013,915.3036877000013,915.3036877000013,915.2881342000001,2,None,0.6577070999992429,0.24892309999995632,,,,,,,,,,,,,,,,,,,,,,2172,1,2025-06-23_16h27.15.471,sm,2024.2.4,59.94959438107896,2025-06-23 16h27.25.882717 +0200,
59,0,59,,,,,,space,2.212062100001276,None,None,3,None,0.6485057999998389,0.26415450000058627,0,0,0,0,,,,,1,0,1,0,,,,,59,0,59,0,915.3036877000013,,,,,,,,,,,,,,,,,,,,,,,,,,,,,,,,,,,,,,,,,,,,,,,,,,,,,,,,,Tube,2.9351,915.2886335000003,915.2891675999999,915.2892755000012,915.3036877000013,918.2535828,918.2381570000016,918.241766000001,918.2535828,918.2535828,918.2535828,918.2535828,920.2536386000011,920.2536386000011,920.2536386000011,920.2536386000011,920.2377785000008,3,None,0.6485057999998389,0.26415450000058627,,,,,,,,,,,,,,,,,,,,,,2172,1,2025-06-23_16h27.15.471,sm,2024.2.4,59.94959438107896,2025-06-23 16h27.25.882717 +0200,
60,0,60,,,,,,space,2.212062100001276,None,None,3,None,0.8345239999998739,0.3207507999995869,0,0,0,0,,,,,1,0,1,0,,,,,60,0,60,0,920.2536386000011,,,,,,,,,,,,,,,,,,,,,,,,,,,,,,,,,,,,,,,,,,,,,,,,,,,,,,,,,Sicherheit,2.7119,920.2382870000001,920.2387987000002,920.2389077000007,920.2536386000011,922.9700258000012,922.9540238000009,922.9588925000007,922.9700258000012,922.9700258000012,922.9700258000012,922.9700258000012,924.9697755000016,924.9697755000016,924.9697755000016,924.9697755000016,924.9543501000007,3,None,0.8345239999998739,0.3207507999995869,,,,,,,,,,,,,,,,,,,,,,2172,1,2025-06-23_16h27.15.471,sm,2024.2.4,59.94959438107896,2025-06-23 16h27.25.882717 +0200,
61,0,61,,,,,,space,2.212062100001276,None,None,3,None,0.5661163000004308,0.30458290000024135,0,0,0,0,,,,,1,0,1,0,,,,,61,0,61,0,924.9697755000016,,,,,,,,,,,,,,,,,,,,,,,,,,,,,,,,,,,,,,,,,,,,,,,,,,,,,,,,,Feier,2.4487,924.9548613000006,924.9553714000012,924.9554736999999,924.9697755000016,927.4195168000006,927.4039176000006,927.4080379000006,927.4195168000006,927.4195168000006,927.4195168000006,927.4195168000006,929.4196328000016,929.4196328000016,929.4196328000016,929.4196328000016,929.4038129,3,None,0.5661163000004308,0.30458290000024135,,,,,,,,,,,,,,,,,,,,,,2172,1,2025-06-23_16h27.15.471,sm,2024.2.4,59.94959438107896,2025-06-23 16h27.25.882717 +0200,
62,0,62,,,,,,space,2.212062100001276,None,None,3,None,0.5463963999991392,0.28810560000056284,0,0,0,0,,,,,1,0,1,0,,,,,62,0,62,0,929.4196328000016,,,,,,,,,,,,,,,,,,,,,,,,,,,,,,,,,,,,,,,,,,,,,,,,,,,,,,,,,Konzert,4.0672,929.4042421000013,929.4047812000008,929.4048708999999,929.4196328000016,933.4859227000015,933.4701382000003,933.4732646000011,933.4859227000015,933.4859227000015,933.4859227000015,933.4859227000015,935.4859322000011,935.4859322000011,935.4859322000011,935.4859322000011,935.470282100001,3,None,0.5463963999991392,0.28810560000056284,,,,,,,,,,,,,,,,,,,,,,2172,1,2025-06-23_16h27.15.471,sm,2024.2.4,59.94959438107896,2025-06-23 16h27.25.882717 +0200,
