thisN,thisTrialN,thisRepN,Cue,Target,Mediator1,Mediator2,iti,scanner_ready_press.keys,scanner_ready_press.rt,scanner_ready_press.duration,skip_trigger.keys,living_nonliving.keys,living_nonliving.rt,living_nonliving.duration,end_mapping.keys,blocks.thisRepN,blocks.thisTrialN,blocks.thisN,blocks.thisIndex,load_and_shuffle.thisRepN,load_and_shuffle.thisTrialN,load_and_shuffle.thisN,load_and_shuffle.thisIndex,runs.thisRepN,runs.thisTrialN,runs.thisN,runs.thisIndex,iti_loading_loop.thisRepN,iti_loading_loop.thisTrialN,iti_loading_loop.thisN,iti_loading_loop.thisIndex,semantic_mapping_run.thisRepN,semantic_mapping_run.thisTrialN,semantic_mapping_run.thisN,semantic_mapping_run.thisIndex,thisRow.t,notes,welcome.started,welcome_text.started,key_resp__welcome.started,welcome.stopped,key_resp__welcome.keys,key_resp__welcome.rt,key_resp__welcome.duration,scout.started,scout_text.started,key_resp.started,scout.stopped,key_resp.keys,key_resp.rt,key_resp.duration,instructions_semantic_mapping1.started,sm_instructions1_text.started,sm_instructions1_key.started,instructions_semantic_mapping1.stopped,sm_instructions1_key.keys,sm_instructions1_key.rt,sm_instructions1_key.duration,instructions_semantic_mapping2.started,sm_instructions2_text.started,sm_instructions2_key.started,instructions_semantic_mapping2.stopped,sm_instructions2_key.keys,sm_instructions2_key.rt,sm_instructions2_key.duration,reset_run.started,reset_run.stopped,shuffle_items.started,shuffle_items.stopped,set_up_runs.started,set_up_runs.stopped,load_iti.started,load_iti.stopped,prep_scanner.started,scanner_ready_press.started,ready_set_text.started,prep_scanner.stopped,runs.scanner_ready_press.keys,runs.scanner_ready_press.rt,runs.scanner_ready_press.duration,wait_for_trigger.started,starting_soon.started,skip_trigger.started,wait_for_trigger.stopped,runs.skip_trigger.keys,blank.started,begin_end_run_cross.started,sound_1.started,sound_1.stopped,sound_2.started,sound_2.stopped,blank.stopped,CurrentItem,CurrentITI,set_up_trial.started,set_up_trial.stopped,sm_iti.started,iti_cross.started,iti_cross.stopped,sm_iti.stopped,item.started,living_nonliving.started,end_mapping.started,living_nonliving_text.started,semantic_map_item.started,living_nonliving.stopped,end_mapping.stopped,living_nonliving_text.stopped,semantic_map_item.stopped,item.stopped,semantic_mapping_run.living_nonliving.keys,semantic_mapping_run.living_nonliving.rt,semantic_mapping_run.living_nonliving.duration,semantic_mapping_run.end_mapping.keys,fieldmap.started,fieldmap.stopped,runs.fm_key.keys,task_break.started,feeback_text.started,task_break_text.started,task_break_resp.started,feeback_text.stopped,task_break.stopped,runs.task_break_resp.keys,runs.task_break_resp.rt,runs.task_break_resp.duration,begin_end_run_cross.stopped,fm_text.started,fm_key.started,PID,MRI,date,expName,psychopyVersion,frameRate,expStart,
,,,,,,,,,,,,,,,,,,,,,,,,,,,,,,,,,,,,,,0.003804800000580144,0.012019100000543403,0.012019100000543403,87.69874979999986,space,87.66484490000039,None,,,,,,,,,,,,,,,,,,,,,,,,,,,,,,,,,,,,,,,,,,,,,,,,,,,,,,,,,,,,,,,,,,,,,,,,,,,,,,,,,,,,,,2389,1,2025-10-28_16h31.09.017,sm,2024.2.4,59.97947502359374,2025-10-28 16h31.18.476048 +0100,
,,,,,,,,,,,,,,,,,,,,,,,,,,,,,,,,,,,,,,,,,,,,,87.6988681999992,87.70856509999976,87.70856509999976,129.92182859999957,space,42.209407700000156,None,,,,,,,,,,,,,,,,,,,,,,,,,,,,,,,,,,,,,,,,,,,,,,,,,,,,,,,,,,,,,,,,,,,,,,,,,,,,,,,2389,1,2025-10-28_16h31.09.017,sm,2024.2.4,59.97947502359374,2025-10-28 16h31.18.476048 +0100,
,,,,,,,,,,,,,,,,,,,,,,,,,,,,,,,,,,,,,,,,,,,,,,,,,,,,129.92192439999963,129.93672399999923,129.93672399999923,144.4542748999993,3,14.51269879999927,None,,,,,,,,,,,,,,,,,,,,,,,,,,,,,,,,,,,,,,,,,,,,,,,,,,,,,,,,,,,,,,,,,,,,,,,,2389,1,2025-10-28_16h31.09.017,sm,2024.2.4,59.97947502359374,2025-10-28 16h31.18.476048 +0100,
,,,,,,,,,,,,,,,,,,,,,,,,,,,,,,,,,,,,,,,,,,,,,,,,,,,,,,,,,,,144.45439199999964,144.46910039999966,144.46910039999966,164.85285060000024,2,20.374370100000306,None,,,,,,,,,,,,,,,,,,,,,,,,,,,,,,,,,,,,,,,,,,,,,,,,,,,,,,,,,,,,,,,,,2389,1,2025-10-28_16h31.09.017,sm,2024.2.4,59.97947502359374,2025-10-28 16h31.18.476048 +0100,
0,0,0,Büro,Geschäft,Arbeit,Schreibtisch,3.6553,space,3.4770108000011533,None,None,3,1.6608039000002464,0.2422584999985702,None,0,0,0,0,0,79,79,32,0,0,0,0,0,79,79,45,0,0,0,0,225.5657745999997,,,,,,,,,,,,,,,,,,,,,,,,,,,,,,164.85370780000085,164.85450689999925,164.9229460000006,164.9231777999994,164.9275742000009,164.92786010000054,164.95693709999978,164.95712789999925,164.96363589999964,164.9684481000004,164.9684481000004,168.45461000000068,space,3.4770108000011533,None,168.45476360000066,168.46932109999943,168.46932109999943,213.53335230000084,None,213.54244929999913,213.55073839999932,213.5484686666662,214.7552128999996,223.53281966666717,224.5356996999999,225.55005100000017,Tasse,3.6553,225.55147810000017,225.55216610000025,225.5553459999992,225.5657745999997,229.23208169999998,229.21665940000094,229.21997929999998,229.23208169999998,229.23208169999998,229.23208169999998,229.23208169999998,231.23257120000017,231.23257120000017,231.23257120000017,231.23257120000017,231.2167430999998,3,1.6608039000002464,0.2422584999985702,None,,,,,,,,,,,,,,,,2389,1,2025-10-28_16h31.09.017,sm,2024.2.4,59.97947502359374,2025-10-28 16h31.18.476048 +0100,
1,0,1,,,,,,space,3.4770108000011533,None,None,2,1.5916531999992003,0.28831669999999576,None,0,0,0,0,,,,,0,0,0,0,,,,,1,0,1,0,231.23257120000017,,,,,,,,,,,,,,,,,,,,,,,,,,,,,,,,,,,,,,,,,,,,,,,,,,,,,,,,,Humor,3.9851,231.21725870000046,231.21817790000023,231.21828800000003,231.23257120000017,235.23157329999958,235.21642369999972,235.22279030000027,235.23157329999958,235.23157329999958,235.23157329999958,235.23157329999958,237.23212960000092,237.23212960000092,237.23212960000092,237.23212960000092,237.2165096000008,2,1.5916531999992003,0.28831669999999576,None,,,,,,,,,,,,,,,,2389,1,2025-10-28_16h31.09.017,sm,2024.2.4,59.97947502359374,2025-10-28 16h31.18.476048 +0100,
2,0,2,,,,,,space,3.4770108000011533,None,None,3,1.3563276999993832,0.28859229999943636,None,0,0,0,0,,,,,0,0,0,0,,,,,2,0,2,0,237.23212960000092,,,,,,,,,,,,,,,,,,,,,,,,,,,,,,,,,,,,,,,,,,,,,,,,,,,,,,,,,Mäher,2.2302,237.2170399000006,237.21759790000033,237.21770839999954,237.23212960000092,239.4652714999993,239.44971029999942,239.45377220000046,239.4652714999993,239.4652714999993,239.4652714999993,239.4652714999993,241.46527930000047,241.46527930000047,241.46527930000047,241.46527930000047,241.44983370000045,3,1.3563276999993832,0.28859229999943636,None,,,,,,,,,,,,,,,,2389,1,2025-10-28_16h31.09.017,sm,2024.2.4,59.97947502359374,2025-10-28 16h31.18.476048 +0100,
3,0,3,,,,,,space,3.4770108000011533,None,None,3,1.2043567999990046,0.27732079999987036,None,0,0,0,0,,,,,0,0,0,0,,,,,3,0,3,0,241.46527930000047,,,,,,,,,,,,,,,,,,,,,,,,,,,,,,,,,,,,,,,,,,,,,,,,,,,,,,,,,Küche,2.1555,241.45036079999954,241.45096849999936,241.45107540000026,241.46527930000047,243.63143909999962,243.61594309999964,243.62161100000048,243.63143909999962,243.63143909999962,243.63143909999962,243.63143909999962,245.63167280000016,245.63167280000016,245.63167280000016,245.63167280000016,245.61599279999973,3,1.2043567999990046,0.27732079999987036,None,,,,,,,,,,,,,,,,2389,1,2025-10-28_16h31.09.017,sm,2024.2.4,59.97947502359374,2025-10-28 16h31.18.476048 +0100,
4,0,4,,,,,,space,3.4770108000011533,None,None,2,1.561407600000166,0.2613543000006757,None,0,0,0,0,,,,,0,0,0,0,,,,,4,0,4,0,245.63167280000016,,,,,,,,,,,,,,,,,,,,,,,,,,,,,,,,,,,,,,,,,,,,,,,,,,,,,,,,,Zähne,2.87,245.6164374,245.6169159000001,245.6170086000002,245.63167280000016,248.5147479999996,248.4992005999993,248.50551649999943,248.5147479999996,248.5147479999996,248.5147479999996,248.5147479999996,250.51488880000034,250.51488880000034,250.51488880000034,250.51488880000034,250.4993730999995,2,1.561407600000166,0.2613543000006757,None,,,,,,,,,,,,,,,,2389,1,2025-10-28_16h31.09.017,sm,2024.2.4,59.97947502359374,2025-10-28 16h31.18.476048 +0100,
5,0,5,,,,,,space,3.4770108000011533,None,None,2,1.19803900000079,0.30275710000023537,None,0,0,0,0,,,,,0,0,0,0,,,,,5,0,5,0,250.51488880000034,,,,,,,,,,,,,,,,,,,,,,,,,,,,,,,,,,,,,,,,,,,,,,,,,,,,,,,,,Hilfe,3.6558,250.49988370000028,250.50039119999929,250.50049410000065,250.51488880000034,254.18106799999987,254.1652252999993,254.16867769999953,254.18106799999987,254.18106799999987,254.18106799999987,254.18106799999987,256.18101249999927,256.18101249999927,256.18101249999927,256.18101249999927,256.1653669999996,2,1.19803900000079,0.30275710000023537,None,,,,,,,,,,,,,,,,2389,1,2025-10-28_16h31.09.017,sm,2024.2.4,59.97947502359374,2025-10-28 16h31.18.476048 +0100,
6,0,6,,,,,,space,3.4770108000011533,None,None,3,1.2781387000013638,0.28626269999949727,None,0,0,0,0,,,,,0,0,0,0,,,,,6,0,6,0,256.18101249999927,,,,,,,,,,,,,,,,,,,,,,,,,,,,,,,,,,,,,,,,,,,,,,,,,,,,,,,,,Ecke,3.6689,256.1658781999995,256.16667419999976,256.1667785000009,256.18101249999927,259.8636917999993,259.84823119999965,259.85149959999944,259.8636917999993,259.8636917999993,259.8636917999993,259.8636917999993,261.8643174000008,261.8643174000008,261.8643174000008,261.8643174000008,261.84845700000005,3,1.2781387000013638,0.28626269999949727,None,,,,,,,,,,,,,,,,2389,1,2025-10-28_16h31.09.017,sm,2024.2.4,59.97947502359374,2025-10-28 16h31.18.476048 +0100,
7,0,7,,,,,,space,3.4770108000011533,None,None,3,1.235658900000999,0.25030250000054366,None,0,0,0,0,,,,,0,0,0,0,,,,,7,0,7,0,261.8643174000008,,,,,,,,,,,,,,,,,,,,,,,,,,,,,,,,,,,,,,,,,,,,,,,,,,,,,,,,,Himmel,2.5121,261.84896540000045,261.84948020000047,261.84958969999934,261.8643174000008,264.3805861000001,264.36457300000075,264.36848350000037,264.3805861000001,264.3805861000001,264.3805861000001,264.3805861000001,266.3803699,266.3803699,266.3803699,266.3803699,266.3648642999997,3,1.235658900000999,0.25030250000054366,None,,,,,,,,,,,,,,,,2389,1,2025-10-28_16h31.09.017,sm,2024.2.4,59.97947502359374,2025-10-28 16h31.18.476048 +0100,
8,0,8,,,,,,space,3.4770108000011533,None,None,3,1.1046281999988423,0.2727223000001686,None,0,0,0,0,,,,,0,0,0,0,,,,,8,0,8,0,266.3803699,,,,,,,,,,,,,,,,,,,,,,,,,,,,,,,,,,,,,,,,,,,,,,,,,,,,,,,,,Schnürsenkel,2.7918,266.365366,266.3659097,266.36602400000083,266.3803699,269.1799652999998,269.16429889999927,269.1679949999998,269.1799652999998,269.1799652999998,269.1799652999998,269.1799652999998,271.1802783000003,271.1802783000003,271.1802783000003,271.1802783000003,271.16446429999996,3,1.1046281999988423,0.2727223000001686,None,,,,,,,,,,,,,,,,2389,1,2025-10-28_16h31.09.017,sm,2024.2.4,59.97947502359374,2025-10-28 16h31.18.476048 +0100,
9,0,9,,,,,,space,3.4770108000011533,None,None,2,1.02301240000088,0.26425319999907515,None,0,0,0,0,,,,,0,0,0,0,,,,,9,0,9,0,271.1802783000003,,,,,,,,,,,,,,,,,,,,,,,,,,,,,,,,,,,,,,,,,,,,,,,,,,,,,,,,,Ostern,2.4876,271.1649223000004,271.16539750000084,271.1654892000006,271.1802783000003,273.6797533000008,273.66414050000094,273.66969059999974,273.6797533000008,273.6797533000008,273.6797533000008,273.6797533000008,275.6797743999996,275.6797743999996,275.6797743999996,275.6797743999996,275.6643743000004,2,1.02301240000088,0.26425319999907515,None,,,,,,,,,,,,,,,,2389,1,2025-10-28_16h31.09.017,sm,2024.2.4,59.97947502359374,2025-10-28 16h31.18.476048 +0100,
10,0,10,,,,,,space,3.4770108000011533,None,None,2,0.9877126999999746,0.22482200000013108,None,0,0,0,0,,,,,0,0,0,0,,,,,10,0,10,0,275.6797743999996,,,,,,,,,,,,,,,,,,,,,,,,,,,,,,,,,,,,,,,,,,,,,,,,,,,,,,,,,Geschichte,2.7056,275.6648798999995,275.6653970999996,275.6655004999993,275.6797743999996,278.3962984000009,278.38036529999954,278.38370869999926,278.3962984000009,278.3962984000009,278.3962984000009,278.3962984000009,280.39626150000004,280.39626150000004,280.39626150000004,280.39626150000004,280.38062360000004,2,0.9877126999999746,0.22482200000013108,None,,,,,,,,,,,,,,,,2389,1,2025-10-28_16h31.09.017,sm,2024.2.4,59.97947502359374,2025-10-28 16h31.18.476048 +0100,
11,0,11,,,,,,space,3.4770108000011533,None,None,2,1.0038285000009637,0.2782662999998138,None,0,0,0,0,,,,,0,0,0,0,,,,,11,0,11,0,280.39626150000004,,,,,,,,,,,,,,,,,,,,,,,,,,,,,,,,,,,,,,,,,,,,,,,,,,,,,,,,,Olympia,2.348,280.3811234999994,280.38166959999944,280.38178230000085,280.39626150000004,282.74587579999934,282.73019080000086,282.7357585000009,282.74587579999934,282.74587579999934,282.74587579999934,282.74587579999934,284.7458858000009,284.7458858000009,284.7458858000009,284.7458858000009,284.7305274999999,2,1.0038285000009637,0.2782662999998138,None,,,,,,,,,,,,,,,,2389,1,2025-10-28_16h31.09.017,sm,2024.2.4,59.97947502359374,2025-10-28 16h31.18.476048 +0100,
12,0,12,,,,,,space,3.4770108000011533,None,None,2,1.4629900999989331,0.2656711000017822,None,0,0,0,0,,,,,0,0,0,0,,,,,12,0,12,0,284.7458858000009,,,,,,,,,,,,,,,,,,,,,,,,,,,,,,,,,,,,,,,,,,,,,,,,,,,,,,,,,Feuer,2.8902,284.7310319999997,284.73167339999964,284.7317758999998,284.7458858000009,287.6457396000005,287.63032589999966,287.6374218000001,287.6457396000005,287.6457396000005,287.6457396000005,287.6457396000005,289.64571869999963,289.64571869999963,289.64571869999963,289.64571869999963,289.6302878000006,2,1.4629900999989331,0.2656711000017822,None,,,,,,,,,,,,,,,,2389,1,2025-10-28_16h31.09.017,sm,2024.2.4,59.97947502359374,2025-10-28 16h31.18.476048 +0100,
13,0,13,,,,,,space,3.4770108000011533,None,None,2,0.9749573999997665,0.26790409999921394,None,0,0,0,0,,,,,0,0,0,0,,,,,13,0,13,0,289.64571869999963,,,,,,,,,,,,,,,,,,,,,,,,,,,,,,,,,,,,,,,,,,,,,,,,,,,,,,,,,Afrika,2.2104,289.63079199999993,289.6312923000005,289.63139460000093,289.64571869999963,291.86223699999937,291.8467648000005,291.8515404000009,291.86223699999937,291.86223699999937,291.86223699999937,291.86223699999937,293.86209810000037,293.86209810000037,293.86209810000037,293.86209810000037,293.8467077000005,2,0.9749573999997665,0.26790409999921394,None,,,,,,,,,,,,,,,,2389,1,2025-10-28_16h31.09.017,sm,2024.2.4,59.97947502359374,2025-10-28 16h31.18.476048 +0100,
14,0,14,,,,,,space,3.4770108000011533,None,None,2,1.0654957000006107,0.2749862000000576,None,0,0,0,0,,,,,0,0,0,0,,,,,14,0,14,0,293.86209810000037,,,,,,,,,,,,,,,,,,,,,,,,,,,,,,,,,,,,,,,,,,,,,,,,,,,,,,,,,Brief,3.5964,293.84720899999957,293.8477290999999,293.8478333000003,293.86209810000037,297.4619000999992,297.4463257999996,297.4503442999994,297.4619000999992,297.4619000999992,297.4619000999992,297.4619000999992,299.46181050000087,299.46181050000087,299.46181050000087,299.46181050000087,299.44627460000083,2,1.0654957000006107,0.2749862000000576,None,,,,,,,,,,,,,,,,2389,1,2025-10-28_16h31.09.017,sm,2024.2.4,59.97947502359374,2025-10-28 16h31.18.476048 +0100,
15,0,15,,,,,,space,3.4770108000011533,None,None,2,1.0353694999994332,0.23933559999932186,None,0,0,0,0,,,,,0,0,0,0,,,,,15,0,15,0,299.46181050000087,,,,,,,,,,,,,,,,,,,,,,,,,,,,,,,,,,,,,,,,,,,,,,,,,,,,,,,,,Hand,3.0501,299.4467805000004,299.4474295,299.4475352999998,299.46181050000087,302.5114408999998,302.49578140000085,302.49869580000086,302.5114408999998,302.5114408999998,302.5114408999998,302.5114408999998,304.51152059999913,304.51152059999913,304.51152059999913,304.51152059999913,304.4961239999993,2,1.0353694999994332,0.23933559999932186,None,,,,,,,,,,,,,,,,2389,1,2025-10-28_16h31.09.017,sm,2024.2.4,59.97947502359374,2025-10-28 16h31.18.476048 +0100,
16,0,16,,,,,,space,3.4770108000011533,None,None,None,,,None,0,0,0,0,,,,,0,0,0,0,,,,,16,0,16,0,304.51152059999913,,,,,,,,,,,,,,,,,,,,,,,,,,,,,,,,,,,,,,,,,,,,,,,,,,,,,,,,,Berg,3.4199,304.4966323999997,304.49714289999974,304.4972460000008,304.51152059999913,307.94431430000077,307.92880700000023,307.93147710000085,307.94431430000077,307.94431430000077,307.94431430000077,307.94431430000077,309.94441560000087,309.94441560000087,309.94441560000087,309.94441560000087,309.9289998999993,None,,,None,,,,,,,,,,,,,,,,2389,1,2025-10-28_16h31.09.017,sm,2024.2.4,59.97947502359374,2025-10-28 16h31.18.476048 +0100,
17,0,17,,,,,,space,3.4770108000011533,None,None,2,1.211955199998556,0.26270240000121703,None,0,0,0,0,,,,,0,0,0,0,,,,,17,0,17,0,309.94441560000087,,,,,,,,,,,,,,,,,,,,,,,,,,,,,,,,,,,,,,,,,,,,,,,,,,,,,,,,,Frieden,2.7409,309.92947769999955,309.9299960999997,309.9300992999997,309.94441560000087,312.6939648000007,312.67852719999973,312.6819126999999,312.6939648000007,312.6939648000007,312.6939648000007,312.6939648000007,314.69458040000063,314.69458040000063,314.69458040000063,314.69458040000063,314.6787294000005,2,1.211955199998556,0.26270240000121703,None,,,,,,,,,,,,,,,,2389,1,2025-10-28_16h31.09.017,sm,2024.2.4,59.97947502359374,2025-10-28 16h31.18.476048 +0100,
18,0,18,,,,,,space,3.4770108000011533,None,None,3,1.3449268999993365,0.28120359999957145,None,0,0,0,0,,,,,0,0,0,0,,,,,18,0,18,0,314.69458040000063,,,,,,,,,,,,,,,,,,,,,,,,,,,,,,,,,,,,,,,,,,,,,,,,,,,,,,,,,Sendung,5.0441,314.6792354999998,314.67972929999996,314.67983599999934,314.69458040000063,319.74397750000026,319.7284099999997,319.73267619999933,319.74397750000026,319.74397750000026,319.74397750000026,319.74397750000026,321.7438118000009,321.7438118000009,321.7438118000009,321.7438118000009,321.7284027000005,3,1.3449268999993365,0.28120359999957145,None,,,,,,,,,,,,,,,,2389,1,2025-10-28_16h31.09.017,sm,2024.2.4,59.97947502359374,2025-10-28 16h31.18.476048 +0100,
19,0,19,,,,,,space,3.4770108000011533,None,None,2,1.2972428999983094,0.2834141000003001,None,0,0,0,0,,,,,0,0,0,0,,,,,19,0,19,0,321.7438118000009,,,,,,,,,,,,,,,,,,,,,,,,,,,,,,,,,,,,,,,,,,,,,,,,,,,,,,,,,Weinen,2.0863,321.72890689999986,321.72955189999993,321.72965420000037,321.7438118000009,323.84331550000024,323.82800339999994,323.8316417999995,323.84331550000024,323.84331550000024,323.84331550000024,323.84331550000024,325.8434947000005,325.8434947000005,325.8434947000005,325.8434947000005,325.8280830999993,2,1.2972428999983094,0.2834141000003001,None,,,,,,,,,,,,,,,,2389,1,2025-10-28_16h31.09.017,sm,2024.2.4,59.97947502359374,2025-10-28 16h31.18.476048 +0100,
20,0,20,,,,,,space,3.4770108000011533,None,None,3,1.2759272000002966,0.31289660000038566,None,0,0,0,0,,,,,0,0,0,0,,,,,20,0,20,0,325.8434947000005,,,,,,,,,,,,,,,,,,,,,,,,,,,,,,,,,,,,,,,,,,,,,,,,,,,,,,,,,Ball,2.0765,325.8285849999993,325.82922359999975,325.82932640000035,325.8434947000005,327.92670589999943,327.9110767000002,327.9149486999995,327.92670589999943,327.92670589999943,327.92670589999943,327.92670589999943,329.9264445000008,329.9264445000008,329.9264445000008,329.9264445000008,329.91192840000076,3,1.2759272000002966,0.31289660000038566,None,,,,,,,,,,,,,,,,2389,1,2025-10-28_16h31.09.017,sm,2024.2.4,59.97947502359374,2025-10-28 16h31.18.476048 +0100,
21,0,21,,,,,,space,3.4770108000011533,None,None,2,0.9876260000000912,0.24139690000083647,None,0,0,0,0,,,,,0,0,0,0,,,,,21,0,21,0,329.9264445000008,,,,,,,,,,,,,,,,,,,,,,,,,,,,,,,,,,,,,,,,,,,,,,,,,,,,,,,,,Känguru,5.4786,329.91240780000044,329.91310169999997,329.91319870000007,329.9264445000008,335.4095656999998,335.3942258999996,335.39845330000026,335.4095656999998,335.4095656999998,335.4095656999998,335.4095656999998,337.4096038000007,337.4096038000007,337.4096038000007,337.4096038000007,337.39403010000024,2,0.9876260000000912,0.24139690000083647,None,,,,,,,,,,,,,,,,2389,1,2025-10-28_16h31.09.017,sm,2024.2.4,59.97947502359374,2025-10-28 16h31.18.476048 +0100,
22,0,22,,,,,,space,3.4770108000011533,None,None,3,1.5260983999996824,0.2560804000004282,None,0,0,0,0,,,,,0,0,0,0,,,,,22,0,22,0,337.4096038000007,,,,,,,,,,,,,,,,,,,,,,,,,,,,,,,,,,,,,,,,,,,,,,,,,,,,,,,,,Schnorchel,3.7105,337.3945268999996,337.39506620000066,337.39518209999915,337.4096038000007,341.12590439999985,341.11011470000085,341.11362569999983,341.12590439999985,341.12590439999985,341.12590439999985,341.12590439999985,343.1258691999992,343.1258691999992,343.1258691999992,343.1258691999992,343.11037170000054,3,1.5260983999996824,0.2560804000004282,None,,,,,,,,,,,,,,,,2389,1,2025-10-28_16h31.09.017,sm,2024.2.4,59.97947502359374,2025-10-28 16h31.18.476048 +0100,
23,0,23,,,,,,space,3.4770108000011533,None,None,3,1.3119186999992962,0.2230152000011003,None,0,0,0,0,,,,,0,0,0,0,,,,,23,0,23,0,343.1258691999992,,,,,,,,,,,,,,,,,,,,,,,,,,,,,,,,,,,,,,,,,,,,,,,,,,,,,,,,,Tube,3.0044,343.11091470000065,343.1114577999997,343.11156630000005,343.1258691999992,346.142339,346.1267951000009,346.13015350000023,346.142339,346.142339,346.142339,346.142339,348.14225740000074,348.14225740000074,348.14225740000074,348.14225740000074,348.1269907999995,3,1.3119186999992962,0.2230152000011003,None,,,,,,,,,,,,,,,,2389,1,2025-10-28_16h31.09.017,sm,2024.2.4,59.97947502359374,2025-10-28 16h31.18.476048 +0100,
24,0,24,,,,,,space,3.4770108000011533,None,None,2,1.1927799000004597,0.30918320000091626,None,0,0,0,0,,,,,0,0,0,0,,,,,24,0,24,0,348.14225740000074,,,,,,,,,,,,,,,,,,,,,,,,,,,,,,,,,,,,,,,,,,,,,,,,,,,,,,,,,Zeitung,2.1274,348.12750330000017,348.12801559999934,348.12812010000016,348.14225740000074,350.27533829999993,350.2602612999999,350.26432340000065,350.27533829999993,350.27533829999993,350.27533829999993,350.27533829999993,352.2753752000008,352.2753752000008,352.2753752000008,352.2753752000008,352.2601503999995,2,1.1927799000004597,0.30918320000091626,None,,,,,,,,,,,,,,,,2389,1,2025-10-28_16h31.09.017,sm,2024.2.4,59.97947502359374,2025-10-28 16h31.18.476048 +0100,
25,0,25,,,,,,space,3.4770108000011533,None,None,2,1.0490522000000055,0.29451309999967634,None,0,0,0,0,,,,,0,0,0,0,,,,,25,0,25,0,352.2753752000008,,,,,,,,,,,,,,,,,,,,,,,,,,,,,,,,,,,,,,,,,,,,,,,,,,,,,,,,,Beine,3.2626,352.2606541999994,352.26115260000006,352.2612528999998,352.2753752000008,355.54148949999944,355.5258706000004,355.52900299999965,355.54148949999944,355.54148949999944,355.54148949999944,355.54148949999944,357.5417448999997,357.5417448999997,357.5417448999997,357.5417448999997,357.52635530000043,2,1.0490522000000055,0.29451309999967634,None,,,,,,,,,,,,,,,,2389,1,2025-10-28_16h31.09.017,sm,2024.2.4,59.97947502359374,2025-10-28 16h31.18.476048 +0100,
26,0,26,,,,,,space,3.4770108000011533,None,None,2,1.353265800000372,0.27919440000005125,None,0,0,0,0,,,,,0,0,0,0,,,,,26,0,26,0,357.5417448999997,,,,,,,,,,,,,,,,,,,,,,,,,,,,,,,,,,,,,,,,,,,,,,,,,,,,,,,,,Gruppe,3.5885,357.5268594999998,357.5273491000007,357.5274508000002,357.5417448999997,361.14120639999965,361.1258691000003,361.12927619999937,361.14120639999965,361.14120639999965,361.14120639999965,361.14120639999965,363.1412873999998,363.1412873999998,363.1412873999998,363.1412873999998,363.1258877,2,1.353265800000372,0.27919440000005125,None,,,,,,,,,,,,,,,,2389,1,2025-10-28_16h31.09.017,sm,2024.2.4,59.97947502359374,2025-10-28 16h31.18.476048 +0100,
27,0,27,,,,,,space,3.4770108000011533,None,None,3,1.7219007999992755,None,None,0,0,0,0,,,,,0,0,0,0,,,,,27,0,27,0,363.1412873999998,,,,,,,,,,,,,,,,,,,,,,,,,,,,,,,,,,,,,,,,,,,,,,,,,,,,,,,,,Luft,2.2957,363.1263911999995,363.1268966000007,363.12699749999956,363.1412873999998,365.44112210000094,365.42575469999974,365.4300973999998,365.44112210000094,365.44112210000094,365.44112210000094,365.44112210000094,367.4413101000009,367.4413101000009,367.4413101000009,367.4413101000009,367.4256616999992,3,1.7219007999992755,None,None,,,,,,,,,,,,,,,,2389,1,2025-10-28_16h31.09.017,sm,2024.2.4,59.97947502359374,2025-10-28 16h31.18.476048 +0100,
28,0,28,,,,,,space,3.4770108000011533,None,None,3,1.5388660999997228,0.3361280999997689,None,0,0,0,0,,,,,0,0,0,0,,,,,28,0,28,0,367.4413101000009,,,,,,,,,,,,,,,,,,,,,,,,,,,,,,,,,,,,,,,,,,,,,,,,,,,,,,,,,Kälte,2.2986,367.42616869999983,367.42684569999983,367.4269483999997,367.4413101000009,369.7408839,369.7254809999995,369.7292691999992,369.7408839,369.7408839,369.7408839,369.7408839,371.74090570000044,371.74090570000044,371.74090570000044,371.74090570000044,371.7255029000007,3,1.5388660999997228,0.3361280999997689,None,,,,,,,,,,,,,,,,2389,1,2025-10-28_16h31.09.017,sm,2024.2.4,59.97947502359374,2025-10-28 16h31.18.476048 +0100,
29,0,29,,,,,,space,3.4770108000011533,None,None,3,1.733291399999871,0.19850810000025376,None,0,0,0,0,,,,,0,0,0,0,,,,,29,0,29,0,371.74090570000044,,,,,,,,,,,,,,,,,,,,,,,,,,,,,,,,,,,,,,,,,,,,,,,,,,,,,,,,,Zimt,2.1825,371.72601100000065,371.7265308999995,371.7266313,371.74090570000044,373.92404239999996,373.90840919999937,373.9114393,373.92404239999996,373.92404239999996,373.92404239999996,373.92404239999996,375.9240387000009,375.9240387000009,375.9240387000009,375.9240387000009,375.9086327999994,3,1.733291399999871,0.19850810000025376,None,,,,,,,,,,,,,,,,2389,1,2025-10-28_16h31.09.017,sm,2024.2.4,59.97947502359374,2025-10-28 16h31.18.476048 +0100,
30,0,30,,,,,,space,3.4770108000011533,None,None,2,1.170500500000344,0.29714360000070883,None,0,0,0,0,,,,,0,0,0,0,,,,,30,0,30,0,375.9240387000009,,,,,,,,,,,,,,,,,,,,,,,,,,,,,,,,,,,,,,,,,,,,,,,,,,,,,,,,,Wahrheit,2.6028,375.90915270000005,375.9098016000007,375.9099064000002,375.9240387000009,378.54008780000004,378.52480280000054,378.52875180000046,378.54008780000004,378.54008780000004,378.54008780000004,378.54008780000004,380.5403917000003,380.5403917000003,380.5403917000003,380.5403917000003,380.52484619999996,2,1.170500500000344,0.29714360000070883,None,,,,,,,,,,,,,,,,2389,1,2025-10-28_16h31.09.017,sm,2024.2.4,59.97947502359374,2025-10-28 16h31.18.476048 +0100,
31,0,31,,,,,,space,3.4770108000011533,None,None,3,1.3100666999998793,0.4408811000012065,None,0,0,0,0,,,,,0,0,0,0,,,,,31,0,31,0,380.5403917000003,,,,,,,,,,,,,,,,,,,,,,,,,,,,,,,,,,,,,,,,,,,,,,,,,,,,,,,,,Chips,3.4314,380.5253474000001,380.5259905999992,380.5260925999992,380.5403917000003,383.97303570000076,383.95781779999925,383.9634019999994,383.97303570000076,383.97303570000076,383.97303570000076,383.97303570000076,385.97342879999997,385.97342879999997,385.97342879999997,385.97342879999997,385.9579042000005,3,1.3100666999998793,0.4408811000012065,None,,,,,,,,,,,,,,,,2389,1,2025-10-28_16h31.09.017,sm,2024.2.4,59.97947502359374,2025-10-28 16h31.18.476048 +0100,
32,0,32,,,,,,space,3.4770108000011533,None,None,3,1.7752378000004683,None,None,0,0,0,0,,,,,0,0,0,0,,,,,32,0,32,0,385.97342879999997,,,,,,,,,,,,,,,,,,,,,,,,,,,,,,,,,,,,,,,,,,,,,,,,,,,,,,,,,Rebe,3.3064,385.9584042000006,385.95904130000054,385.9591416000003,385.97342879999997,389.2897498000002,389.27377499999966,389.2761623000006,389.2897498000002,389.2897498000002,389.2897498000002,389.2897498000002,391.2896082999996,391.2896082999996,391.2896082999996,391.2896082999996,391.2741924000002,3,1.7752378000004683,None,None,,,,,,,,,,,,,,,,2389,1,2025-10-28_16h31.09.017,sm,2024.2.4,59.97947502359374,2025-10-28 16h31.18.476048 +0100,
33,0,33,,,,,,space,3.4770108000011533,None,None,2,1.1977114000001166,0.24288759999944887,None,0,0,0,0,,,,,0,0,0,0,,,,,33,0,33,0,391.2896082999996,,,,,,,,,,,,,,,,,,,,,,,,,,,,,,,,,,,,,,,,,,,,,,,,,,,,,,,,,Album,3.7784,391.27464730000065,391.27516040000046,391.2752574999995,391.2896082999996,395.0726166000004,395.0570864000001,395.06097989999944,395.0726166000004,395.0726166000004,395.0726166000004,395.0726166000004,397.0732588999999,397.0732588999999,397.0732588999999,397.0732588999999,397.05725300000086,2,1.1977114000001166,0.24288759999944887,None,,,,,,,,,,,,,,,,2389,1,2025-10-28_16h31.09.017,sm,2024.2.4,59.97947502359374,2025-10-28 16h31.18.476048 +0100,
34,0,34,,,,,,space,3.4770108000011533,None,None,3,1.2666422999991482,0.29939790000025823,None,0,0,0,0,,,,,0,0,0,0,,,,,34,0,34,0,397.0732588999999,,,,,,,,,,,,,,,,,,,,,,,,,,,,,,,,,,,,,,,,,,,,,,,,,,,,,,,,,Keller,4.4112,397.05775639999956,397.05834519999917,397.0584495999992,397.0732588999999,401.4889328999998,401.4736338999992,401.4771631000003,401.4889328999998,401.4889328999998,401.4889328999998,401.4889328999998,403.48898240000017,403.48898240000017,403.48898240000017,403.48898240000017,403.4735409999994,3,1.2666422999991482,0.29939790000025823,None,,,,,,,,,,,,,,,,2389,1,2025-10-28_16h31.09.017,sm,2024.2.4,59.97947502359374,2025-10-28 16h31.18.476048 +0100,
35,0,35,,,,,,space,3.4770108000011533,None,None,2,1.657350999999835,None,None,0,0,0,0,,,,,0,0,0,0,,,,,35,0,35,0,403.48898240000017,,,,,,,,,,,,,,,,,,,,,,,,,,,,,,,,,,,,,,,,,,,,,,,,,,,,,,,,,Applaus,3.5643,403.4740930000007,403.4746126000009,403.47471659999974,403.48898240000017,407.0555079000005,407.03969270000016,407.04361079999944,407.0555079000005,407.0555079000005,407.0555079000005,407.0555079000005,409.0554279000007,409.0554279000007,409.0554279000007,409.0554279000007,409.04000300000007,2,1.657350999999835,None,None,,,,,,,,,,,,,,,,2389,1,2025-10-28_16h31.09.017,sm,2024.2.4,59.97947502359374,2025-10-28 16h31.18.476048 +0100,
36,0,36,,,,,,space,3.4770108000011533,None,None,2,1.0137304999989283,0.24235220000082336,None,0,0,0,0,,,,,0,0,0,0,,,,,36,0,36,0,409.0554279000007,,,,,,,,,,,,,,,,,,,,,,,,,,,,,,,,,,,,,,,,,,,,,,,,,,,,,,,,,Ziege,2.3672,409.0405214000002,409.0410678999997,409.04117079999924,409.0554279000007,411.42190970000047,411.40636110000014,411.41032169999926,411.42190970000047,411.42190970000047,411.42190970000047,411.42190970000047,413.4217871000001,413.4217871000001,413.4217871000001,413.4217871000001,413.4063327999993,2,1.0137304999989283,0.24235220000082336,None,,,,,,,,,,,,,,,,2389,1,2025-10-28_16h31.09.017,sm,2024.2.4,59.97947502359374,2025-10-28 16h31.18.476048 +0100,
37,0,37,,,,,,space,3.4770108000011533,None,None,3,1.1658707999995386,0.3040837999997166,None,0,0,0,0,,,,,0,0,0,0,,,,,37,0,37,0,413.4217871000001,,,,,,,,,,,,,,,,,,,,,,,,,,,,,,,,,,,,,,,,,,,,,,,,,,,,,,,,,Marmor,3.2267,413.40683399999944,413.40733569999975,413.4074388000008,413.4217871000001,416.6548755999993,416.6395016999995,416.64346680000017,416.6548755999993,416.6548755999993,416.6548755999993,416.6548755999993,418.65491929999916,418.65491929999916,418.65491929999916,418.65491929999916,418.6392515000007,3,1.1658707999995386,0.3040837999997166,None,,,,,,,,,,,,,,,,2389,1,2025-10-28_16h31.09.017,sm,2024.2.4,59.97947502359374,2025-10-28 16h31.18.476048 +0100,
38,0,38,,,,,,space,3.4770108000011533,None,None,2,1.7505937999994785,None,None,0,0,0,0,,,,,0,0,0,0,,,,,38,0,38,0,418.65491929999916,,,,,,,,,,,,,,,,,,,,,,,,,,,,,,,,,,,,,,,,,,,,,,,,,,,,,,,,,Trocken,2.1326,418.63976980000007,418.6402951,418.6404029999994,418.65491929999916,420.78805119999925,420.7724744999996,420.7760044000006,420.78805119999925,420.78805119999925,420.78805119999925,420.78805119999925,422.78814330000023,422.78814330000023,422.78814330000023,422.78814330000023,422.77251950000027,2,1.7505937999994785,None,None,,,,,,,,,,,,,,,,2389,1,2025-10-28_16h31.09.017,sm,2024.2.4,59.97947502359374,2025-10-28 16h31.18.476048 +0100,
39,0,39,,,,,,space,3.4770108000011533,None,None,2,1.2972090000002936,0.27998610000031476,None,0,0,0,0,,,,,0,0,0,0,,,,,39,0,39,0,422.78814330000023,,,,,,,,,,,,,,,,,,,,,,,,,,,,,,,,,,,,,,,,,,,,,,,,,,,,,,,,,Film,3.6213,422.77302919999966,422.77373369999987,422.77384490000077,422.78814330000023,426.42095300000074,426.4054159999996,426.41020840000056,426.42095300000074,426.42095300000074,426.42095300000074,426.42095300000074,428.42094650000035,428.42094650000035,428.42094650000035,428.42094650000035,428.4055055000008,2,1.2972090000002936,0.27998610000031476,None,,,,,,,,,,,,,,,,2389,1,2025-10-28_16h31.09.017,sm,2024.2.4,59.97947502359374,2025-10-28 16h31.18.476048 +0100,
40,0,40,,,,,,space,3.4770108000011533,None,None,2,1.0750888000002305,0.24217449999923701,None,0,0,0,0,,,,,0,0,0,0,,,,,40,0,40,0,428.42094650000035,,,,,,,,,,,,,,,,,,,,,,,,,,,,,,,,,,,,,,,,,,,,,,,,,,,,,,,,,Essen,3.0121,428.4060074000008,428.4066428999995,428.40674539999964,428.42094650000035,431.4370839000003,431.4221180000004,431.4257094000004,431.4370839000003,431.4370839000003,431.4370839000003,431.4370839000003,433.4373503000006,433.4373503000006,433.4373503000006,433.4373503000006,433.42183379999915,2,1.0750888000002305,0.24217449999923701,None,,,,,,,,,,,,,,,,2389,1,2025-10-28_16h31.09.017,sm,2024.2.4,59.97947502359374,2025-10-28 16h31.18.476048 +0100,
41,0,41,,,,,,space,3.4770108000011533,None,None,2,1.0842213000014453,0.25139579999995476,None,0,0,0,0,,,,,0,0,0,0,,,,,41,0,41,0,433.4373503000006,,,,,,,,,,,,,,,,,,,,,,,,,,,,,,,,,,,,,,,,,,,,,,,,,,,,,,,,,Besucher,3.7635,433.42232590000094,433.42282180000075,433.4229243000009,433.4373503000006,437.2036420000004,437.18814829999974,437.19238269999914,437.2036420000004,437.2036420000004,437.2036420000004,437.2036420000004,439.20340059999944,439.20340059999944,439.20340059999944,439.20340059999944,439.18788400000085,2,1.0842213000014453,0.25139579999995476,None,,,,,,,,,,,,,,,,2389,1,2025-10-28_16h31.09.017,sm,2024.2.4,59.97947502359374,2025-10-28 16h31.18.476048 +0100,
42,0,42,,,,,,space,3.4770108000011533,None,None,3,1.8787460000003193,None,None,0,0,0,0,,,,,0,0,0,0,,,,,42,0,42,0,439.20340059999944,,,,,,,,,,,,,,,,,,,,,,,,,,,,,,,,,,,,,,,,,,,,,,,,,,,,,,,,,Vulkan,2.4888,439.18831259999934,439.1887698999999,439.18885500000033,439.20340059999944,441.7033685999995,441.6879585000006,441.69213859999945,441.7033685999995,441.7033685999995,441.7033685999995,441.7033685999995,443.7034330000006,443.7034330000006,443.7034330000006,443.7034330000006,443.6880213000004,3,1.8787460000003193,None,None,,,,,,,,,,,,,,,,2389,1,2025-10-28_16h31.09.017,sm,2024.2.4,59.97947502359374,2025-10-28 16h31.18.476048 +0100,
43,0,43,,,,,,space,3.4770108000011533,None,None,2,1.0618159000005107,0.2802534000002197,None,0,0,0,0,,,,,0,0,0,0,,,,,43,0,43,0,443.7034330000006,,,,,,,,,,,,,,,,,,,,,,,,,,,,,,,,,,,,,,,,,,,,,,,,,,,,,,,,,Zunge,2.0789,443.6884979999995,443.6890149999999,443.68910940000023,443.7034330000006,445.78646619999927,445.7709408999999,445.77520689999983,445.78646619999927,445.78646619999927,445.78646619999927,445.78646619999927,447.78663849999975,447.78663849999975,447.78663849999975,447.78663849999975,447.77096340000026,2,1.0618159000005107,0.2802534000002197,None,,,,,,,,,,,,,,,,2389,1,2025-10-28_16h31.09.017,sm,2024.2.4,59.97947502359374,2025-10-28 16h31.18.476048 +0100,
44,0,44,,,,,,space,3.4770108000011533,None,None,3,1.1902153000010003,0.23657280000043102,None,0,0,0,0,,,,,0,0,0,0,,,,,44,0,44,0,447.78663849999975,,,,,,,,,,,,,,,,,,,,,,,,,,,,,,,,,,,,,,,,,,,,,,,,,,,,,,,,,Zapfen,3.2106,447.7714670000005,447.7720547000008,447.77216360000057,447.78663849999975,451.00292269999954,450.98744909999914,450.9914807999994,451.00292269999954,451.00292269999954,451.00292269999954,451.00292269999954,453.00286120000055,453.00286120000055,453.00286120000055,453.00286120000055,452.9873172000007,3,1.1902153000010003,0.23657280000043102,None,,,,,,,,,,,,,,,,2389,1,2025-10-28_16h31.09.017,sm,2024.2.4,59.97947502359374,2025-10-28 16h31.18.476048 +0100,
45,0,45,,,,,,space,3.4770108000011533,None,None,3,1.1455012000005809,0.26743159999932686,None,0,0,0,0,,,,,0,0,0,0,,,,,45,0,45,0,453.00286120000055,,,,,,,,,,,,,,,,,,,,,,,,,,,,,,,,,,,,,,,,,,,,,,,,,,,,,,,,,Spaghetti,2.3396,452.9878047000002,452.98831600000085,452.98842370000057,453.00286120000055,455.3527257000005,455.3370410999996,455.34110820000024,455.3527257000005,455.3527257000005,455.3527257000005,455.3527257000005,457.3526144000007,457.3526144000007,457.3526144000007,457.3526144000007,457.3370025000004,3,1.1455012000005809,0.26743159999932686,None,,,,,,,,,,,,,,,,2389,1,2025-10-28_16h31.09.017,sm,2024.2.4,59.97947502359374,2025-10-28 16h31.18.476048 +0100,
46,0,46,,,,,,space,3.4770108000011533,None,None,2,1.5137254000001121,0.28185730000041076,None,0,0,0,0,,,,,0,0,0,0,,,,,46,0,46,0,457.3526144000007,,,,,,,,,,,,,,,,,,,,,,,,,,,,,,,,,,,,,,,,,,,,,,,,,,,,,,,,,Zeichnung,3.309,457.3374741000007,457.33797070000037,457.33807139999954,457.3526144000007,460.6690154000007,460.6535206999997,460.6587073999999,460.6690154000007,460.6690154000007,460.6690154000007,460.6690154000007,462.6691771000005,462.6691771000005,462.6691771000005,462.6691771000005,462.65342969999983,2,1.5137254000001121,0.28185730000041076,None,,,,,,,,,,,,,,,,2389,1,2025-10-28_16h31.09.017,sm,2024.2.4,59.97947502359374,2025-10-28 16h31.18.476048 +0100,
47,0,47,,,,,,space,3.4770108000011533,None,None,3,1.0365768000010576,0.2945609999987937,None,0,0,0,0,,,,,0,0,0,0,,,,,47,0,47,0,462.6691771000005,,,,,,,,,,,,,,,,,,,,,,,,,,,,,,,,,,,,,,,,,,,,,,,,,,,,,,,,,Moor,2.7586,462.6539365000008,462.6544377000009,462.65454209999916,462.6691771000005,465.43543900000077,465.41985059999934,465.4230232000009,465.43543900000077,465.43543900000077,465.43543900000077,465.43543900000077,467.43540140000005,467.43540140000005,467.43540140000005,467.43540140000005,467.4197306999995,3,1.0365768000010576,0.2945609999987937,None,,,,,,,,,,,,,,,,2389,1,2025-10-28_16h31.09.017,sm,2024.2.4,59.97947502359374,2025-10-28 16h31.18.476048 +0100,
48,0,48,,,,,,space,3.4770108000011533,None,None,2,0.9016437999998743,0.2851343000002089,None,0,0,0,0,,,,,0,0,0,0,,,,,48,0,48,0,467.43540140000005,,,,,,,,,,,,,,,,,,,,,,,,,,,,,,,,,,,,,,,,,,,,,,,,,,,,,,,,,Anhänger,2.0249,467.42017940000005,467.4206560999992,467.4207480999994,467.43540140000005,469.4684620000007,469.4525856,469.45628729999953,469.4684620000007,469.4684620000007,469.4684620000007,469.4684620000007,471.4682749000003,471.4682749000003,471.4682749000003,471.4682749000003,471.45306209999944,2,0.9016437999998743,0.2851343000002089,None,,,,,,,,,,,,,,,,2389,1,2025-10-28_16h31.09.017,sm,2024.2.4,59.97947502359374,2025-10-28 16h31.18.476048 +0100,
49,0,49,,,,,,space,3.4770108000011533,None,None,2,0.8503785000011703,0.26705260000017006,None,0,0,0,0,,,,,0,0,0,0,,,,,49,0,49,0,471.4682749000003,,,,,,,,,,,,,,,,,,,,,,,,,,,,,,,,,,,,,,,,,,,,,,,,,,,,,,,,,Wurm,2.4139,471.45357519999925,471.4541423999999,471.4542505999998,471.4682749000003,473.88495970000076,473.86928609999995,473.8723437000008,473.88495970000076,473.88495970000076,473.88495970000076,473.88495970000076,475.8848500999993,475.8848500999993,475.8848500999993,475.8848500999993,475.8693958999993,2,0.8503785000011703,0.26705260000017006,None,,,,,,,,,,,,,,,,2389,1,2025-10-28_16h31.09.017,sm,2024.2.4,59.97947502359374,2025-10-28 16h31.18.476048 +0100,
50,0,50,,,,,,space,3.4770108000011533,None,None,2,1.2470831999999064,0.365420099999028,None,0,0,0,0,,,,,0,0,0,0,,,,,50,0,50,0,475.8848500999993,,,,,,,,,,,,,,,,,,,,,,,,,,,,,,,,,,,,,,,,,,,,,,,,,,,,,,,,,Kerzen,2.123,475.8699075000004,475.87040349999916,475.87050980000095,475.8848500999993,478.0180381000009,478.0023063000008,478.00570100000004,478.0180381000009,478.0180381000009,478.0180381000009,478.0180381000009,480.0179392000009,480.0179392000009,480.0179392000009,480.0179392000009,480.00234140000066,2,1.2470831999999064,0.365420099999028,None,,,,,,,,,,,,,,,,2389,1,2025-10-28_16h31.09.017,sm,2024.2.4,59.97947502359374,2025-10-28 16h31.18.476048 +0100,
51,0,51,,,,,,space,3.4770108000011533,None,None,2,1.4839924000007159,0.250390499999412,None,0,0,0,0,,,,,0,0,0,0,,,,,51,0,51,0,480.0179392000009,,,,,,,,,,,,,,,,,,,,,,,,,,,,,,,,,,,,,,,,,,,,,,,,,,,,,,,,,Anruf,2.0747,480.0028156999997,480.00330199999917,480.0033970000004,480.0179392000009,482.1010127999998,482.0855735999994,482.08952809999937,482.1010127999998,482.1010127999998,482.1010127999998,482.1010127999998,484.1010793000005,484.1010793000005,484.1010793000005,484.1010793000005,484.0856595000005,2,1.4839924000007159,0.250390499999412,None,,,,,,,,,,,,,,,,2389,1,2025-10-28_16h31.09.017,sm,2024.2.4,59.97947502359374,2025-10-28 16h31.18.476048 +0100,
52,0,52,,,,,,space,3.4770108000011533,None,None,2,1.2441665000005742,0.2889524000001984,None,0,0,0,0,,,,,0,0,0,0,,,,,52,0,52,0,484.1010793000005,,,,,,,,,,,,,,,,,,,,,,,,,,,,,,,,,,,,,,,,,,,,,,,,,,,,,,,,,Geschwister,2.6539,484.08615719999943,484.08667419999983,484.08677549999993,484.1010793000005,486.7671602999999,486.7516904999993,486.7555838999997,486.7671602999999,486.7671602999999,486.7671602999999,486.7671602999999,488.76760880000074,488.76760880000074,488.76760880000074,488.76760880000074,488.7519355000004,2,1.2441665000005742,0.2889524000001984,None,,,,,,,,,,,,,,,,2389,1,2025-10-28_16h31.09.017,sm,2024.2.4,59.97947502359374,2025-10-28 16h31.18.476048 +0100,
53,0,53,,,,,,space,3.4770108000011533,None,None,3,1.253290399999969,0.29052169999886246,None,0,0,0,0,,,,,0,0,0,0,,,,,53,0,53,0,488.76760880000074,,,,,,,,,,,,,,,,,,,,,,,,,,,,,,,,,,,,,,,,,,,,,,,,,,,,,,,,,Bett,2.6963,488.75243880000016,488.75311189999957,488.75322380000034,488.76760880000074,491.4670251000007,491.4517878000006,491.4558433000002,491.4670251000007,491.4670251000007,491.4670251000007,491.4670251000007,,,,,493.45304919999944,3,1.253290399999969,0.29052169999886246,None,,,,,,,,,,,,,,,,2389,1,2025-10-28_16h31.09.017,sm,2024.2.4,59.97947502359374,2025-10-28 16h31.18.476048 +0100,
54,0,54,,,,,,space,3.4770108000011533,None,None,2,0.9529824000001099,0.35657440000068163,None,0,0,0,0,,,,,0,0,0,0,,,,,54,0,54,0,493.4670788000003,,,,,,,,,,,,,,,,,,,,,,,,,,,,,,,,,,,,,,,,,,,,,,,,,,,,,,,,,Ehe,2.1217,493.4535178999995,493.4542423999992,493.4543486999992,493.4670788000003,495.60024220000014,495.58489010000085,495.5884626999996,495.60024220000014,495.60024220000014,495.60024220000014,495.60024220000014,497.6004307000003,497.6004307000003,497.6004307000003,497.6004307000003,497.58484040000076,2,0.9529824000001099,0.35657440000068163,None,,,,,,,,,,,,,,,,2389,1,2025-10-28_16h31.09.017,sm,2024.2.4,59.97947502359374,2025-10-28 16h31.18.476048 +0100,
55,0,55,,,,,,space,3.4770108000011533,None,None,2,1.5465067000004638,0.2651114000000234,None,0,0,0,0,,,,,0,0,0,0,,,,,55,0,55,0,497.6004307000003,,,,,,,,,,,,,,,,,,,,,,,,,,,,,,,,,,,,,,,,,,,,,,,,,,,,,,,,,Tradition,2.5603,497.58534839999993,497.58598410000013,497.58608359999926,497.6004307000003,500.1669468,500.1511369,500.15535049999926,500.1669468,500.1669468,500.1669468,500.1669468,502.1670481000001,502.1670481000001,502.1670481000001,502.1670481000001,502.15116839999973,2,1.5465067000004638,0.2651114000000234,None,,,,,,,,,,,,,,,,2389,1,2025-10-28_16h31.09.017,sm,2024.2.4,59.97947502359374,2025-10-28 16h31.18.476048 +0100,
56,0,56,,,,,,space,3.4770108000011533,None,None,3,1.431512200000725,0.28223570000045584,None,0,0,0,0,,,,,0,0,0,0,,,,,56,0,56,0,502.1670481000001,,,,,,,,,,,,,,,,,,,,,,,,,,,,,,,,,,,,,,,,,,,,,,,,,,,,,,,,,Juwel,2.4373,502.1516890999992,502.15219570000045,502.1523001000005,502.1670481000001,504.6160681000001,504.6010370999993,504.60695830000077,504.6160681000001,504.6160681000001,504.6160681000001,504.6160681000001,506.61642570000004,506.61642570000004,506.61642570000004,506.61642570000004,506.6007919999993,3,1.431512200000725,0.28223570000045584,None,,,,,,,,,,,,,,,,2389,1,2025-10-28_16h31.09.017,sm,2024.2.4,59.97947502359374,2025-10-28 16h31.18.476048 +0100,
57,0,57,,,,,,space,3.4770108000011533,None,None,2,1.3727383999994345,0.2527374000001146,None,0,0,0,0,,,,,0,0,0,0,,,,,57,0,57,0,506.61642570000004,,,,,,,,,,,,,,,,,,,,,,,,,,,,,,,,,,,,,,,,,,,,,,,,,,,,,,,,,Blumen,2.3833,506.60129640000014,506.6019378000001,506.60203940000065,506.61642570000004,508.9992480000001,508.9841154000005,508.9879947999998,508.9992480000001,508.9992480000001,508.9992480000001,508.9992480000001,510.99952269999994,510.99952269999994,510.99952269999994,510.99952269999994,510.98368499999924,2,1.3727383999994345,0.2527374000001146,None,,,,,,,,,,,,,,,,2389,1,2025-10-28_16h31.09.017,sm,2024.2.4,59.97947502359374,2025-10-28 16h31.18.476048 +0100,
58,0,58,,,,,,space,3.4770108000011533,None,None,2,1.5079267000000982,0.2923396000005596,None,0,0,0,0,,,,,0,0,0,0,,,,,58,0,58,0,510.99952269999994,,,,,,,,,,,,,,,,,,,,,,,,,,,,,,,,,,,,,,,,,,,,,,,,,,,,,,,,,Vogel,3.6909,510.98414220000086,510.9846140999998,510.98470669999915,510.99952269999994,514.6992107000005,514.6837135000005,514.6874903000007,514.6992107000005,514.6992107000005,514.6992107000005,514.6992107000005,516.6996108999992,516.6996108999992,516.6996108999992,516.6996108999992,516.6837018999995,2,1.5079267000000982,0.2923396000005596,None,,,,,,,,,,,,,,,,2389,1,2025-10-28_16h31.09.017,sm,2024.2.4,59.97947502359374,2025-10-28 16h31.18.476048 +0100,
59,0,59,,,,,,space,3.4770108000011533,None,None,2,1.100127199999406,0.29026490000069316,None,0,0,0,0,,,,,0,0,0,0,,,,,59,0,59,0,516.6996108999992,,,,,,,,,,,,,,,,,,,,,,,,,,,,,,,,,,,,,,,,,,,,,,,,,,,,,,,,,Student,3.1687,516.6842099000005,516.6848718000001,516.6849834000004,516.6996108999992,519.8821958000008,519.8668400999995,519.8719805000001,519.8821958000008,519.8821958000008,519.8821958000008,519.8821958000008,521.8822873999998,521.8822873999998,521.8822873999998,521.8822873999998,521.8666094,2,1.100127199999406,0.29026490000069316,None,,,,,,,,,,,,,,,,2389,1,2025-10-28_16h31.09.017,sm,2024.2.4,59.97947502359374,2025-10-28 16h31.18.476048 +0100,
60,0,60,,,,,,space,3.4770108000011533,None,None,3,1.6981783999999607,None,None,0,0,0,0,,,,,0,0,0,0,,,,,60,0,60,0,521.8822873999998,,,,,,,,,,,,,,,,,,,,,,,,,,,,,,,,,,,,,,,,,,,,,,,,,,,,,,,,,Sicherheit,3.8401,521.8671646999992,521.8676959000004,521.8678051999996,521.8822873999998,525.7318665000003,525.7163672999995,525.7202847999997,525.7318665000003,525.7318665000003,525.7318665000003,525.7318665000003,527.7317414999998,527.7317414999998,527.7317414999998,527.7317414999998,527.7163216000008,3,1.6981783999999607,None,None,,,,,,,,,,,,,,,,2389,1,2025-10-28_16h31.09.017,sm,2024.2.4,59.97947502359374,2025-10-28 16h31.18.476048 +0100,
61,0,61,,,,,,space,3.4770108000011533,None,None,2,0.9470922999989853,0.31713459999991755,None,0,0,0,0,,,,,0,0,0,0,,,,,61,0,61,0,527.7317414999998,,,,,,,,,,,,,,,,,,,,,,,,,,,,,,,,,,,,,,,,,,,,,,,,,,,,,,,,,Rose,2.5782,527.7168311000005,527.7173321999999,527.7174433,527.7317414999998,530.3150286,530.2995917999997,530.3028243000008,530.3150286,530.3150286,530.3150286,530.3150286,532.3148626999991,532.3148626999991,532.3148626999991,532.3148626999991,532.299239,2,0.9470922999989853,0.31713459999991755,None,,,,,,,,,,,,,,,,2389,1,2025-10-28_16h31.09.017,sm,2024.2.4,59.97947502359374,2025-10-28 16h31.18.476048 +0100,
62,0,62,,,,,,space,3.4770108000011533,None,None,2,1.7942173999999795,None,None,0,0,0,0,,,,,0,0,0,0,,,,,62,0,62,0,532.3148626999991,,,,,,,,,,,,,,,,,,,,,,,,,,,,,,,,,,,,,,,,,,,,,,,,,,,,,,,,,Geschäft,2.5469,532.2997068999994,532.3002462000004,532.3003389999994,532.3148626999991,534.8646845999992,534.8490621000001,534.8527847000005,534.8646845999992,534.8646845999992,534.8646845999992,534.8646845999992,536.8646466000009,536.8646466000009,536.8646466000009,536.8646466000009,536.8492466999996,2,1.7942173999999795,None,None,,,,,,,,,,,,,,,,2389,1,2025-10-28_16h31.09.017,sm,2024.2.4,59.97947502359374,2025-10-28 16h31.18.476048 +0100,
63,0,63,,,,,,space,3.4770108000011533,None,None,2,1.276300600000468,0.3691836999987572,None,0,0,0,0,,,,,0,0,0,0,,,,,63,0,63,0,536.8646466000009,,,,,,,,,,,,,,,,,,,,,,,,,,,,,,,,,,,,,,,,,,,,,,,,,,,,,,,,,Spion,2.2379,536.8497573000004,536.8503012000001,536.8504028000007,536.8646466000009,539.1145637000009,539.0988799000006,539.1025769000007,539.1145637000009,539.1145637000009,539.1145637000009,539.1145637000009,541.1144220000006,541.1144220000006,541.1144220000006,541.1144220000006,541.0988615999995,2,1.276300600000468,0.3691836999987572,None,,,,,,,,,,,,,,,,2389,1,2025-10-28_16h31.09.017,sm,2024.2.4,59.97947502359374,2025-10-28 16h31.18.476048 +0100,
64,0,64,,,,,,space,3.4770108000011533,None,None,2,0.909823599999072,0.2802620000002207,None,0,0,0,0,,,,,0,0,0,0,,,,,64,0,64,0,541.1144220000006,,,,,,,,,,,,,,,,,,,,,,,,,,,,,,,,,,,,,,,,,,,,,,,,,,,,,,,,,Glück,4.5336,541.0993675000009,541.1000043000004,541.1001047999998,541.1144220000006,545.6473671000003,545.6318575000005,545.6356257000007,545.6473671000003,545.6473671000003,545.6473671000003,545.6473671000003,547.6474617999993,547.6474617999993,547.6474617999993,547.6474617999993,547.6318601000003,2,0.909823599999072,0.2802620000002207,None,,,,,,,,,,,,,,,,2389,1,2025-10-28_16h31.09.017,sm,2024.2.4,59.97947502359374,2025-10-28 16h31.18.476048 +0100,
65,0,65,,,,,,space,3.4770108000011533,None,None,2,1.0047524999990856,0.2871019000012893,None,0,0,0,0,,,,,0,0,0,0,,,,,65,0,65,0,547.6474617999993,,,,,,,,,,,,,,,,,,,,,,,,,,,,,,,,,,,,,,,,,,,,,,,,,,,,,,,,,Lied,3.5175,547.6323608000002,547.6329962,547.6330975000001,547.6474617999993,551.1804984000009,551.1649061999997,551.1685607,551.1804984000009,551.1804984000009,551.1804984000009,551.1804984000009,553.1801723999997,553.1801723999997,553.1801723999997,553.1801723999997,553.1648330999997,2,1.0047524999990856,0.2871019000012893,None,,,,,,,,,,,,,,,,2389,1,2025-10-28_16h31.09.017,sm,2024.2.4,59.97947502359374,2025-10-28 16h31.18.476048 +0100,
66,0,66,,,,,,space,3.4770108000011533,None,None,2,0.8503400999998121,0.28443960000004154,None,0,0,0,0,,,,,0,0,0,0,,,,,66,0,66,0,553.1801723999997,,,,,,,,,,,,,,,,,,,,,,,,,,,,,,,,,,,,,,,,,,,,,,,,,,,,,,,,,Gesicht,2.4676,553.1653375999995,553.1658463000003,553.1659483000003,553.1801723999997,555.6463722999997,555.6311494000001,555.6365800000003,555.6463722999997,555.6463722999997,555.6463722999997,555.6463722999997,557.6471213000004,557.6471213000004,557.6471213000004,557.6471213000004,557.6313671000007,2,0.8503400999998121,0.28443960000004154,None,,,,,,,,,,,,,,,,2389,1,2025-10-28_16h31.09.017,sm,2024.2.4,59.97947502359374,2025-10-28 16h31.18.476048 +0100,
67,0,67,,,,,,space,3.4770108000011533,None,None,2,1.0118766000014148,0.28530249999857915,None,0,0,0,0,,,,,0,0,0,0,,,,,67,0,67,0,557.6471213000004,,,,,,,,,,,,,,,,,,,,,,,,,,,,,,,,,,,,,,,,,,,,,,,,,,,,,,,,,Tischler,2.8005,557.6318721000007,557.6323886000009,557.6324920000006,557.6471213000004,560.4464800999995,560.4311603999995,560.4355825000002,560.4464800999995,560.4464800999995,560.4464800999995,560.4464800999995,562.4466818000001,562.4466818000001,562.4466818000001,562.4466818000001,562.4309395,2,1.0118766000014148,0.28530249999857915,None,,,,,,,,,,,,,,,,2389,1,2025-10-28_16h31.09.017,sm,2024.2.4,59.97947502359374,2025-10-28 16h31.18.476048 +0100,
68,0,68,,,,,,space,3.4770108000011533,None,None,2,1.4045741000009002,0.19091350000053353,None,0,0,0,0,,,,,0,0,0,0,,,,,68,0,68,0,562.4466818000001,,,,,,,,,,,,,,,,,,,,,,,,,,,,,,,,,,,,,,,,,,,,,,,,,,,,,,,,,Haare,3.2035,562.4314687999995,562.4320155000005,562.4321333999997,562.4466818000001,565.6631775999995,565.6471729000004,565.6507892999998,565.6631775999995,565.6631775999995,565.6631775999995,565.6631775999995,567.6628844000006,567.6628844000006,567.6628844000006,567.6628844000006,567.6473311999998,2,1.4045741000009002,0.19091350000053353,None,,,,,,,,,,,,,,,,2389,1,2025-10-28_16h31.09.017,sm,2024.2.4,59.97947502359374,2025-10-28 16h31.18.476048 +0100,
69,0,69,,,,,,space,3.4770108000011533,None,None,2,1.7783252999997785,None,None,0,0,0,0,,,,,0,0,0,0,,,,,69,0,69,0,567.6628844000006,,,,,,,,,,,,,,,,,,,,,,,,,,,,,,,,,,,,,,,,,,,,,,,,,,,,,,,,,Fliegen,3.5399,567.6478422,567.6483497000008,567.6484516,567.6628844000006,571.2126126999992,571.1967922999993,571.2007804000004,571.2126126999992,571.2126126999992,571.2126126999992,571.2126126999992,573.2124805000003,573.2124805000003,573.2124805000003,573.2124805000003,573.1970650999992,2,1.7783252999997785,None,None,,,,,,,,,,,,,,,,2389,1,2025-10-28_16h31.09.017,sm,2024.2.4,59.97947502359374,2025-10-28 16h31.18.476048 +0100,
70,0,70,,,,,,space,3.4770108000011533,None,None,3,0.837020199998733,0.7756237000012334,None,0,0,0,0,,,,,0,0,0,0,,,,,70,0,70,0,573.2124805000003,,,,,,,,,,,,,,,,,,,,,,,,,,,,,,,,,,,,,,,,,,,,,,,,,,,,,,,,,Hemd,3.5038,573.1975583999993,573.1980913000007,573.1981985999992,573.2124805000003,576.7290587999996,576.7130250000009,576.7157989999996,576.7290587999996,576.7290587999996,576.7290587999996,576.7290587999996,578.7288979000004,578.7288979000004,578.7288979000004,578.7288979000004,578.7134616000003,3,0.837020199998733,0.7756237000012334,None,,,,,,,,,,,,,,,,2389,1,2025-10-28_16h31.09.017,sm,2024.2.4,59.97947502359374,2025-10-28 16h31.18.476048 +0100,
71,0,71,,,,,,space,3.4770108000011533,None,None,3,1.5867665000005218,0.2691426000001229,None,0,0,0,0,,,,,0,0,0,0,,,,,71,0,71,0,578.7288979000004,,,,,,,,,,,,,,,,,,,,,,,,,,,,,,,,,,,,,,,,,,,,,,,,,,,,,,,,,Saft,3.0813,578.7139659999993,578.7146028999996,578.7147055999994,578.7288979000004,581.8119384000001,581.7965156000009,581.7999357999997,581.8119384000001,581.8119384000001,581.8119384000001,581.8119384000001,583.8120287000002,583.8120287000002,583.8120287000002,583.8120287000002,583.7964585999998,3,1.5867665000005218,0.2691426000001229,None,,,,,,,,,,,,,,,,2389,1,2025-10-28_16h31.09.017,sm,2024.2.4,59.97947502359374,2025-10-28 16h31.18.476048 +0100,
72,0,72,,,,,,space,3.4770108000011533,None,None,3,1.9122698000010132,None,None,0,0,0,0,,,,,0,0,0,0,,,,,72,0,72,0,583.8120287000002,,,,,,,,,,,,,,,,,,,,,,,,,,,,,,,,,,,,,,,,,,,,,,,,,,,,,,,,,Sauber,4.0256,583.7969630999996,583.7976075000006,583.7977111,583.8120287000002,587.8446356999993,587.8291327000006,587.8333478000004,587.8446356999993,587.8446356999993,587.8446356999993,587.8446356999993,589.8450243999996,589.8450243999996,589.8450243999996,589.8450243999996,589.8295498000007,3,1.9122698000010132,None,None,,,,,,,,,,,,,,,,2389,1,2025-10-28_16h31.09.017,sm,2024.2.4,59.97947502359374,2025-10-28 16h31.18.476048 +0100,
73,0,73,,,,,,space,3.4770108000011533,None,None,2,0.9598405000015191,0.3079818999995041,None,0,0,0,0,,,,,0,0,0,0,,,,,73,0,73,0,589.8450243999996,,,,,,,,,,,,,,,,,,,,,,,,,,,,,,,,,,,,,,,,,,,,,,,,,,,,,,,,,Schule,4.4384,589.8300378999993,589.8306487000009,589.8307457999999,589.8450243999996,594.2945646000007,594.2788352999996,594.2823353000003,594.2945646000007,594.2945646000007,594.2945646000007,594.2945646000007,596.2944771999992,596.2944771999992,596.2944771999992,596.2944771999992,596.2789988000004,2,0.9598405000015191,0.3079818999995041,None,,,,,,,,,,,,,,,,2389,1,2025-10-28_16h31.09.017,sm,2024.2.4,59.97947502359374,2025-10-28 16h31.18.476048 +0100,
74,0,74,,,,,,space,3.4770108000011533,None,None,2,1.809582899999441,None,None,0,0,0,0,,,,,0,0,0,0,,,,,74,0,74,0,596.2944771999992,,,,,,,,,,,,,,,,,,,,,,,,,,,,,,,,,,,,,,,,,,,,,,,,,,,,,,,,,Ordner,2.3365,596.2794888000008,596.2801271999997,596.2802312000003,596.2944771999992,598.6440695000001,598.6282511000009,598.6314886,598.6440695000001,598.6440695000001,598.6440695000001,598.6440695000001,600.6442898000005,600.6442898000005,600.6442898000005,600.6442898000005,600.6289331999997,2,1.809582899999441,None,None,,,,,,,,,,,,,,,,2389,1,2025-10-28_16h31.09.017,sm,2024.2.4,59.97947502359374,2025-10-28 16h31.18.476048 +0100,
75,0,75,,,,,,space,3.4770108000011533,None,None,2,1.8394604999994044,None,None,0,0,0,0,,,,,0,0,0,0,,,,,75,0,75,0,600.6442898000005,,,,,,,,,,,,,,,,,,,,,,,,,,,,,,,,,,,,,,,,,,,,,,,,,,,,,,,,,Gelenk,2.1386,600.6294292000002,600.6299901999992,600.6300971000001,600.6442898000005,602.7941480000009,602.7784850999997,602.7818258000007,602.7941480000009,602.7941480000009,602.7941480000009,602.7941480000009,604.793979,604.793979,604.793979,604.793979,604.7786471,2,1.8394604999994044,None,None,,,,,,,,,,,,,,,,2389,1,2025-10-28_16h31.09.017,sm,2024.2.4,59.97947502359374,2025-10-28 16h31.18.476048 +0100,
76,0,76,,,,,,space,3.4770108000011533,None,None,2,1.2720945000000938,0.27267939999910595,None,0,0,0,0,,,,,0,0,0,0,,,,,76,0,76,0,604.793979,,,,,,,,,,,,,,,,,,,,,,,,,,,,,,,,,,,,,,,,,,,,,,,,,,,,,,,,,Fahrrad,4.7442,604.7791539000009,604.7798325000003,604.7799347,604.793979,609.5434397000008,609.5279728999994,609.5318886999994,609.5434397000008,609.5434397000008,609.5434397000008,609.5434397000008,611.5435256000001,611.5435256000001,611.5435256000001,611.5435256000001,611.5282014999993,2,1.2720945000000938,0.27267939999910595,None,,,,,,,,,,,,,,,,2389,1,2025-10-28_16h31.09.017,sm,2024.2.4,59.97947502359374,2025-10-28 16h31.18.476048 +0100,
77,0,77,,,,,,space,3.4770108000011533,None,None,2,1.6616653000000952,0.2816567000008945,None,0,0,0,0,,,,,0,0,0,0,,,,,77,0,77,0,611.5435256000001,,,,,,,,,,,,,,,,,,,,,,,,,,,,,,,,,,,,,,,,,,,,,,,,,,,,,,,,,Vampir,2.1952,611.52873,611.5292566000007,611.5293609,611.5435256000001,613.7433407000008,613.7281650999994,613.7319332999996,613.7433407000008,613.7433407000008,613.7433407000008,613.7433407000008,615.7437938999992,615.7437938999992,615.7437938999992,615.7437938999992,615.7279546000009,2,1.6616653000000952,0.2816567000008945,None,,,,,,,,,,,,,,,,2389,1,2025-10-28_16h31.09.017,sm,2024.2.4,59.97947502359374,2025-10-28 16h31.18.476048 +0100,
78,0,78,,,,,,space,3.4770108000011533,None,None,None,,,None,0,0,0,0,,,,,0,0,0,0,,,,,78,0,78,0,615.7437938999992,,,,,,,,,,,,,,,,,,,,,,,,,,,,,,,,,,,,,,,,,,,,,,,,,,,,,,,,,Schlüssel,2.5282,615.7284550000004,615.7289591999997,615.7290599999997,615.7437938999992,618.2765440999992,618.2608626000001,618.2662818000008,618.2765440999992,618.2765440999992,618.2765440999992,618.2765440999992,620.2764592000003,620.2764592000003,620.2764592000003,620.2764592000003,620.2608744999998,None,,,None,,,,,,,,,,,,,,,,2389,1,2025-10-28_16h31.09.017,sm,2024.2.4,59.97947502359374,2025-10-28 16h31.18.476048 +0100,
79,0,79,,,,,,space,3.4770108000011533,None,None,3,1.0664140999997471,0.3399305999992066,None,0,0,0,0,,,,,0,0,0,0,,,,,79,0,79,0,620.2764592000003,,,,,,,,,,,,,,,,,,,,,,,,,,,,,,,,,,,,,,,,,,,,,,,,,,,,,,,,,Gleis,2.8989,620.2613529999999,620.2618445999997,620.2619508000007,620.2764592000003,623.1762259000006,623.1607812000002,623.1649696000004,623.1762259000006,623.1762259000006,623.1762259000006,623.1762259000006,625.1890344000003,625.1890344000003,625.1890344000003,625.1890344000003,625.1606893999997,3,1.0664140999997471,0.3399305999992066,None,,,,,,,,,,,,,,,,2389,1,2025-10-28_16h31.09.017,sm,2024.2.4,59.97947502359374,2025-10-28 16h31.18.476048 +0100,
0,0,0,,,,,3.0813,space,1.7032913000002736,None,None,2,1.639620099998865,0.2662744000008388,None,0,0,0,0,,,,,1,0,1,0,0,79,79,1,0,0,0,0,672.0735170000007,,,,,,,,,,,,,,,,,,,,,,,,,,,,,,,,,,,,645.8656358999997,645.8659170999999,645.8737225000004,645.8773870999994,645.8773870999994,647.5933157,space,1.7032913000002736,None,647.5934706999997,647.6080972,647.6080972,660.0592641000003,None,660.0661971999998,660.0737773000001,660.0746753666665,661.2844815999997,670.0735703666671,671.0843753999998,672.0579414000003,Knöchel,3.0813,672.0594416000004,672.0601021000002,672.0602134000001,672.0735170000007,675.1566739999998,675.1407854000008,675.1442148000006,675.1566739999998,675.1566739999998,675.1566739999998,675.1566739999998,677.1565406999998,677.1565406999998,677.1565406999998,677.1565406999998,677.1407393000009,2,1.639620099998865,0.2662744000008388,None,637.1757539000009,637.1758164999992,None,637.1834624999992,637.1918389999992,641.1921459999994,641.1921459999994,641.1921459999994,645.8085499000008,3,4.608712200000809,None,672.0735170000007,,,2389,1,2025-10-28_16h31.09.017,sm,2024.2.4,59.97947502359374,2025-10-28 16h31.18.476048 +0100,
1,0,1,,,,,,space,1.7032913000002736,None,None,3,1.27117250000083,0.3199867000002996,None,0,0,0,0,,,,,1,0,1,0,,,,,1,0,1,0,677.1565406999998,,,,,,,,,,,,,,,,,,,,,,,,,,,,,,,,,,,,,,,,,,,,,,,,,,,,,,,,,Schreibtisch,2.5282,677.1412216999997,677.1417172000001,677.1418135000004,677.1565406999998,679.6894073999993,679.6740430999998,679.6781656999992,679.6894073999993,679.6894073999993,679.6894073999993,679.6894073999993,681.6901338000007,681.6901338000007,681.6901338000007,681.6901338000007,681.6741772000005,3,1.27117250000083,0.3199867000002996,None,,,,,,,,,,,,,,,,2389,1,2025-10-28_16h31.09.017,sm,2024.2.4,59.97947502359374,2025-10-28 16h31.18.476048 +0100,
2,0,2,,,,,,space,1.7032913000002736,None,None,2,1.291202799999155,0.29216470000028494,None,0,0,0,0,,,,,1,0,1,0,,,,,2,0,2,0,681.6901338000007,,,,,,,,,,,,,,,,,,,,,,,,,,,,,,,,,,,,,,,,,,,,,,,,,,,,,,,,,Sprache,2.7918,681.6746793999991,681.6754080999999,681.6755133999995,681.6901338000007,684.4891865000009,684.4736646000001,684.4771550999994,684.4891865000009,684.4891865000009,684.4891865000009,684.4891865000009,686.4894686999996,686.4894686999996,686.4894686999996,686.4894686999996,686.4738044999995,2,1.291202799999155,0.29216470000028494,None,,,,,,,,,,,,,,,,2389,1,2025-10-28_16h31.09.017,sm,2024.2.4,59.97947502359374,2025-10-28 16h31.18.476048 +0100,
3,0,3,,,,,,space,1.7032913000002736,None,None,2,1.3023357000001852,0.5608594999994239,None,0,0,0,0,,,,,1,0,1,0,,,,,3,0,3,0,686.4894686999996,,,,,,,,,,,,,,,,,,,,,,,,,,,,,,,,,,,,,,,,,,,,,,,,,,,,,,,,,Schutz,2.3833,686.4743032999995,686.4749503000003,686.4750523999992,686.4894686999996,688.8724478000004,688.8572600000007,688.8610091999999,688.8724478000004,688.8724478000004,688.8724478000004,688.8724478000004,690.8725226000006,690.8725226000006,690.8725226000006,690.8725226000006,690.8568606999997,2,1.3023357000001852,0.5608594999994239,None,,,,,,,,,,,,,,,,2389,1,2025-10-28_16h31.09.017,sm,2024.2.4,59.97947502359374,2025-10-28 16h31.18.476048 +0100,
4,0,4,,,,,,space,1.7032913000002736,None,None,3,1.0720940999999584,0.3267999999989115,None,0,0,0,0,,,,,1,0,1,0,,,,,4,0,4,0,690.8725226000006,,,,,,,,,,,,,,,,,,,,,,,,,,,,,,,,,,,,,,,,,,,,,,,,,,,,,,,,,Dorn,3.6689,690.8573295999995,690.8578182000001,690.8579167000007,690.8725226000006,694.5555528999994,694.5398330000007,694.5433921000003,694.5555528999994,694.5555528999994,694.5555528999994,694.5555528999994,696.5553156999995,696.5553156999995,696.5553156999995,696.5553156999995,696.5399887000003,3,1.0720940999999584,0.3267999999989115,None,,,,,,,,,,,,,,,,2389,1,2025-10-28_16h31.09.017,sm,2024.2.4,59.97947502359374,2025-10-28 16h31.18.476048 +0100,
5,0,5,,,,,,space,1.7032913000002736,None,None,3,1.7115580000008777,0.23495189999994182,None,0,0,0,0,,,,,1,0,1,0,,,,,5,0,5,0,696.5553156999995,,,,,,,,,,,,,,,,,,,,,,,,,,,,,,,,,,,,,,,,,,,,,,,,,,,,,,,,,Vers,3.0121,696.5404995999997,696.5410033999997,696.5411053000007,696.5553156999995,699.5717800999992,699.5565471000009,699.5597878000008,699.5717800999992,699.5717800999992,699.5717800999992,699.5717800999992,701.5717961999999,701.5717961999999,701.5717961999999,701.5717961999999,701.5560602999994,3,1.7115580000008777,0.23495189999994182,None,,,,,,,,,,,,,,,,2389,1,2025-10-28_16h31.09.017,sm,2024.2.4,59.97947502359374,2025-10-28 16h31.18.476048 +0100,
6,0,6,,,,,,space,1.7032913000002736,None,None,2,1.2895064999993338,0.2811013999998977,None,0,0,0,0,,,,,1,0,1,0,,,,,6,0,6,0,701.5717961999999,,,,,,,,,,,,,,,,,,,,,,,,,,,,,,,,,,,,,,,,,,,,,,,,,,,,,,,,,Farbe,2.4139,701.5564642000008,701.5569190000006,701.5569983000005,701.5717961999999,703.9882261000002,703.9728054000007,703.9766650000001,703.9882261000002,703.9882261000002,703.9882261000002,703.9882261000002,705.9884251000003,705.9884251000003,705.9884251000003,705.9884251000003,705.9726272999997,2,1.2895064999993338,0.2811013999998977,None,,,,,,,,,,,,,,,,2389,1,2025-10-28_16h31.09.017,sm,2024.2.4,59.97947502359374,2025-10-28 16h31.18.476048 +0100,
7,0,7,,,,,,space,1.7032913000002736,None,None,3,1.0125785000000178,0.24491169999964768,None,0,0,0,0,,,,,1,0,1,0,,,,,7,0,7,0,705.9884251000003,,,,,,,,,,,,,,,,,,,,,,,,,,,,,,,,,,,,,,,,,,,,,,,,,,,,,,,,,Tal,2.348,705.9731045999997,705.9736051,705.9737007000003,705.9884251000003,708.3379585999992,708.3220356000002,708.3250865000009,708.3379585999992,708.3379585999992,708.3379585999992,708.3379585999992,710.3381559999998,710.3381559999998,710.3381559999998,710.3381559999998,710.3224647999996,3,1.0125785000000178,0.24491169999964768,None,,,,,,,,,,,,,,,,2389,1,2025-10-28_16h31.09.017,sm,2024.2.4,59.97947502359374,2025-10-28 16h31.18.476048 +0100,
8,0,8,,,,,,space,1.7032913000002736,None,None,3,1.1935047999995732,0.2580346000013378,None,0,0,0,0,,,,,1,0,1,0,,,,,8,0,8,0,710.3381559999998,,,,,,,,,,,,,,,,,,,,,,,,,,,,,,,,,,,,,,,,,,,,,,,,,,,,,,,,,Ausbruch,2.5121,710.3229726999998,710.3236092000006,710.3237107999994,710.3381559999998,712.8543700999999,712.8388732999992,712.8431913999993,712.8543700999999,712.8543700999999,712.8543700999999,712.8543700999999,714.8544528000002,714.8544528000002,714.8544528000002,714.8544528000002,714.8388606999997,3,1.1935047999995732,0.2580346000013378,None,,,,,,,,,,,,,,,,2389,1,2025-10-28_16h31.09.017,sm,2024.2.4,59.97947502359374,2025-10-28 16h31.18.476048 +0100,
9,0,9,,,,,,space,1.7032913000002736,None,None,3,1.1895590999993146,0.2706293999999616,None,0,0,0,0,,,,,1,0,1,0,,,,,9,0,9,0,714.8544528000002,,,,,,,,,,,,,,,,,,,,,,,,,,,,,,,,,,,,,,,,,,,,,,,,,,,,,,,,,Diamant,2.4876,714.8393615999994,714.8400206000006,714.8401207999996,714.8544528000002,717.3546967999991,717.3386365999995,717.3424190000005,717.3546967999991,717.3546967999991,717.3546967999991,717.3546967999991,719.3540819000009,719.3540819000009,719.3540819000009,719.3540819000009,719.3386444999996,3,1.1895590999993146,0.2706293999999616,None,,,,,,,,,,,,,,,,2389,1,2025-10-28_16h31.09.017,sm,2024.2.4,59.97947502359374,2025-10-28 16h31.18.476048 +0100,
10,0,10,,,,,,space,1.7032913000002736,None,None,2,1.0239983999999822,0.29636310000023514,None,0,0,0,0,,,,,1,0,1,0,,,,,10,0,10,0,719.3540819000009,,,,,,,,,,,,,,,,,,,,,,,,,,,,,,,,,,,,,,,,,,,,,,,,,,,,,,,,,Club,2.2302,719.3391480999999,719.3397239000005,719.3398250000009,719.3540819000009,721.5867734999993,721.5715533000002,721.5754813000003,721.5867734999993,721.5867734999993,721.5867734999993,721.5867734999993,723.587184,723.587184,723.587184,723.587184,723.5717215000004,2,1.0239983999999822,0.29636310000023514,None,,,,,,,,,,,,,,,,2389,1,2025-10-28_16h31.09.017,sm,2024.2.4,59.97947502359374,2025-10-28 16h31.18.476048 +0100,
11,0,11,,,,,,space,1.7032913000002736,None,None,2,1.0252518000015698,0.45121279999875696,None,0,0,0,0,,,,,1,0,1,0,,,,,11,0,11,0,723.587184,,,,,,,,,,,,,,,,,,,,,,,,,,,,,,,,,,,,,,,,,,,,,,,,,,,,,,,,,Wissen,4.5336,723.5722325999996,723.5727349999997,723.5728373000002,723.587184,728.1201388999998,728.1047228000007,728.1088614,728.1201388999998,728.1201388999998,728.1201388999998,728.1201388999998,730.1201533000003,730.1201533000003,730.1201533000003,730.1201533000003,730.1046198000004,2,1.0252518000015698,0.45121279999875696,None,,,,,,,,,,,,,,,,2389,1,2025-10-28_16h31.09.017,sm,2024.2.4,59.97947502359374,2025-10-28 16h31.18.476048 +0100,
12,0,12,,,,,,space,1.7032913000002736,None,None,None,,,None,0,0,0,0,,,,,1,0,1,0,,,,,12,0,12,0,730.1201533000003,,,,,,,,,,,,,,,,,,,,,,,,,,,,,,,,,,,,,,,,,,,,,,,,,,,,,,,,,Blatt,3.2267,730.1051545999999,730.1056470000003,730.1057564999992,730.1201533000003,733.3529350999997,733.3376351000006,733.3410545999996,733.3529350999997,733.3529350999997,733.3529350999997,733.3529350999997,735.3531315,735.3531315,735.3531315,735.3531315,735.3378312999994,None,,,None,,,,,,,,,,,,,,,,2389,1,2025-10-28_16h31.09.017,sm,2024.2.4,59.97947502359374,2025-10-28 16h31.18.476048 +0100,
13,0,13,,,,,,space,1.7032913000002736,None,None,2,0.7749461999992491,0.2483265000009851,None,0,0,0,0,,,,,1,0,1,0,,,,,13,0,13,0,735.3531315,,,,,,,,,,,,,,,,,,,,,,,,,,,,,,,,,,,,,,,,,,,,,,,,,,,,,,,,,Safari,2.5603,735.3383116999994,735.3388276000005,735.3389277999995,735.3531315,737.9196441000004,737.9039954,737.9074094000007,737.9196441000004,737.9196441000004,737.9196441000004,737.9196441000004,739.9193596000005,739.9193596000005,739.9193596000005,739.9193596000005,739.9041371999992,2,0.7749461999992491,0.2483265000009851,None,,,,,,,,,,,,,,,,2389,1,2025-10-28_16h31.09.017,sm,2024.2.4,59.97947502359374,2025-10-28 16h31.18.476048 +0100,
14,0,14,,,,,,space,1.7032913000002736,None,None,2,1.175594500000443,0.2487347000005684,None,0,0,0,0,,,,,1,0,1,0,,,,,14,0,14,0,739.9193596000005,,,,,,,,,,,,,,,,,,,,,,,,,,,,,,,,,,,,,,,,,,,,,,,,,,,,,,,,,Schleim,4.4112,739.9046505000006,739.9051619000002,739.9052644000003,739.9193596000005,744.3359354999993,744.3205507000002,744.3247160999999,744.3359354999993,744.3359354999993,744.3359354999993,744.3359354999993,746.3363241000006,746.3363241000006,746.3363241000006,746.3363241000006,746.3204974,2,1.175594500000443,0.2487347000005684,None,,,,,,,,,,,,,,,,2389,1,2025-10-28_16h31.09.017,sm,2024.2.4,59.97947502359374,2025-10-28 16h31.18.476048 +0100,
15,0,15,,,,,,space,1.7032913000002736,None,None,3,1.5821663000006083,0.24834569999984524,None,0,0,0,0,,,,,1,0,1,0,,,,,15,0,15,0,746.3363241000006,,,,,,,,,,,,,,,,,,,,,,,,,,,,,,,,,,,,,,,,,,,,,,,,,,,,,,,,,Helm,2.1952,746.3210075000006,746.3215246,746.3216266,746.3363241000006,748.5356095000006,748.5199539000005,748.5231315000001,748.5356095000006,748.5356095000006,748.5356095000006,748.5356095000006,750.5361293999995,750.5361293999995,750.5361293999995,750.5361293999995,750.5200710000008,3,1.5821663000006083,0.24834569999984524,None,,,,,,,,,,,,,,,,2389,1,2025-10-28_16h31.09.017,sm,2024.2.4,59.97947502359374,2025-10-28 16h31.18.476048 +0100,
16,0,16,,,,,,space,1.7032913000002736,None,None,3,0.9132595000010042,0.24029390000032436,None,0,0,0,0,,,,,1,0,1,0,,,,,16,0,16,0,750.5361293999995,,,,,,,,,,,,,,,,,,,,,,,,,,,,,,,,,,,,,,,,,,,,,,,,,,,,,,,,,Kante,3.7784,750.5204782000001,750.5211689999996,750.5212496000004,750.5361293999995,754.3190362000005,754.3027896999993,754.3063173999999,754.3190362000005,754.3190362000005,754.3190362000005,754.3190362000005,756.3185109999995,756.3185109999995,756.3185109999995,756.3185109999995,756.3031833999994,3,0.9132595000010042,0.24029390000032436,None,,,,,,,,,,,,,,,,2389,1,2025-10-28_16h31.09.017,sm,2024.2.4,59.97947502359374,2025-10-28 16h31.18.476048 +0100,
17,0,17,,,,,,space,1.7032913000002736,None,None,3,1.4469519000012951,None,None,0,0,0,0,,,,,1,0,1,0,,,,,17,0,17,0,756.3185109999995,,,,,,,,,,,,,,,,,,,,,,,,,,,,,,,,,,,,,,,,,,,,,,,,,,,,,,,,,Shampoo,3.5399,756.3037208999995,756.3042695999993,756.3043748,756.3185109999995,759.8679229999998,759.8526062000001,759.8568546000006,759.8679229999998,759.8679229999998,759.8679229999998,759.8679229999998,761.8683412999999,761.8683412999999,761.8683412999999,761.8683412999999,761.8529228999996,3,1.4469519000012951,None,None,,,,,,,,,,,,,,,,2389,1,2025-10-28_16h31.09.017,sm,2024.2.4,59.97947502359374,2025-10-28 16h31.18.476048 +0100,
18,0,18,,,,,,space,1.7032913000002736,None,None,3,1.734618299999056,None,None,0,0,0,0,,,,,1,0,1,0,,,,,18,0,18,0,761.8683412999999,,,,,,,,,,,,,,,,,,,,,,,,,,,,,,,,,,,,,,,,,,,,,,,,,,,,,,,,,Nummer,2.5469,761.8534323999993,761.8540845000007,761.8541896999996,761.8683412999999,764.4180529000005,764.4026102000007,764.4067018999995,764.4180529000005,764.4180529000005,764.4180529000005,764.4180529000005,766.4180259000004,766.4180259000004,766.4180259000004,766.4180259000004,766.4023914000009,3,1.734618299999056,None,None,,,,,,,,,,,,,,,,2389,1,2025-10-28_16h31.09.017,sm,2024.2.4,59.97947502359374,2025-10-28 16h31.18.476048 +0100,
19,0,19,,,,,,space,1.7032913000002736,None,None,2,1.0594786999990902,0.2542916000002151,None,0,0,0,0,,,,,1,0,1,0,,,,,19,0,19,0,766.4180259000004,,,,,,,,,,,,,,,,,,,,,,,,,,,,,,,,,,,,,,,,,,,,,,,,,,,,,,,,,Lehrer,3.6213,766.4027683000004,766.4032268999999,766.4033041999992,766.4180259000004,770.0507981999999,770.0353658999993,770.0389474999993,770.0507981999999,770.0507981999999,770.0507981999999,770.0507981999999,772.0511019999994,772.0511019999994,772.0511019999994,772.0511019999994,772.0356195999993,2,1.0594786999990902,0.2542916000002151,None,,,,,,,,,,,,,,,,2389,1,2025-10-28_16h31.09.017,sm,2024.2.4,59.97947502359374,2025-10-28 16h31.18.476048 +0100,
20,0,20,,,,,,space,1.7032913000002736,None,None,3,1.3206262000003335,0.3367283999996289,None,0,0,0,0,,,,,1,0,1,0,,,,,20,0,20,0,772.0511019999994,,,,,,,,,,,,,,,,,,,,,,,,,,,,,,,,,,,,,,,,,,,,,,,,,,,,,,,,,Karton,2.1386,772.0361281000005,772.0367088000003,772.0368139999991,772.0511019999994,774.2008174999992,774.1852460999999,774.1893428999992,774.2008174999992,774.2008174999992,774.2008174999992,774.2008174999992,776.2010105000008,776.2010105000008,776.2010105000008,776.2010105000008,776.1852816999999,3,1.3206262000003335,0.3367283999996289,None,,,,,,,,,,,,,,,,2389,1,2025-10-28_16h31.09.017,sm,2024.2.4,59.97947502359374,2025-10-28 16h31.18.476048 +0100,
21,0,21,,,,,,space,1.7032913000002736,None,None,2,1.400787799999307,0.22565190000022994,None,0,0,0,0,,,,,1,0,1,0,,,,,21,0,21,0,776.2010105000008,,,,,,,,,,,,,,,,,,,,,,,,,,,,,,,,,,,,,,,,,,,,,,,,,,,,,,,,,Geburtstag,3.5038,776.1858219000005,776.1863613999994,776.1864679000009,776.2010105000008,779.7171754999999,779.7017653000003,779.7061082,779.7171754999999,779.7171754999999,779.7171754999999,779.7171754999999,781.7171761000009,781.7171761000009,781.7171761000009,781.7171761000009,781.7016418999992,2,1.400787799999307,0.22565190000022994,None,,,,,,,,,,,,,,,,2389,1,2025-10-28_16h31.09.017,sm,2024.2.4,59.97947502359374,2025-10-28 16h31.18.476048 +0100,
22,0,22,,,,,,space,1.7032913000002736,None,None,3,1.8066318999990472,None,None,0,0,0,0,,,,,1,0,1,0,,,,,22,0,22,0,781.7171761000009,,,,,,,,,,,,,,,,,,,,,,,,,,,,,,,,,,,,,,,,,,,,,,,,,,,,,,,,,Service,3.1687,781.7021456999992,781.7028133000003,781.7029232999994,781.7171761000009,784.9000716999999,784.8849379000003,784.8883886000003,784.9000716999999,784.9000716999999,784.9000716999999,784.9000716999999,786.9000737000006,786.9000737000006,786.9000737000006,786.9000737000006,786.8847334999991,3,1.8066318999990472,None,None,,,,,,,,,,,,,,,,2389,1,2025-10-28_16h31.09.017,sm,2024.2.4,59.97947502359374,2025-10-28 16h31.18.476048 +0100,
23,0,23,,,,,,space,1.7032913000002736,None,None,2,0.9743947999995726,0.2862877000006847,None,0,0,0,0,,,,,1,0,1,0,,,,,23,0,23,0,786.9000737000006,,,,,,,,,,,,,,,,,,,,,,,,,,,,,,,,,,,,,,,,,,,,,,,,,,,,,,,,,Radio,2.1217,786.8852482999991,786.8859162000008,786.8860222999992,786.9000737000006,789.0333518999996,789.0181747999995,789.0219331999997,789.0333518999996,789.0333518999996,789.0333518999996,789.0333518999996,791.0335078999997,791.0335078999997,791.0335078999997,791.0335078999997,791.0176647999997,2,0.9743947999995726,0.2862877000006847,None,,,,,,,,,,,,,,,,2389,1,2025-10-28_16h31.09.017,sm,2024.2.4,59.97947502359374,2025-10-28 16h31.18.476048 +0100,
24,0,24,,,,,,space,1.7032913000002736,None,None,3,1.5023087000008672,None,None,0,0,0,0,,,,,1,0,1,0,,,,,24,0,24,0,791.0335078999997,,,,,,,,,,,,,,,,,,,,,,,,,,,,,,,,,,,,,,,,,,,,,,,,,,,,,,,,,Bürste,2.1274,791.0181656999994,791.0187289000005,791.0188311000002,791.0335078999997,793.1664285999996,793.1509210999993,793.1557749000003,793.1664285999996,793.1664285999996,793.1664285999996,793.1664285999996,795.1664273000006,795.1664273000006,795.1664273000006,795.1664273000006,795.1508778000007,3,1.5023087000008672,None,None,,,,,,,,,,,,,,,,2389,1,2025-10-28_16h31.09.017,sm,2024.2.4,59.97947502359374,2025-10-28 16h31.18.476048 +0100,
25,0,25,,,,,,space,1.7032913000002736,None,None,2,1.623721599999044,0.2619243000008282,None,0,0,0,0,,,,,1,0,1,0,,,,,25,0,25,0,795.1664273000006,,,,,,,,,,,,,,,,,,,,,,,,,,,,,,,,,,,,,,,,,,,,,,,,,,,,,,,,,Anwalt,2.5782,795.1513883000007,795.1519396999993,795.1520512999996,795.1664273000006,797.7496226999992,797.7338412999998,797.7381335000009,797.7496226999992,797.7496226999992,797.7496226999992,797.7496226999992,799.7492657000003,799.7492657000003,799.7492657000003,799.7492657000003,799.7340258999993,2,1.623721599999044,0.2619243000008282,None,,,,,,,,,,,,,,,,2389,1,2025-10-28_16h31.09.017,sm,2024.2.4,59.97947502359374,2025-10-28 16h31.18.476048 +0100,
26,0,26,,,,,,space,1.7032913000002736,None,None,2,1.6264687000002596,0.26326440000048024,None,0,0,0,0,,,,,1,0,1,0,,,,,26,0,26,0,799.7492657000003,,,,,,,,,,,,,,,,,,,,,,,,,,,,,,,,,,,,,,,,,,,,,,,,,,,,,,,,,Lokomotive,2.3672,799.7345303000002,799.7350358999993,799.7351378000003,799.7492657000003,802.1156031999999,802.1000722999997,802.1035147999992,802.1156031999999,802.1156031999999,802.1156031999999,802.1156031999999,804.1158185000004,804.1158185000004,804.1158185000004,804.1158185000004,804.1003698000004,2,1.6264687000002596,0.26326440000048024,None,,,,,,,,,,,,,,,,2389,1,2025-10-28_16h31.09.017,sm,2024.2.4,59.97947502359374,2025-10-28 16h31.18.476048 +0100,
27,0,27,,,,,,space,1.7032913000002736,None,None,3,1.6589144999998098,0.2170522999986133,None,0,0,0,0,,,,,1,0,1,0,,,,,27,0,27,0,804.1158185000004,,,,,,,,,,,,,,,,,,,,,,,,,,,,,,,,,,,,,,,,,,,,,,,,,,,,,,,,,Nebel,5.0441,804.1008813999997,804.1013949000007,804.1014992,804.1158185000004,809.1654546999998,809.1499034000008,809.1537327000005,809.1654546999998,809.1654546999998,809.1654546999998,809.1654546999998,811.1654581000003,811.1654581000003,811.1654581000003,811.1654581000003,811.1501024999998,3,1.6589144999998098,0.2170522999986133,None,,,,,,,,,,,,,,,,2389,1,2025-10-28_16h31.09.017,sm,2024.2.4,59.97947502359374,2025-10-28 16h31.18.476048 +0100,
28,0,28,,,,,,space,1.7032913000002736,None,None,2,0.9283613999996305,0.23319009999977425,None,0,0,0,0,,,,,1,0,1,0,,,,,28,0,28,0,811.1654581000003,,,,,,,,,,,,,,,,,,,,,,,,,,,,,,,,,,,,,,,,,,,,,,,,,,,,,,,,,Schwester,2.6963,811.1506093000007,811.1511198000007,811.1512211999998,811.1654581000003,813.8651962000004,813.8495020999999,813.8529197999997,813.8651962000004,813.8651962000004,813.8651962000004,813.8651962000004,815.8652392000004,815.8652392000004,815.8652392000004,815.8652392000004,815.8497136000005,2,0.9283613999996305,0.23319009999977425,None,,,,,,,,,,,,,,,,2389,1,2025-10-28_16h31.09.017,sm,2024.2.4,59.97947502359374,2025-10-28 16h31.18.476048 +0100,
29,0,29,,,,,,space,1.7032913000002736,None,None,2,1.457453399998485,0.24806549999993877,None,0,0,0,0,,,,,1,0,1,0,,,,,29,0,29,0,815.8652392000004,,,,,,,,,,,,,,,,,,,,,,,,,,,,,,,,,,,,,,,,,,,,,,,,,,,,,,,,,Kartoffel,2.4676,815.8502379000001,815.8507468999996,815.8508509000003,815.8652392000004,818.3480306000001,818.3325748000007,818.3363704999992,818.3480306000001,818.3480306000001,818.3480306000001,818.3480306000001,820.3483964999996,820.3483964999996,820.3483964999996,820.3483964999996,820.3325710000008,2,1.457453399998485,0.24806549999993877,None,,,,,,,,,,,,,,,,2389,1,2025-10-28_16h31.09.017,sm,2024.2.4,59.97947502359374,2025-10-28 16h31.18.476048 +0100,
30,0,30,,,,,,space,1.7032913000002736,None,None,2,1.3234434000005422,0.27037510000081966,None,0,0,0,0,,,,,1,0,1,0,,,,,30,0,30,0,820.3483964999996,,,,,,,,,,,,,,,,,,,,,,,,,,,,,,,,,,,,,,,,,,,,,,,,,,,,,,,,,Lachen,4.4384,820.3329993999996,820.3335339999994,820.3336192000006,820.3483964999996,824.7976906999993,824.7821003000008,824.7856898000009,824.7976906999993,824.7976906999993,824.7976906999993,824.7976906999993,826.7980306999998,826.7980306999998,826.7980306999998,826.7980306999998,826.7824633,2,1.3234434000005422,0.27037510000081966,None,,,,,,,,,,,,,,,,2389,1,2025-10-28_16h31.09.017,sm,2024.2.4,59.97947502359374,2025-10-28 16h31.18.476048 +0100,
31,0,31,,,,,,space,1.7032913000002736,None,None,2,1.3288461000011011,0.27184159999887925,None,0,0,0,0,,,,,1,0,1,0,,,,,31,0,31,0,826.7980306999998,,,,,,,,,,,,,,,,,,,,,,,,,,,,,,,,,,,,,,,,,,,,,,,,,,,,,,,,,Arm,4.7442,826.7829701999999,826.7834767999993,826.7835794999992,826.7980306999998,831.5474575000007,831.5317811999994,831.5367232999997,831.5474575000007,831.5474575000007,831.5474575000007,831.5474575000007,833.5474938000007,833.5474938000007,833.5474938000007,833.5474938000007,833.5319662000002,2,1.3288461000011011,0.27184159999887925,None,,,,,,,,,,,,,,,,2389,1,2025-10-28_16h31.09.017,sm,2024.2.4,59.97947502359374,2025-10-28 16h31.18.476048 +0100,
32,0,32,,,,,,space,1.7032913000002736,None,None,3,1.032062300000689,0.7806382999988273,None,0,0,0,0,,,,,1,0,1,0,,,,,32,0,32,0,833.5474938000007,,,,,,,,,,,,,,,,,,,,,,,,,,,,,,,,,,,,,,,,,,,,,,,,,,,,,,,,,Sumpf,3.0044,833.5324705999992,833.5330300999995,833.5331313999995,833.5474938000007,836.5638429999999,836.5482680999994,836.5520099999994,836.5638429999999,836.5638429999999,836.5638429999999,836.5638429999999,838.5639276000002,838.5639276000002,838.5639276000002,838.5639276000002,838.5483296000002,3,1.032062300000689,0.7806382999988273,None,,,,,,,,,,,,,,,,2389,1,2025-10-28_16h31.09.017,sm,2024.2.4,59.97947502359374,2025-10-28 16h31.18.476048 +0100,
33,0,33,,,,,,space,1.7032913000002736,None,None,3,1.3765712000003987,0.2758869000008417,None,0,0,0,0,,,,,1,0,1,0,,,,,33,0,33,0,838.5639276000002,,,,,,,,,,,,,,,,,,,,,,,,,,,,,,,,,,,,,,,,,,,,,,,,,,,,,,,,,Datei,3.5175,838.5488475999991,838.5493569000009,838.5494595,838.5639276000002,842.0801936000007,842.0647719000008,842.0689464000006,842.0801936000007,842.0801936000007,842.0801936000007,842.0801936000007,844.0802820999997,844.0802820999997,844.0802820999997,844.0802820999997,844.0649357999991,3,1.3765712000003987,0.2758869000008417,None,,,,,,,,,,,,,,,,2389,1,2025-10-28_16h31.09.017,sm,2024.2.4,59.97947502359374,2025-10-28 16h31.18.476048 +0100,
34,0,34,,,,,,space,1.7032913000002736,None,None,2,1.5319622000006348,0.2411062999999558,None,0,0,0,0,,,,,1,0,1,0,,,,,34,0,34,0,844.0802820999997,,,,,,,,,,,,,,,,,,,,,,,,,,,,,,,,,,,,,,,,,,,,,,,,,,,,,,,,,Zucker,3.0501,844.0654575999997,844.0659658999994,844.0660719000007,844.0802820999997,847.1299111000008,847.1141982999998,847.1173744999996,847.1299111000008,847.1299111000008,847.1299111000008,847.1299111000008,849.1298196999996,849.1298196999996,849.1298196999996,849.1298196999996,849.1143804999992,2,1.5319622000006348,0.2411062999999558,None,,,,,,,,,,,,,,,,2389,1,2025-10-28_16h31.09.017,sm,2024.2.4,59.97947502359374,2025-10-28 16h31.18.476048 +0100,
35,0,35,,,,,,space,1.7032913000002736,None,None,3,1.6068933000005927,0.24729239999942365,None,0,0,0,0,,,,,1,0,1,0,,,,,35,0,35,0,849.1298196999996,,,,,,,,,,,,,,,,,,,,,,,,,,,,,,,,,,,,,,,,,,,,,,,,,,,,,,,,,Ringe,2.2986,849.1148486999991,849.1153279999999,849.1154263000008,849.1298196999996,851.4296477999997,851.4138325999993,851.4173529,851.4296477999997,851.4296477999997,851.4296477999997,851.4296477999997,853.4295925000006,853.4295925000006,853.4295925000006,853.4295925000006,853.4142288999992,3,1.6068933000005927,0.24729239999942365,None,,,,,,,,,,,,,,,,2389,1,2025-10-28_16h31.09.017,sm,2024.2.4,59.97947502359374,2025-10-28 16h31.18.476048 +0100,
36,0,36,,,,,,space,1.7032913000002736,None,None,2,1.822112100000595,None,None,0,0,0,0,,,,,1,0,1,0,,,,,36,0,36,0,853.4295925000006,,,,,,,,,,,,,,,,,,,,,,,,,,,,,,,,,,,,,,,,,,,,,,,,,,,,,,,,,Bart,2.2957,853.4147510000003,853.4154973000004,853.4156012000003,853.4295925000006,855.7291931,855.7137629999997,855.7171823000008,855.7291931,855.7291931,855.7291931,855.7291931,857.7295290000002,857.7295290000002,857.7295290000002,857.7295290000002,857.7137005000004,2,1.822112100000595,None,None,,,,,,,,,,,,,,,,2389,1,2025-10-28_16h31.09.017,sm,2024.2.4,59.97947502359374,2025-10-28 16h31.18.476048 +0100,
37,0,37,,,,,,space,1.7032913000002736,None,None,None,,,None,0,0,0,0,,,,,1,0,1,0,,,,,37,0,37,0,857.7295290000002,,,,,,,,,,,,,,,,,,,,,,,,,,,,,,,,,,,,,,,,,,,,,,,,,,,,,,,,,Wüste,2.87,857.7141831000008,857.7147026000002,857.7147987999997,857.7295290000002,860.6124108000004,860.5967873999998,860.6001350999995,860.6124108000004,860.6124108000004,860.6124108000004,860.6124108000004,862.6124342999992,862.6124342999992,862.6124342999992,862.6124342999992,862.5966976,None,,,None,,,,,,,,,,,,,,,,2389,1,2025-10-28_16h31.09.017,sm,2024.2.4,59.97947502359374,2025-10-28 16h31.18.476048 +0100,
38,0,38,,,,,,space,1.7032913000002736,None,None,3,0.9131515999997646,0.2687564999996539,None,0,0,0,0,,,,,1,0,1,0,,,,,38,0,38,0,862.6124342999992,,,,,,,,,,,,,,,,,,,,,,,,,,,,,,,,,,,,,,,,,,,,,,,,,,,,,,,,,Schläger,2.4888,862.5970959000006,862.5975713999997,862.5976578999998,862.6124342999992,865.1123353999992,865.0963604000008,865.1003216999998,865.1123353999992,865.1123353999992,865.1123353999992,865.1123353999992,867.1123487999994,867.1123487999994,867.1123487999994,867.1123487999994,867.0966970000009,3,0.9131515999997646,0.2687564999996539,None,,,,,,,,,,,,,,,,2389,1,2025-10-28_16h31.09.017,sm,2024.2.4,59.97947502359374,2025-10-28 16h31.18.476048 +0100,
39,0,39,,,,,,space,1.7032913000002736,None,None,3,1.3205550999991829,0.28302240000084566,None,0,0,0,0,,,,,1,0,1,0,,,,,39,0,39,0,867.1123487999994,,,,,,,,,,,,,,,,,,,,,,,,,,,,,,,,,,,,,,,,,,,,,,,,,,,,,,,,,Monument,2.2104,867.0972636000006,867.0979473000007,867.0980598000006,867.1123487999994,869.3286845000002,869.3131783000008,869.3173122999997,869.3286845000002,869.3286845000002,869.3286845000002,869.3286845000002,871.3286174999994,871.3286174999994,871.3286174999994,871.3286174999994,871.3129155000006,3,1.3205550999991829,0.28302240000084566,None,,,,,,,,,,,,,,,,2389,1,2025-10-28_16h31.09.017,sm,2024.2.4,59.97947502359374,2025-10-28 16h31.18.476048 +0100,
40,0,40,,,,,,space,1.7032913000002736,None,None,2,1.138716999999815,0.2787018999988504,None,0,0,0,0,,,,,1,0,1,0,,,,,40,0,40,0,871.3286174999994,,,,,,,,,,,,,,,,,,,,,,,,,,,,,,,,,,,,,,,,,,,,,,,,,,,,,,,,,Nase,3.309,871.3134057999996,871.3140719000003,871.3141832000001,871.3286174999994,874.6449475999998,874.6296051000008,874.6333625999996,874.6449475999998,874.6449475999998,874.6449475999998,874.6449475999998,876.6450224,876.6450224,876.6450224,876.6450224,876.6296087999999,2,1.138716999999815,0.2787018999988504,None,,,,,,,,,,,,,,,,2389,1,2025-10-28_16h31.09.017,sm,2024.2.4,59.97947502359374,2025-10-28 16h31.18.476048 +0100,
41,0,41,,,,,,space,1.7032913000002736,None,None,3,0.9127047000001767,0.2577860999990662,None,0,0,0,0,,,,,1,0,1,0,,,,,41,0,41,0,876.6450224,,,,,,,,,,,,,,,,,,,,,,,,,,,,,,,,,,,,,,,,,,,,,,,,,,,,,,,,,Schloss,2.7586,876.6301139999996,876.6306385000007,876.6307402000002,876.6450224,879.4114714999996,879.3959460000005,879.4001160000007,879.4114714999996,879.4114714999996,879.4114714999996,879.4114714999996,881.4113405000007,881.4113405000007,881.4113405000007,881.4113405000007,881.3958946000002,3,0.9127047000001767,0.2577860999990662,None,,,,,,,,,,,,,,,,2389,1,2025-10-28_16h31.09.017,sm,2024.2.4,59.97947502359374,2025-10-28 16h31.18.476048 +0100,
42,0,42,,,,,,space,1.7032913000002736,None,None,2,1.3637472999998863,0.24497650000012072,None,0,0,0,0,,,,,1,0,1,0,,,,,42,0,42,0,881.4113405000007,,,,,,,,,,,,,,,,,,,,,,,,,,,,,,,,,,,,,,,,,,,,,,,,,,,,,,,,,Bad,5.4786,881.3964013999994,881.3968961999999,881.3969988999997,881.4113405000007,886.8942967999992,886.8786001000008,886.8821573000005,886.8942967999992,886.8942967999992,886.8942967999992,886.8942967999992,888.8945490000006,888.8945490000006,888.8945490000006,888.8945490000006,888.8790325000009,2,1.3637472999998863,0.24497650000012072,None,,,,,,,,,,,,,,,,2389,1,2025-10-28_16h31.09.017,sm,2024.2.4,59.97947502359374,2025-10-28 16h31.18.476048 +0100,
43,0,43,,,,,,space,1.7032913000002736,None,None,3,1.321402900000976,0.5619284999993397,None,0,0,0,0,,,,,1,0,1,0,,,,,43,0,43,0,888.8945490000006,,,,,,,,,,,,,,,,,,,,,,,,,,,,,,,,,,,,,,,,,,,,,,,,,,,,,,,,,Erbe,3.5643,888.8795405000001,888.8800570000003,888.8801598999999,888.8945490000006,892.4608537999993,892.4450264000006,892.4479038999998,892.4608537999993,892.4608537999993,892.4608537999993,892.4608537999993,894.4607684000002,894.4607684000002,894.4607684000002,894.4607684000002,894.4450792999996,3,1.321402900000976,0.5619284999993397,None,,,,,,,,,,,,,,,,2389,1,2025-10-28_16h31.09.017,sm,2024.2.4,59.97947502359374,2025-10-28 16h31.18.476048 +0100,
44,0,44,,,,,,space,1.7032913000002736,None,None,2,1.3777792999990197,0.23503960000016377,None,0,0,0,0,,,,,1,0,1,0,,,,,44,0,44,0,894.4607684000002,,,,,,,,,,,,,,,,,,,,,,,,,,,,,,,,,,,,,,,,,,,,,,,,,,,,,,,,,Wein,2.1555,894.4455856000004,894.4460880999995,894.4461902000003,894.4607684000002,896.6275568000001,896.6114417000008,896.6145926999998,896.6275568000001,896.6275568000001,896.6275568000001,896.6275568000001,898.6269321,898.6269321,898.6269321,898.6269321,898.6115475000006,2,1.3777792999990197,0.23503960000016377,None,,,,,,,,,,,,,,,,2389,1,2025-10-28_16h31.09.017,sm,2024.2.4,59.97947502359374,2025-10-28 16h31.18.476048 +0100,
45,0,45,,,,,,space,1.7032913000002736,None,None,3,1.5774806000008539,0.23482869999861578,None,0,0,0,0,,,,,1,0,1,0,,,,,45,0,45,0,898.6269321,,,,,,,,,,,,,,,,,,,,,,,,,,,,,,,,,,,,,,,,,,,,,,,,,,,,,,,,,Raum,2.0863,898.6120516999999,898.6125594000005,898.6126598999999,898.6269321,900.7267673000006,900.7114146999993,900.7154554999997,900.7267673000006,900.7267673000006,900.7267673000006,900.7267673000006,902.7267362000002,902.7267362000002,902.7267362000002,902.7267362000002,902.7114161999998,3,1.5774806000008539,0.23482869999861578,None,,,,,,,,,,,,,,,,2389,1,2025-10-28_16h31.09.017,sm,2024.2.4,59.97947502359374,2025-10-28 16h31.18.476048 +0100,
46,0,46,,,,,,space,1.7032913000002736,None,None,3,1.4601090000014665,0.2099501999982749,None,0,0,0,0,,,,,1,0,1,0,,,,,46,0,46,0,902.7267362000002,,,,,,,,,,,,,,,,,,,,,,,,,,,,,,,,,,,,,,,,,,,,,,,,,,,,,,,,,Beutel,2.0789,902.7119239999993,902.7124377,902.7125398000007,902.7267362000002,904.8102237000003,904.7943443000004,904.7983227999994,904.8102237000003,904.8102237000003,904.8102237000003,904.8102237000003,906.8098587999993,906.8098587999993,906.8098587999993,906.8098587999993,906.7943436999994,3,1.4601090000014665,0.2099501999982749,None,,,,,,,,,,,,,,,,2389,1,2025-10-28_16h31.09.017,sm,2024.2.4,59.97947502359374,2025-10-28 16h31.18.476048 +0100,
47,0,47,,,,,,space,1.7032913000002736,None,None,3,1.2764923000013368,0.3010985000000801,None,0,0,0,0,,,,,1,0,1,0,,,,,47,0,47,0,906.8098587999993,,,,,,,,,,,,,,,,,,,,,,,,,,,,,,,,,,,,,,,,,,,,,,,,,,,,,,,,,Lernen,3.8401,906.7948226999997,906.7953374000008,906.7954315000006,906.8098587999993,910.6595871000009,910.6442459999998,910.6483697999993,910.6595871000009,910.6595871000009,910.6595871000009,910.6595871000009,912.6593727,912.6593727,912.6593727,912.6593727,912.6439608000001,3,1.2764923000013368,0.3010985000000801,None,,,,,,,,,,,,,,,,2389,1,2025-10-28_16h31.09.017,sm,2024.2.4,59.97947502359374,2025-10-28 16h31.18.476048 +0100,
48,0,48,,,,,,space,1.7032913000002736,None,None,3,1.0546415000007983,0.32433689999925264,None,0,0,0,0,,,,,1,0,1,0,,,,,48,0,48,0,912.6593727,,,,,,,,,,,,,,,,,,,,,,,,,,,,,,,,,,,,,,,,,,,,,,,,,,,,,,,,,Tanne,4.0256,912.6443715999994,912.6448424000009,912.6449247,912.6593727,916.6924571,916.6769738999992,916.6808213000004,916.6924571,916.6924571,916.6924571,916.6924571,918.6926841000004,918.6926841000004,918.6926841000004,918.6926841000004,918.6768286000006,3,1.0546415000007983,0.32433689999925264,None,,,,,,,,,,,,,,,,2389,1,2025-10-28_16h31.09.017,sm,2024.2.4,59.97947502359374,2025-10-28 16h31.18.476048 +0100,
49,0,49,,,,,,space,1.7032913000002736,None,None,None,,,None,0,0,0,0,,,,,1,0,1,0,,,,,49,0,49,0,918.6926841000004,,,,,,,,,,,,,,,,,,,,,,,,,,,,,,,,,,,,,,,,,,,,,,,,,,,,,,,,,Ferien,2.1326,918.6772430000001,918.6777099999999,918.6777970000003,918.6926841000004,920.8256648000006,920.8102426999994,920.8148039999996,920.8256648000006,920.8256648000006,920.8256648000006,920.8256648000006,922.8258409999999,922.8258409999999,922.8258409999999,922.8258409999999,922.8101000000006,None,,,None,,,,,,,,,,,,,,,,2389,1,2025-10-28_16h31.09.017,sm,2024.2.4,59.97947502359374,2025-10-28 16h31.18.476048 +0100,
50,0,50,,,,,,space,1.7032913000002736,None,None,3,1.1939337000003434,0.24494489999960933,None,0,0,0,0,,,,,1,0,1,0,,,,,50,0,50,0,922.8258409999999,,,,,,,,,,,,,,,,,,,,,,,,,,,,,,,,,,,,,,,,,,,,,,,,,,,,,,,,,Zeigen,3.6553,922.8105878999995,922.8112992999995,922.8114057000003,922.8258409999999,926.4918858000001,926.4761982,926.4794335999995,926.4918858000001,926.4918858000001,926.4918858000001,926.4918858000001,928.4919365000005,928.4919365000005,928.4919365000005,928.4919365000005,928.4762389000007,3,1.1939337000003434,0.24494489999960933,None,,,,,,,,,,,,,,,,2389,1,2025-10-28_16h31.09.017,sm,2024.2.4,59.97947502359374,2025-10-28 16h31.18.476048 +0100,
51,0,51,,,,,,space,1.7032913000002736,None,None,2,1.1504567000010866,0.3006432999991375,None,0,0,0,0,,,,,1,0,1,0,,,,,51,0,51,0,928.4919365000005,,,,,,,,,,,,,,,,,,,,,,,,,,,,,,,,,,,,,,,,,,,,,,,,,,,,,,,,,Journalistin,2.7056,928.4767695999999,928.4772721000008,928.4773734999999,928.4919365000005,931.2078870999994,931.1926970999994,931.1976699999996,931.2078870999994,931.2078870999994,931.2078870999994,931.2078870999994,933.2083958999992,933.2083958999992,933.2083958999992,933.2083958999992,933.1929684000006,2,1.1504567000010866,0.3006432999991375,None,,,,,,,,,,,,,,,,2389,1,2025-10-28_16h31.09.017,sm,2024.2.4,59.97947502359374,2025-10-28 16h31.18.476048 +0100,
52,0,52,,,,,,space,1.7032913000002736,None,None,3,1.00492469999881,0.2991269000012835,None,0,0,0,0,,,,,1,0,1,0,,,,,52,0,52,0,933.2083958999992,,,,,,,,,,,,,,,,,,,,,,,,,,,,,,,,,,,,,,,,,,,,,,,,,,,,,,,,,Brise,3.5964,933.1934827000005,933.1939844999997,933.1940852999996,933.2083958999992,936.8078107000001,936.7925500000001,936.7961302000003,936.8078107000001,936.8078107000001,936.8078107000001,936.8078107000001,938.8080709000005,938.8080709000005,938.8080709000005,938.8080709000005,938.7925682999994,3,1.00492469999881,0.2991269000012835,None,,,,,,,,,,,,,,,,2389,1,2025-10-28_16h31.09.017,sm,2024.2.4,59.97947502359374,2025-10-28 16h31.18.476048 +0100,
53,0,53,,,,,,space,1.7032913000002736,None,None,2,0.9178716000005807,0.260909200000242,None,0,0,0,0,,,,,1,0,1,0,,,,,53,0,53,0,938.8080709000005,,,,,,,,,,,,,,,,,,,,,,,,,,,,,,,,,,,,,,,,,,,,,,,,,,,,,,,,,Kaffee,3.3064,938.7930792000006,938.7937528000002,938.7938544999997,938.8080709000005,942.1242189000004,942.1075122999991,942.1093999999994,942.1242189000004,942.1242189000004,942.1242189000004,942.1242189000004,,,,,944.1082299000009,2,0.9178716000005807,0.260909200000242,None,,,,,,,,,,,,,,,,2389,1,2025-10-28_16h31.09.017,sm,2024.2.4,59.97947502359374,2025-10-28 16h31.18.476048 +0100,
54,0,54,,,,,,space,1.7032913000002736,None,None,2,0.8285291000011057,0.27884979999907955,None,0,0,0,0,,,,,1,0,1,0,,,,,54,0,54,0,944.1246391999994,,,,,,,,,,,,,,,,,,,,,,,,,,,,,,,,,,,,,,,,,,,,,,,,,,,,,,,,,Kino,2.4373,944.1087377000003,944.1094776000009,944.1095918999999,944.1246391999994,946.5738380999992,946.5583678999992,946.5614855000003,946.5738380999992,946.5738380999992,946.5738380999992,946.5738380999992,948.5740690999992,948.5740690999992,948.5740690999992,948.5740690999992,948.5584639000008,2,0.8285291000011057,0.27884979999907955,None,,,,,,,,,,,,,,,,2389,1,2025-10-28_16h31.09.017,sm,2024.2.4,59.97947502359374,2025-10-28 16h31.18.476048 +0100,
55,0,55,,,,,,space,1.7032913000002736,None,None,2,1.319769499999893,0.25944039999922097,None,0,0,0,0,,,,,1,0,1,0,,,,,55,0,55,0,948.5740690999992,,,,,,,,,,,,,,,,,,,,,,,,,,,,,,,,,,,,,,,,,,,,,,,,,,,,,,,,,Ozean,2.8989,948.5589368000001,948.5596452000009,948.5597476000003,948.5740690999992,951.4738555999993,951.4583395000009,951.4624832999998,951.4738555999993,951.4738555999993,951.4738555999993,951.4738555999993,953.4737865999996,953.4737865999996,953.4737865999996,953.4737865999996,953.4585482999992,2,1.319769499999893,0.25944039999922097,None,,,,,,,,,,,,,,,,2389,1,2025-10-28_16h31.09.017,sm,2024.2.4,59.97947502359374,2025-10-28 16h31.18.476048 +0100,
56,0,56,,,,,,space,1.7032913000002736,None,None,2,1.2356411999990087,0.34986920000119426,None,0,0,0,0,,,,,1,0,1,0,,,,,56,0,56,0,953.4737865999996,,,,,,,,,,,,,,,,,,,,,,,,,,,,,,,,,,,,,,,,,,,,,,,,,,,,,,,,,Zeit,2.1825,953.4590680000001,953.4597295000003,953.4598308000004,953.4737865999996,955.6569995000009,955.6414669000005,955.6451825999993,955.6569995000009,955.6569995000009,955.6569995000009,955.6569995000009,957.6570883999993,957.6570883999993,957.6570883999993,957.6570883999993,957.6416179000007,2,1.2356411999990087,0.34986920000119426,None,,,,,,,,,,,,,,,,2389,1,2025-10-28_16h31.09.017,sm,2024.2.4,59.97947502359374,2025-10-28 16h31.18.476048 +0100,
57,0,57,,,,,,space,1.7032913000002736,None,None,2,1.7356134000001475,None,None,0,0,0,0,,,,,1,0,1,0,,,,,57,0,57,0,957.6570883999993,,,,,,,,,,,,,,,,,,,,,,,,,,,,,,,,,,,,,,,,,,,,,,,,,,,,,,,,,Geheimnis,3.9851,957.6421399999999,957.6426725000001,957.6427743999993,957.6570883999993,961.6564216000006,961.6411888000002,961.6447836000007,961.6564216000006,961.6564216000006,961.6564216000006,961.6564216000006,963.6567448000005,963.6567448000005,963.6567448000005,963.6567448000005,963.6412104999999,2,1.7356134000001475,None,None,,,,,,,,,,,,,,,,2389,1,2025-10-28_16h31.09.017,sm,2024.2.4,59.97947502359374,2025-10-28 16h31.18.476048 +0100,
58,0,58,,,,,,space,1.7032913000002736,None,None,3,1.063748200000191,0.29621709999992163,None,0,0,0,0,,,,,1,0,1,0,,,,,58,0,58,0,963.6567448000005,,,,,,,,,,,,,,,,,,,,,,,,,,,,,,,,,,,,,,,,,,,,,,,,,,,,,,,,,Waschbecken,2.0765,963.6417158000004,963.6426591,963.6427631000006,963.6567448000005,965.7396048999999,965.7238959000006,965.7280420999996,965.7396048999999,965.7396048999999,965.7396048999999,965.7396048999999,967.7396645999997,967.7396645999997,967.7396645999997,967.7396645999997,967.7242712000007,3,1.063748200000191,0.29621709999992163,None,,,,,,,,,,,,,,,,2389,1,2025-10-28_16h31.09.017,sm,2024.2.4,59.97947502359374,2025-10-28 16h31.18.476048 +0100,
59,0,59,,,,,,space,1.7032913000002736,None,None,2,1.0654574999989563,0.2672522000011668,None,0,0,0,0,,,,,1,0,1,0,,,,,59,0,59,0,967.7396645999997,,,,,,,,,,,,,,,,,,,,,,,,,,,,,,,,,,,,,,,,,,,,,,,,,,,,,,,,,Maske,3.4314,967.7247774999996,967.7253393999999,967.7254410000005,967.7396645999997,971.1734634000004,971.1571910000002,971.1612483000008,971.1734634000004,971.1734634000004,971.1734634000004,971.1734634000004,973.1727694000001,973.1727694000001,973.1727694000001,973.1727694000001,973.1573411000008,2,1.0654574999989563,0.2672522000011668,None,,,,,,,,,,,,,,,,2389,1,2025-10-28_16h31.09.017,sm,2024.2.4,59.97947502359374,2025-10-28 16h31.18.476048 +0100,
60,0,60,,,,,,space,1.7032913000002736,None,None,2,0.8653061999993952,0.31142329999966023,None,0,0,0,0,,,,,1,0,1,0,,,,,60,0,60,0,973.1727694000001,,,,,,,,,,,,,,,,,,,,,,,,,,,,,,,,,,,,,,,,,,,,,,,,,,,,,,,,,Augen,2.7409,973.1578482000004,973.1583627,973.1584643000006,973.1727694000001,975.9225074999995,975.9069932999992,975.9109779999999,975.9225074999995,975.9225074999995,975.9225074999995,975.9225074999995,977.9226280000003,977.9226280000003,977.9226280000003,977.9226280000003,977.9070456000009,2,0.8653061999993952,0.31142329999966023,None,,,,,,,,,,,,,,,,2389,1,2025-10-28_16h31.09.017,sm,2024.2.4,59.97947502359374,2025-10-28 16h31.18.476048 +0100,
61,0,61,,,,,,space,1.7032913000002736,None,None,3,1.2366996000000654,0.27554419999978563,None,0,0,0,0,,,,,1,0,1,0,,,,,61,0,61,0,977.9226280000003,,,,,,,,,,,,,,,,,,,,,,,,,,,,,,,,,,,,,,,,,,,,,,,,,,,,,,,,,Geschirr,3.2106,977.9075529000002,977.9081363999994,977.9082362999998,977.9226280000003,981.1389624999993,981.1231714000005,981.1266606000008,981.1389624999993,981.1389624999993,981.1389624999993,981.1389624999993,983.1387505999992,983.1387505999992,983.1387505999992,983.1387505999992,983.1234705000006,3,1.2366996000000654,0.27554419999978563,None,,,,,,,,,,,,,,,,2389,1,2025-10-28_16h31.09.017,sm,2024.2.4,59.97947502359374,2025-10-28 16h31.18.476048 +0100,
62,0,62,,,,,,space,1.7032913000002736,None,None,3,1.1622666999992362,0.27288550000048417,None,0,0,0,0,,,,,1,0,1,0,,,,,62,0,62,0,983.1387505999992,,,,,,,,,,,,,,,,,,,,,,,,,,,,,,,,,,,,,,,,,,,,,,,,,,,,,,,,,Netz,3.6909,983.1239707999994,983.1244729999999,983.1245739000005,983.1387505999992,986.8382122999992,986.8228252999997,986.8259230999993,986.8382122999992,986.8382122999992,986.8382122999992,986.8382122999992,988.8388470000009,988.8388470000009,988.8388470000009,988.8388470000009,988.8225036999993,3,1.1622666999992362,0.27288550000048417,None,,,,,,,,,,,,,,,,2389,1,2025-10-28_16h31.09.017,sm,2024.2.4,59.97947502359374,2025-10-28 16h31.18.476048 +0100,
63,0,63,,,,,,space,1.7032913000002736,None,None,2,1.2131928999988304,0.30197230000158015,None,0,0,0,0,,,,,1,0,1,0,,,,,63,0,63,0,988.8388470000009,,,,,,,,,,,,,,,,,,,,,,,,,,,,,,,,,,,,,,,,,,,,,,,,,,,,,,,,,Fuß,3.7105,988.8229123000001,988.8233564000002,988.8234377999997,988.8388470000009,992.5547439000002,992.5395726000006,992.5430871000008,992.5547439000002,992.5547439000002,992.5547439000002,992.5547439000002,994.5548297000005,994.5548297000005,994.5548297000005,994.5548297000005,994.5391493000006,2,1.2131928999988304,0.30197230000158015,None,,,,,,,,,,,,,,,,2389,1,2025-10-28_16h31.09.017,sm,2024.2.4,59.97947502359374,2025-10-28 16h31.18.476048 +0100,
64,0,64,,,,,,space,1.7032913000002736,None,None,2,1.0454878000000463,0.2740935999991052,None,0,0,0,0,,,,,1,0,1,0,,,,,64,0,64,0,994.5548297000005,,,,,,,,,,,,,,,,,,,,,,,,,,,,,,,,,,,,,,,,,,,,,,,,,,,,,,,,,Flut,2.3365,994.5396216000008,994.5402451999998,994.5403401999993,994.5548297000005,996.9044424999993,996.8887596999994,996.8928765,996.9044424999993,996.9044424999993,996.9044424999993,996.9044424999993,998.9045843000004,998.9045843000004,998.9045843000004,998.9045843000004,998.8891999000007,2,1.0454878000000463,0.2740935999991052,None,,,,,,,,,,,,,,,,2389,1,2025-10-28_16h31.09.017,sm,2024.2.4,59.97947502359374,2025-10-28 16h31.18.476048 +0100,
65,0,65,,,,,,space,1.7032913000002736,None,None,None,,,None,0,0,0,0,,,,,1,0,1,0,,,,,65,0,65,0,998.9045843000004,,,,,,,,,,,,,,,,,,,,,,,,,,,,,,,,,,,,,,,,,,,,,,,,,,,,,,,,,Pizza,2.3396,998.8897228999995,998.8902319000008,998.8903344000009,998.9045843000004,1001.2549761000009,1001.2390931999998,1001.2454871000009,1001.2549761000009,1001.2549761000009,1001.2549761000009,1001.2549761000009,1003.2544839999991,1003.2544839999991,1003.2544839999991,1003.2544839999991,1003.2389905,None,,,None,,,,,,,,,,,,,,,,2389,1,2025-10-28_16h31.09.017,sm,2024.2.4,59.97947502359374,2025-10-28 16h31.18.476048 +0100,
