thisN,thisTrialN,thisRepN,Cue,Target,Mediator1,Mediator2,iti,scanner_ready_press.keys,scanner_ready_press.rt,scanner_ready_press.duration,skip_trigger.keys,living_nonliving.keys,living_nonliving.rt,living_nonliving.duration,end_mapping.keys,blocks.thisRepN,blocks.thisTrialN,blocks.thisN,blocks.thisIndex,load_and_shuffle.thisRepN,load_and_shuffle.thisTrialN,load_and_shuffle.thisN,load_and_shuffle.thisIndex,runs.thisRepN,runs.thisTrialN,runs.thisN,runs.thisIndex,iti_loading_loop.thisRepN,iti_loading_loop.thisTrialN,iti_loading_loop.thisN,iti_loading_loop.thisIndex,semantic_mapping_run.thisRepN,semantic_mapping_run.thisTrialN,semantic_mapping_run.thisN,semantic_mapping_run.thisIndex,thisRow.t,notes,welcome.started,welcome_text.started,key_resp__welcome.started,welcome.stopped,key_resp__welcome.keys,key_resp__welcome.rt,key_resp__welcome.duration,scout.started,scout_text.started,key_resp.started,scout.stopped,key_resp.keys,key_resp.rt,key_resp.duration,instructions_semantic_mapping1.started,sm_instructions1_text.started,sm_instructions1_key.started,instructions_semantic_mapping1.stopped,sm_instructions1_key.keys,sm_instructions1_key.rt,sm_instructions1_key.duration,instructions_semantic_mapping2.started,sm_instructions2_text.started,sm_instructions2_key.started,instructions_semantic_mapping2.stopped,sm_instructions2_key.keys,sm_instructions2_key.rt,sm_instructions2_key.duration,reset_run.started,reset_run.stopped,shuffle_items.started,shuffle_items.stopped,set_up_runs.started,set_up_runs.stopped,load_iti.started,load_iti.stopped,prep_scanner.started,scanner_ready_press.started,ready_set_text.started,prep_scanner.stopped,runs.scanner_ready_press.keys,runs.scanner_ready_press.rt,runs.scanner_ready_press.duration,wait_for_trigger.started,starting_soon.started,skip_trigger.started,wait_for_trigger.stopped,runs.skip_trigger.keys,blank.started,begin_end_run_cross.started,sound_1.started,sound_1.stopped,sound_2.started,sound_2.stopped,blank.stopped,CurrentItem,CurrentITI,set_up_trial.started,set_up_trial.stopped,sm_iti.started,iti_cross.started,iti_cross.stopped,sm_iti.stopped,item.started,living_nonliving.started,end_mapping.started,living_nonliving_text.started,semantic_map_item.started,living_nonliving.stopped,end_mapping.stopped,living_nonliving_text.stopped,semantic_map_item.stopped,item.stopped,semantic_mapping_run.living_nonliving.keys,semantic_mapping_run.living_nonliving.rt,semantic_mapping_run.living_nonliving.duration,semantic_mapping_run.end_mapping.keys,fieldmap.started,fieldmap.stopped,runs.fm_key.keys,task_break.started,feeback_text.started,task_break_text.started,task_break_resp.started,feeback_text.stopped,task_break.stopped,runs.task_break_resp.keys,runs.task_break_resp.rt,runs.task_break_resp.duration,begin_end_run_cross.stopped,fm_text.started,fm_key.started,runs.fm_key.rt,runs.fm_key.duration,thanks.started,thanks_text.started,thanks_text.stopped,thanks.stopped,PID,MRI,date,expName,psychopyVersion,frameRate,expStart,
,,,,,,,,,,,,,,,,,,,,,,,,,,,,,,,,,,,,,,0.004002300000138348,0.008951499999966472,0.008951499999966472,13.54709720000028,space,13.518119200000001,None,,,,,,,,,,,,,,,,,,,,,,,,,,,,,,,,,,,,,,,,,,,,,,,,,,,,,,,,,,,,,,,,,,,,,,,,,,,,,,,,,,,,,,,,,,,,7382,1,2025-06-21_11h07.10.350,sm,2024.2.4,59.982173297974455,2025-06-21 11h07.31.692315 +0200,
,,,,,,,,,,,,,,,,,,,,,,,,,,,,,,,,,,,,,,,,,,,,,13.547217000000273,13.556112700000085,13.556112700000085,99.38580860000002,space,85.82672269999966,None,,,,,,,,,,,,,,,,,,,,,,,,,,,,,,,,,,,,,,,,,,,,,,,,,,,,,,,,,,,,,,,,,,,,,,,,,,,,,,,,,,,,,7382,1,2025-06-21_11h07.10.350,sm,2024.2.4,59.982173297974455,2025-06-21 11h07.31.692315 +0200,
,,,,,,,,,,,,,,,,,,,,,,,,,,,,,,,,,,,,,,,,,,,,,,,,,,,,99.38593320000018,99.40064820000043,99.40064820000043,104.71702830000049,2,5.312117299999954,None,,,,,,,,,,,,,,,,,,,,,,,,,,,,,,,,,,,,,,,,,,,,,,,,,,,,,,,,,,,,,,,,,,,,,,,,,,,,,,7382,1,2025-06-21_11h07.10.350,sm,2024.2.4,59.982173297974455,2025-06-21 11h07.31.692315 +0200,
,,,,,,,,,,,,,,,,,,,,,,,,,,,,,,,,,,,,,,,,,,,,,,,,,,,,,,,,,,,104.71714640000027,104.73140950000015,104.73140950000015,108.7328019000006,2,3.9924942999996347,None,,,,,,,,,,,,,,,,,,,,,,,,,,,,,,,,,,,,,,,,,,,,,,,,,,,,,,,,,,,,,,,,,,,,,,,7382,1,2025-06-21_11h07.10.350,sm,2024.2.4,59.982173297974455,2025-06-21 11h07.31.692315 +0200,
0,0,0,Vulkan,Asche,Lava,Ausbruch,2.334,space,2.108840200000486,None,None,3,1.3641580999992584,0.499698200000239,None,0,0,0,0,0,79,79,63,0,0,0,0,0,79,79,50,0,0,0,0,168.64586969999982,,,,,,,,,,,,,,,,,,,,,,,,,,,,,,108.73363289999998,108.73445249999986,108.81061330000011,108.8108984999999,108.8157454000002,108.81605180000042,108.84684000000016,108.84704490000058,108.8529167000006,108.85769049999999,108.85769049999999,110.96836710000025,space,2.108840200000486,None,110.96852089999993,110.9827323999998,110.9827323999998,156.61496710000029,None,156.6240028000002,156.63280900000063,156.63032096666691,157.83536840000033,166.62966366666686,167.63469090000035,168.62953560000005,Ecke,2.334,168.6307854000006,168.63141720000021,168.63442310000028,168.64586969999982,170.97921829999996,170.9636799,170.96759139999995,170.97921829999996,170.97921829999996,170.97921829999996,170.97921829999996,172.98152879999998,172.98152879999998,172.98152879999998,172.98152879999998,172.96386260000054,3,1.3641580999992584,0.499698200000239,None,,,,,,,,,,,,,,,,,,,,,,7382,1,2025-06-21_11h07.10.350,sm,2024.2.4,59.982173297974455,2025-06-21 11h07.31.692315 +0200,
1,0,1,,,,,,space,2.108840200000486,None,None,2,1.027879899999789,0.22200810000049387,None,0,0,0,0,,,,,0,0,0,0,,,,,1,0,1,0,172.98152879999998,,,,,,,,,,,,,,,,,,,,,,,,,,,,,,,,,,,,,,,,,,,,,,,,,,,,,,,,,Weinen,3.5584,172.96438260000014,172.96490730000005,172.96501390000049,172.98152879999998,176.54562669999996,176.52998000000025,176.5336425000005,176.54562669999996,176.54562669999996,176.54562669999996,176.54562669999996,178.54555600000003,178.54555600000003,178.54555600000003,178.54555600000003,178.52990649999992,2,1.027879899999789,0.22200810000049387,None,,,,,,,,,,,,,,,,,,,,,,7382,1,2025-06-21_11h07.10.350,sm,2024.2.4,59.982173297974455,2025-06-21 11h07.31.692315 +0200,
2,0,2,,,,,,space,2.108840200000486,None,None,2,0.7027574000003369,0.19860150000022259,None,0,0,0,0,,,,,0,0,0,0,,,,,2,0,2,0,178.54555600000003,,,,,,,,,,,,,,,,,,,,,,,,,,,,,,,,,,,,,,,,,,,,,,,,,,,,,,,,,Zwerg,3.3371,178.53041490000032,178.5309226999998,178.53103120000014,178.54555600000003,181.89492299999984,181.87959690000025,181.88592560000052,181.89492299999984,181.89492299999984,181.89492299999984,181.89492299999984,183.8953562000006,183.8953562000006,183.8953562000006,183.8953562000006,183.8798523000005,2,0.7027574000003369,0.19860150000022259,None,,,,,,,,,,,,,,,,,,,,,,7382,1,2025-06-21_11h07.10.350,sm,2024.2.4,59.982173297974455,2025-06-21 11h07.31.692315 +0200,
3,0,3,,,,,,space,2.108840200000486,None,None,2,1.0624143000004551,0.22626949999994395,None,0,0,0,0,,,,,0,0,0,0,,,,,3,0,3,0,183.8953562000006,,,,,,,,,,,,,,,,,,,,,,,,,,,,,,,,,,,,,,,,,,,,,,,,,,,,,,,,,Party,2.7044,183.8803595999998,183.88102359999993,183.88112920000003,183.8953562000006,186.6116479000002,186.5959044000001,186.60184949999984,186.6116479000002,186.6116479000002,186.6116479000002,186.6116479000002,188.61178569999993,188.61178569999993,188.61178569999993,188.61178569999993,188.59622639999998,2,1.0624143000004551,0.22626949999994395,None,,,,,,,,,,,,,,,,,,,,,,7382,1,2025-06-21_11h07.10.350,sm,2024.2.4,59.982173297974455,2025-06-21 11h07.31.692315 +0200,
4,0,4,,,,,,space,2.108840200000486,None,None,3,0.8223680000000968,0.3072896000003311,None,0,0,0,0,,,,,0,0,0,0,,,,,4,0,4,0,188.61178569999993,,,,,,,,,,,,,,,,,,,,,,,,,,,,,,,,,,,,,,,,,,,,,,,,,,,,,,,,,Platz,2.4567,188.5967381999999,188.5972711000004,188.59737769999992,188.61178569999993,191.07800510000015,191.0624386999998,191.06616510000003,191.07800510000015,191.07800510000015,191.07800510000015,191.07800510000015,193.07798100000036,193.07798100000036,193.07798100000036,193.07798100000036,193.0627596000004,3,0.8223680000000968,0.3072896000003311,None,,,,,,,,,,,,,,,,,,,,,,7382,1,2025-06-21_11h07.10.350,sm,2024.2.4,59.982173297974455,2025-06-21 11h07.31.692315 +0200,
5,0,5,,,,,,space,2.108840200000486,None,None,3,1.5348119000000224,0.2922380999998495,None,0,0,0,0,,,,,0,0,0,0,,,,,5,0,5,0,193.07798100000036,,,,,,,,,,,,,,,,,,,,,,,,,,,,,,,,,,,,,,,,,,,,,,,,,,,,,,,,,Dip,3.9651,193.06327800000054,193.06378829999994,193.06389780000063,193.07798100000036,197.04413960000056,197.03066430000035,197.03423079999993,197.04413960000056,197.04413960000056,197.04413960000056,197.04413960000056,199.04438650000066,199.04438650000066,199.04438650000066,199.04438650000066,199.02908860000025,3,1.5348119000000224,0.2922380999998495,None,,,,,,,,,,,,,,,,,,,,,,7382,1,2025-06-21_11h07.10.350,sm,2024.2.4,59.982173297974455,2025-06-21 11h07.31.692315 +0200,
6,0,6,,,,,,space,2.108840200000486,None,None,3,0.933745799999997,0.25939780000044266,None,0,0,0,0,,,,,0,0,0,0,,,,,6,0,6,0,199.04438650000066,,,,,,,,,,,,,,,,,,,,,,,,,,,,,,,,,,,,,,,,,,,,,,,,,,,,,,,,,Bluse,3.1678,199.02959770000052,199.03011620000052,199.03022000000055,199.04438650000066,202.2274309000004,202.21186490000036,202.2159916999999,202.2274309000004,202.2274309000004,202.2274309000004,202.2274309000004,204.22741860000042,204.22741860000042,204.22741860000042,204.22741860000042,204.21187050000026,3,0.933745799999997,0.25939780000044266,None,,,,,,,,,,,,,,,,,,,,,,7382,1,2025-06-21_11h07.10.350,sm,2024.2.4,59.982173297974455,2025-06-21 11h07.31.692315 +0200,
7,0,7,,,,,,space,2.108840200000486,None,None,2,0.6997040000005654,0.19385609999972075,None,0,0,0,0,,,,,0,0,0,0,,,,,7,0,7,0,204.22741860000042,,,,,,,,,,,,,,,,,,,,,,,,,,,,,,,,,,,,,,,,,,,,,,,,,,,,,,,,,Ozean,2.4291,204.21237930000007,204.21289530000013,204.2130003000002,204.22741860000042,206.66069810000045,206.6453388,206.6517388000002,206.66069810000045,206.66069810000045,206.66069810000045,206.66069810000045,208.6604137000004,208.6604137000004,208.6604137000004,208.6604137000004,208.6450721000001,2,0.6997040000005654,0.19385609999972075,None,,,,,,,,,,,,,,,,,,,,,,7382,1,2025-06-21_11h07.10.350,sm,2024.2.4,59.982173297974455,2025-06-21 11h07.31.692315 +0200,
8,0,8,,,,,,space,2.108840200000486,None,None,3,0.9766069999996034,0.32969860000048357,None,0,0,0,0,,,,,0,0,0,0,,,,,8,0,8,0,208.6604137000004,,,,,,,,,,,,,,,,,,,,,,,,,,,,,,,,,,,,,,,,,,,,,,,,,,,,,,,,,Diamant,3.248,208.64558980000038,208.64610080000057,208.64620600000035,208.6604137000004,211.91074149999986,211.8944792000002,211.89851110000018,211.91074149999986,211.91074149999986,211.91074149999986,211.91074149999986,213.91010069999993,213.91010069999993,213.91010069999993,213.91010069999993,213.89470400000027,3,0.9766069999996034,0.32969860000048357,None,,,,,,,,,,,,,,,,,,,,,,7382,1,2025-06-21_11h07.10.350,sm,2024.2.4,59.982173297974455,2025-06-21 11h07.31.692315 +0200,
9,0,9,,,,,,space,2.108840200000486,None,None,3,0.9336665999999241,0.28001789999962057,None,0,0,0,0,,,,,0,0,0,0,,,,,9,0,9,0,213.91010069999993,,,,,,,,,,,,,,,,,,,,,,,,,,,,,,,,,,,,,,,,,,,,,,,,,,,,,,,,,Brille,2.2842,213.89521409999998,213.89578340000025,213.8958878000003,213.91010069999993,216.19325780000054,216.17777860000024,216.18179630000031,216.19325780000054,216.19325780000054,216.19325780000054,216.19325780000054,218.19317589999991,218.19317589999991,218.19317589999991,218.19317589999991,218.1777643000005,3,0.9336665999999241,0.28001789999962057,None,,,,,,,,,,,,,,,,,,,,,,7382,1,2025-06-21_11h07.10.350,sm,2024.2.4,59.982173297974455,2025-06-21 11h07.31.692315 +0200,
10,0,10,,,,,,space,2.108840200000486,None,None,2,0.6337439999997514,0.18029790000036883,None,0,0,0,0,,,,,0,0,0,0,,,,,10,0,10,0,218.19317589999991,,,,,,,,,,,,,,,,,,,,,,,,,,,,,,,,,,,,,,,,,,,,,,,,,,,,,,,,,Fuß,2.7267,218.17827519999992,218.1788671000004,218.17897260000063,218.19317589999991,220.9261774000006,220.9106499999998,220.91615139999976,220.9261774000006,220.9261774000006,220.9261774000006,220.9261774000006,222.92633990000013,222.92633990000013,222.92633990000013,222.92633990000013,222.9106829000002,2,0.6337439999997514,0.18029790000036883,None,,,,,,,,,,,,,,,,,,,,,,7382,1,2025-06-21_11h07.10.350,sm,2024.2.4,59.982173297974455,2025-06-21 11h07.31.692315 +0200,
11,0,11,,,,,,space,2.108840200000486,None,None,2,0.7635371999995186,0.2240183000003526,None,0,0,0,0,,,,,0,0,0,0,,,,,11,0,11,0,222.92633990000013,,,,,,,,,,,,,,,,,,,,,,,,,,,,,,,,,,,,,,,,,,,,,,,,,,,,,,,,,Bruder,2.7768,222.91118950000055,222.91183550000005,222.9119412,222.92633990000013,225.70949980000023,225.6937923000005,225.69750360000035,225.70949980000023,225.70949980000023,225.70949980000023,225.70949980000023,227.70944130000044,227.70944130000044,227.70944130000044,227.70944130000044,227.6939452000006,2,0.7635371999995186,0.2240183000003526,None,,,,,,,,,,,,,,,,,,,,,,7382,1,2025-06-21_11h07.10.350,sm,2024.2.4,59.982173297974455,2025-06-21 11h07.31.692315 +0200,
12,0,12,,,,,,space,2.108840200000486,None,None,2,0.6784665999994104,0.17036890000053972,None,0,0,0,0,,,,,0,0,0,0,,,,,12,0,12,0,227.70944130000044,,,,,,,,,,,,,,,,,,,,,,,,,,,,,,,,,,,,,,,,,,,,,,,,,,,,,,,,,Feuer,2.086,227.69444879999992,227.69510600000012,227.69520939999984,227.70944130000044,229.80911449999985,229.7937539000004,229.79766990000007,229.80911449999985,229.80911449999985,229.80911449999985,229.80911449999985,231.80924080000023,231.80924080000023,231.80924080000023,231.80924080000023,231.79362200000014,2,0.6784665999994104,0.17036890000053972,None,,,,,,,,,,,,,,,,,,,,,,7382,1,2025-06-21_11h07.10.350,sm,2024.2.4,59.982173297974455,2025-06-21 11h07.31.692315 +0200,
13,0,13,,,,,,space,2.108840200000486,None,None,2,0.6796463000000585,0.16155779999917286,None,0,0,0,0,,,,,0,0,0,0,,,,,13,0,13,0,231.80924080000023,,,,,,,,,,,,,,,,,,,,,,,,,,,,,,,,,,,,,,,,,,,,,,,,,,,,,,,,,Akrobatin,2.6163,231.79412539999976,231.7946718000003,231.7947763000002,231.80924080000023,234.42564760000005,234.40985319999982,234.41371909999998,234.42564760000005,234.42564760000005,234.42564760000005,234.42564760000005,236.42550970000048,236.42550970000048,236.42550970000048,236.42550970000048,236.40996350000023,2,0.6796463000000585,0.16155779999917286,None,,,,,,,,,,,,,,,,,,,,,,7382,1,2025-06-21_11h07.10.350,sm,2024.2.4,59.982173297974455,2025-06-21 11h07.31.692315 +0200,
14,0,14,,,,,,space,2.108840200000486,None,None,3,0.8045865000003687,0.3065612999998848,None,0,0,0,0,,,,,0,0,0,0,,,,,14,0,14,0,236.42550970000048,,,,,,,,,,,,,,,,,,,,,,,,,,,,,,,,,,,,,,,,,,,,,,,,,,,,,,,,,Trocken,2.4983,236.41046189999997,236.4111210000001,236.41122450000057,236.42550970000048,238.92534460000024,238.9101341000005,238.91512800000055,238.92534460000024,238.92534460000024,238.92534460000024,238.92534460000024,240.92533509999976,240.92533509999976,240.92533509999976,240.92533509999976,240.90999139999985,3,0.8045865000003687,0.3065612999998848,None,,,,,,,,,,,,,,,,,,,,,,7382,1,2025-06-21_11h07.10.350,sm,2024.2.4,59.982173297974455,2025-06-21 11h07.31.692315 +0200,
15,0,15,,,,,,space,2.108840200000486,None,None,3,1.0396961999995256,0.21636970000054134,None,0,0,0,0,,,,,0,0,0,0,,,,,15,0,15,0,240.92533509999976,,,,,,,,,,,,,,,,,,,,,,,,,,,,,,,,,,,,,,,,,,,,,,,,,,,,,,,,,Berg,3.2746,240.91049980000025,240.91101460000027,240.9111257000004,240.92533509999976,244.2083934000002,244.19278360000044,244.19648400000005,244.2083934000002,244.2083934000002,244.2083934000002,244.2083934000002,246.20832380000047,246.20832380000047,246.20832380000047,246.20832380000047,246.19275759999982,3,1.0396961999995256,0.21636970000054134,None,,,,,,,,,,,,,,,,,,,,,,7382,1,2025-06-21_11h07.10.350,sm,2024.2.4,59.982173297974455,2025-06-21 11h07.31.692315 +0200,
16,0,16,,,,,,space,2.108840200000486,None,None,2,1.200619799999913,0.21530879999954777,None,0,0,0,0,,,,,0,0,0,0,,,,,16,0,16,0,246.20832380000047,,,,,,,,,,,,,,,,,,,,,,,,,,,,,,,,,,,,,,,,,,,,,,,,,,,,,,,,,Anführer,2.977,246.19326439999986,246.19378849999976,246.1938922999998,246.20832380000047,249.19110890000047,249.17569439999988,249.17934310000055,249.19110890000047,249.19110890000047,249.19110890000047,249.19110890000047,251.19143160000021,251.19143160000021,251.19143160000021,251.19143160000021,251.17564800000036,2,1.200619799999913,0.21530879999954777,None,,,,,,,,,,,,,,,,,,,,,,7382,1,2025-06-21_11h07.10.350,sm,2024.2.4,59.982173297974455,2025-06-21 11h07.31.692315 +0200,
17,0,17,,,,,,space,2.108840200000486,None,None,2,1.1589844999998604,0.22428279999985534,None,0,0,0,0,,,,,0,0,0,0,,,,,17,0,17,0,251.19143160000021,,,,,,,,,,,,,,,,,,,,,,,,,,,,,,,,,,,,,,,,,,,,,,,,,,,,,,,,,Weihnachten,5.2861,251.17616100000032,251.17667970000002,251.17678539999997,251.19143160000021,256.49114830000053,256.4755638000006,256.4800941000003,256.49114830000053,256.49114830000053,256.49114830000053,256.49114830000053,258.4912460000005,258.4912460000005,258.4912460000005,258.4912460000005,258.4754096000006,2,1.1589844999998604,0.22428279999985534,None,,,,,,,,,,,,,,,,,,,,,,7382,1,2025-06-21_11h07.10.350,sm,2024.2.4,59.982173297974455,2025-06-21 11h07.31.692315 +0200,
18,0,18,,,,,,space,2.108840200000486,None,None,2,1.6780750999996599,0.2220476000002236,None,0,0,0,0,,,,,0,0,0,0,,,,,18,0,18,0,258.4912460000005,,,,,,,,,,,,,,,,,,,,,,,,,,,,,,,,,,,,,,,,,,,,,,,,,,,,,,,,,Augen,2.8287,258.4759085000005,258.47643750000043,258.4765431000005,258.4912460000005,261.32449859999997,261.30820889999995,261.31156329999976,261.32449859999997,261.32449859999997,261.32449859999997,261.32449859999997,263.3239775000002,263.3239775000002,263.3239775000002,263.3239775000002,263.3083267000002,2,1.6780750999996599,0.2220476000002236,None,,,,,,,,,,,,,,,,,,,,,,7382,1,2025-06-21_11h07.10.350,sm,2024.2.4,59.982173297974455,2025-06-21 11h07.31.692315 +0200,
19,0,19,,,,,,space,2.108840200000486,None,None,3,1.209839899999679,0.37109740000050806,None,0,0,0,0,,,,,0,0,0,0,,,,,19,0,19,0,263.3239775000002,,,,,,,,,,,,,,,,,,,,,,,,,,,,,,,,,,,,,,,,,,,,,,,,,,,,,,,,,Geschäft,2.2646,263.30882930000007,263.3093641000005,263.3094701,263.3239775000002,265.59111180000036,265.5746601999999,265.5781887000003,265.59111180000036,265.59111180000036,265.59111180000036,265.59111180000036,267.5907465,267.5907465,267.5907465,267.5907465,267.5748302000002,3,1.209839899999679,0.37109740000050806,None,,,,,,,,,,,,,,,,,,,,,,7382,1,2025-06-21_11h07.10.350,sm,2024.2.4,59.982173297974455,2025-06-21 11h07.31.692315 +0200,
20,0,20,,,,,,space,2.108840200000486,None,None,2,0.6987245999998777,0.24767199999951117,None,0,0,0,0,,,,,0,0,0,0,,,,,20,0,20,0,267.5907465,,,,,,,,,,,,,,,,,,,,,,,,,,,,,,,,,,,,,,,,,,,,,,,,,,,,,,,,,Afrika,2.1673,267.57534080000005,267.5758544,267.57595740000033,267.5907465,269.7735250000005,269.75799259999985,269.7621312000001,269.7735250000005,269.7735250000005,269.7735250000005,269.7735250000005,271.7739670000001,271.7739670000001,271.7739670000001,271.7739670000001,271.7580435,2,0.6987245999998777,0.24767199999951117,None,,,,,,,,,,,,,,,,,,,,,,7382,1,2025-06-21_11h07.10.350,sm,2024.2.4,59.982173297974455,2025-06-21 11h07.31.692315 +0200,
21,0,21,,,,,,space,2.108840200000486,None,None,3,0.7568770999996559,0.2696875999999975,None,0,0,0,0,,,,,0,0,0,0,,,,,21,0,21,0,271.7739670000001,,,,,,,,,,,,,,,,,,,,,,,,,,,,,,,,,,,,,,,,,,,,,,,,,,,,,,,,,Soße,3.1169,271.7585499000006,271.75905580000017,271.75916190000044,271.7739670000001,274.8898896999999,274.8743432000001,274.8787467000002,274.8898896999999,274.8898896999999,274.8898896999999,274.8898896999999,276.8899124999998,276.8899124999998,276.8899124999998,276.8899124999998,276.8745018999998,3,0.7568770999996559,0.2696875999999975,None,,,,,,,,,,,,,,,,,,,,,,7382,1,2025-06-21_11h07.10.350,sm,2024.2.4,59.982173297974455,2025-06-21 11h07.31.692315 +0200,
22,0,22,,,,,,space,2.108840200000486,None,None,2,0.7258037999999942,0.15861840000070515,None,0,0,0,0,,,,,0,0,0,0,,,,,22,0,22,0,276.8899124999998,,,,,,,,,,,,,,,,,,,,,,,,,,,,,,,,,,,,,,,,,,,,,,,,,,,,,,,,,Sport,3.4187,276.87501470000007,276.87553350000053,276.8756383,276.8899124999998,280.3229570000003,280.3071991000006,280.31073900000047,280.3229570000003,280.3229570000003,280.3229570000003,280.3229570000003,282.3229986000006,282.3229986000006,282.3229986000006,282.3229986000006,282.30727970000044,2,0.7258037999999942,0.15861840000070515,None,,,,,,,,,,,,,,,,,,,,,,7382,1,2025-06-21_11h07.10.350,sm,2024.2.4,59.982173297974455,2025-06-21 11h07.31.692315 +0200,
23,0,23,,,,,,space,2.108840200000486,None,None,2,1.7494533999997657,None,None,0,0,0,0,,,,,0,0,0,0,,,,,23,0,23,0,282.3229986000006,,,,,,,,,,,,,,,,,,,,,,,,,,,,,,,,,,,,,,,,,,,,,,,,,,,,,,,,,Apfel,4.3798,282.30778700000064,282.30832499999997,282.30842980000034,282.3229986000006,286.70603219999975,286.6902095000005,286.69381859999976,286.70603219999975,286.70603219999975,286.70603219999975,286.70603219999975,288.7060599000006,288.7060599000006,288.7060599000006,288.7060599000006,288.6901843000005,2,1.7494533999997657,None,None,,,,,,,,,,,,,,,,,,,,,,7382,1,2025-06-21_11h07.10.350,sm,2024.2.4,59.982173297974455,2025-06-21 11h07.31.692315 +0200,
24,0,24,,,,,,space,2.108840200000486,None,None,2,1.070397899999989,0.2194945999999618,None,0,0,0,0,,,,,0,0,0,0,,,,,24,0,24,0,288.7060599000006,,,,,,,,,,,,,,,,,,,,,,,,,,,,,,,,,,,,,,,,,,,,,,,,,,,,,,,,,Gast,2.538,288.69069130000025,288.6913206999998,288.6914267000002,288.7060599000006,291.2555103000004,291.23997380000037,291.2430857999998,291.2555103000004,291.2555103000004,291.2555103000004,291.2555103000004,293.25555630000053,293.25555630000053,293.25555630000053,293.25555630000053,293.2400932999999,2,1.070397899999989,0.2194945999999618,None,,,,,,,,,,,,,,,,,,,,,,7382,1,2025-06-21_11h07.10.350,sm,2024.2.4,59.982173297974455,2025-06-21 11h07.31.692315 +0200,
25,0,25,,,,,,space,2.108840200000486,None,None,2,0.649857699999302,0.23325260000001435,None,0,0,0,0,,,,,0,0,0,0,,,,,25,0,25,0,293.25555630000053,,,,,,,,,,,,,,,,,,,,,,,,,,,,,,,,,,,,,,,,,,,,,,,,,,,,,,,,,Fledermaus,2.9083,293.24059450000004,293.2412443000003,293.24134610000056,293.25555630000053,296.1721206000002,296.1563178000006,296.1604619999998,296.1721206000002,296.1721206000002,296.1721206000002,296.1721206000002,298.1724992999998,298.1724992999998,298.1724992999998,298.1724992999998,298.1559593000002,2,0.649857699999302,0.23325260000001435,None,,,,,,,,,,,,,,,,,,,,,,7382,1,2025-06-21_11h07.10.350,sm,2024.2.4,59.982173297974455,2025-06-21 11h07.31.692315 +0200,
26,0,26,,,,,,space,2.108840200000486,None,None,3,0.9885664000003089,0.42671320000044943,None,0,0,0,0,,,,,0,0,0,0,,,,,26,0,26,0,298.1724992999998,,,,,,,,,,,,,,,,,,,,,,,,,,,,,,,,,,,,,,,,,,,,,,,,,,,,,,,,,Fernseher,2.6364,298.1563571000006,298.1569020000006,298.1569851000004,298.1724992999998,300.82174530000066,300.80604980000044,300.80963359999987,300.82174530000066,300.82174530000066,300.82174530000066,300.82174530000066,302.8216683999999,302.8216683999999,302.8216683999999,302.8216683999999,302.8060690000002,3,0.9885664000003089,0.42671320000044943,None,,,,,,,,,,,,,,,,,,,,,,7382,1,2025-06-21_11h07.10.350,sm,2024.2.4,59.982173297974455,2025-06-21 11h07.31.692315 +0200,
27,0,27,,,,,,space,2.108840200000486,None,None,2,0.6909166999994341,0.17457759999979316,None,0,0,0,0,,,,,0,0,0,0,,,,,27,0,27,0,302.8216683999999,,,,,,,,,,,,,,,,,,,,,,,,,,,,,,,,,,,,,,,,,,,,,,,,,,,,,,,,,Theater,2.6246,302.80657299999984,302.80722270000024,302.80732609999995,302.8216683999999,305.4549125000003,305.43927110000004,305.4442915999998,305.4549125000003,305.4549125000003,305.4549125000003,305.4549125000003,307.4548369000004,307.4548369000004,307.4548369000004,307.4548369000004,307.4392896999998,2,0.6909166999994341,0.17457759999979316,None,,,,,,,,,,,,,,,,,,,,,,7382,1,2025-06-21_11h07.10.350,sm,2024.2.4,59.982173297974455,2025-06-21 11h07.31.692315 +0200,
28,0,28,,,,,,space,2.108840200000486,None,None,3,1.411394200000359,0.23694909999994707,None,0,0,0,0,,,,,0,0,0,0,,,,,28,0,28,0,307.4548369000004,,,,,,,,,,,,,,,,,,,,,,,,,,,,,,,,,,,,,,,,,,,,,,,,,,,,,,,,,Weltraum,2.5392,307.43979880000006,307.44031670000004,307.4404183000006,307.4548369000004,310.0045871000002,309.98887580000064,309.99286500000017,310.0045871000002,310.0045871000002,310.0045871000002,310.0045871000002,312.0045446000004,312.0045446000004,312.0045446000004,312.0045446000004,311.98918610000055,3,1.411394200000359,0.23694909999994707,None,,,,,,,,,,,,,,,,,,,,,,7382,1,2025-06-21_11h07.10.350,sm,2024.2.4,59.982173297974455,2025-06-21 11h07.31.692315 +0200,
29,0,29,,,,,,space,2.108840200000486,None,None,3,1.4381188999996084,0.3136035000006814,None,0,0,0,0,,,,,0,0,0,0,,,,,29,0,29,0,312.0045446000004,,,,,,,,,,,,,,,,,,,,,,,,,,,,,,,,,,,,,,,,,,,,,,,,,,,,,,,,,Bild,2.5435,311.9896625000001,311.99015469999995,311.99025130000064,312.0045446000004,314.5545176000005,314.5390838000003,314.54249230000005,314.5545176000005,314.5545176000005,314.5545176000005,314.5545176000005,316.55412700000034,316.55412700000034,316.55412700000034,316.55412700000034,316.5387642000005,3,1.4381188999996084,0.3136035000006814,None,,,,,,,,,,,,,,,,,,,,,,7382,1,2025-06-21_11h07.10.350,sm,2024.2.4,59.982173297974455,2025-06-21 11h07.31.692315 +0200,
30,0,30,,,,,,space,2.108840200000486,None,None,2,1.7547183000006044,None,None,0,0,0,0,,,,,0,0,0,0,,,,,30,0,30,0,316.55412700000034,,,,,,,,,,,,,,,,,,,,,,,,,,,,,,,,,,,,,,,,,,,,,,,,,,,,,,,,,Pflege,2.5481,316.53927250000015,316.5397911,316.5398937,316.55412700000034,319.1039746000006,319.0884237999999,319.09213890000046,319.1039746000006,319.1039746000006,319.1039746000006,319.1039746000006,321.1040770999998,321.1040770999998,321.1040770999998,321.1040770999998,321.08853009999984,2,1.7547183000006044,None,None,,,,,,,,,,,,,,,,,,,,,,7382,1,2025-06-21_11h07.10.350,sm,2024.2.4,59.982173297974455,2025-06-21 11h07.31.692315 +0200,
31,0,31,,,,,,space,2.108840200000486,None,None,2,0.7817218999998659,0.25630799999999,None,0,0,0,0,,,,,0,0,0,0,,,,,31,0,31,0,321.1040770999998,,,,,,,,,,,,,,,,,,,,,,,,,,,,,,,,,,,,,,,,,,,,,,,,,,,,,,,,,Essen,4.7207,321.08902880000005,321.0896856999998,321.0897893000001,321.1040770999998,325.8371554000005,325.82157030000053,325.82578040000044,325.8371554000005,325.8371554000005,325.8371554000005,325.8371554000005,327.83708620000016,327.83708620000016,327.83708620000016,327.83708620000016,327.8215965999998,2,0.7817218999998659,0.25630799999999,None,,,,,,,,,,,,,,,,,,,,,,7382,1,2025-06-21_11h07.10.350,sm,2024.2.4,59.982173297974455,2025-06-21 11h07.31.692315 +0200,
32,0,32,,,,,,space,2.108840200000486,None,None,3,0.8473071999997046,0.5930231000002095,None,0,0,0,0,,,,,0,0,0,0,,,,,32,0,32,0,327.83708620000016,,,,,,,,,,,,,,,,,,,,,,,,,,,,,,,,,,,,,,,,,,,,,,,,,,,,,,,,,Sack,3.105,327.8221056000002,327.8227758000003,327.8228841,327.83708620000016,330.95326960000057,330.9377292999998,330.9408013000002,330.95326960000057,330.95326960000057,330.95326960000057,330.95326960000057,332.95316530000036,332.95316530000036,332.95316530000036,332.95316530000036,332.9376639000002,3,0.8473071999997046,0.5930231000002095,None,,,,,,,,,,,,,,,,,,,,,,7382,1,2025-06-21_11h07.10.350,sm,2024.2.4,59.982173297974455,2025-06-21 11h07.31.692315 +0200,
33,0,33,,,,,,space,2.108840200000486,None,None,2,0.6810716999998476,0.2466721000000689,None,0,0,0,0,,,,,0,0,0,0,,,,,33,0,33,0,332.95316530000036,,,,,,,,,,,,,,,,,,,,,,,,,,,,,,,,,,,,,,,,,,,,,,,,,,,,,,,,,Spinne,2.3009,332.9381628000001,332.9388211000005,332.9389234,332.95316530000036,335.25311020000026,335.2374182000003,335.24137840000003,335.25311020000026,335.25311020000026,335.25311020000026,335.25311020000026,337.2530010999999,337.2530010999999,337.2530010999999,337.2530010999999,337.2373597000005,2,0.6810716999998476,0.2466721000000689,None,,,,,,,,,,,,,,,,,,,,,,7382,1,2025-06-21_11h07.10.350,sm,2024.2.4,59.982173297974455,2025-06-21 11h07.31.692315 +0200,
34,0,34,,,,,,space,2.108840200000486,None,None,3,1.3042726000003313,0.3610149999994974,None,0,0,0,0,,,,,0,0,0,0,,,,,34,0,34,0,337.2530010999999,,,,,,,,,,,,,,,,,,,,,,,,,,,,,,,,,,,,,,,,,,,,,,,,,,,,,,,,,Strand,3.2371,337.2378693999999,337.23838109999997,337.2384849,337.2530010999999,340.5026690000004,340.48701170000004,340.4915090000004,340.5026690000004,340.5026690000004,340.5026690000004,340.5026690000004,342.5028190000003,342.5028190000003,342.5028190000003,342.5028190000003,342.48750740000014,3,1.3042726000003313,0.3610149999994974,None,,,,,,,,,,,,,,,,,,,,,,7382,1,2025-06-21_11h07.10.350,sm,2024.2.4,59.982173297974455,2025-06-21 11h07.31.692315 +0200,
35,0,35,,,,,,space,2.108840200000486,None,None,2,1.646990499999447,0.19980300000042917,None,0,0,0,0,,,,,0,0,0,0,,,,,35,0,35,0,342.5028190000003,,,,,,,,,,,,,,,,,,,,,,,,,,,,,,,,,,,,,,,,,,,,,,,,,,,,,,,,,Duft,2.2286,342.4880189000005,342.48854310000024,342.4886512000003,342.5028190000003,344.7360597000006,344.72000130000015,344.7229832000003,344.7360597000006,344.7360597000006,344.7360597000006,344.7360597000006,346.73579900000004,346.73579900000004,346.73579900000004,346.73579900000004,346.72023530000024,2,1.646990499999447,0.19980300000042917,None,,,,,,,,,,,,,,,,,,,,,,7382,1,2025-06-21_11h07.10.350,sm,2024.2.4,59.982173297974455,2025-06-21 11h07.31.692315 +0200,
36,0,36,,,,,,space,2.108840200000486,None,None,3,0.8623921999997037,0.3330998000001273,None,0,0,0,0,,,,,0,0,0,0,,,,,36,0,36,0,346.73579900000004,,,,,,,,,,,,,,,,,,,,,,,,,,,,,,,,,,,,,,,,,,,,,,,,,,,,,,,,,Schleim,2.9885,346.72075510000013,346.7212709000005,346.7213754000004,346.73579900000004,349.7352695999998,349.71991049999997,349.7236536999999,349.7352695999998,349.7352695999998,349.7352695999998,349.7352695999998,351.73556819999976,351.73556819999976,351.73556819999976,351.73556819999976,351.72024260000035,3,0.8623921999997037,0.3330998000001273,None,,,,,,,,,,,,,,,,,,,,,,7382,1,2025-06-21_11h07.10.350,sm,2024.2.4,59.982173297974455,2025-06-21 11h07.31.692315 +0200,
37,0,37,,,,,,space,2.108840200000486,None,None,3,1.6329408999999941,None,None,0,0,0,0,,,,,0,0,0,0,,,,,37,0,37,0,351.73556819999976,,,,,,,,,,,,,,,,,,,,,,,,,,,,,,,,,,,,,,,,,,,,,,,,,,,,,,,,,Zucker,2.2368,351.7207463000004,351.72133829999984,351.72144220000064,351.73556819999976,353.9853086000003,353.96980580000036,353.97376970000005,353.9853086000003,353.9853086000003,353.9853086000003,353.9853086000003,355.98526459999994,355.98526459999994,355.98526459999994,355.98526459999994,355.96977810000044,3,1.6329408999999941,None,None,,,,,,,,,,,,,,,,,,,,,,7382,1,2025-06-21_11h07.10.350,sm,2024.2.4,59.982173297974455,2025-06-21 11h07.31.692315 +0200,
38,0,38,,,,,,space,2.108840200000486,None,None,None,,,None,0,0,0,0,,,,,0,0,0,0,,,,,38,0,38,0,355.98526459999994,,,,,,,,,,,,,,,,,,,,,,,,,,,,,,,,,,,,,,,,,,,,,,,,,,,,,,,,,Kuchen ,3.442,355.9702828999998,355.9709655000006,355.97106880000047,355.98526459999994,359.4350021,359.41956180000034,359.42680199999995,359.4350021,359.4350021,359.4350021,359.4350021,361.4351539999998,361.4351539999998,361.4351539999998,361.4351539999998,361.4194584000006,None,,,None,,,,,,,,,,,,,,,,,,,,,,7382,1,2025-06-21_11h07.10.350,sm,2024.2.4,59.982173297974455,2025-06-21 11h07.31.692315 +0200,
39,0,39,,,,,,space,2.108840200000486,None,None,3,1.2616397000001598,0.31728730000031646,None,0,0,0,0,,,,,0,0,0,0,,,,,39,0,39,0,361.4351539999998,,,,,,,,,,,,,,,,,,,,,,,,,,,,,,,,,,,,,,,,,,,,,,,,,,,,,,,,,Waschbecken,2.4268,361.4199776000005,361.4206272000001,361.4207833999999,361.4351539999998,363.86800310000035,363.85245250000025,363.85663380000005,363.86800310000035,363.86800310000035,363.86800310000035,363.86800310000035,365.86803659999987,365.86803659999987,365.86803659999987,365.86803659999987,365.8526775,3,1.2616397000001598,0.31728730000031646,None,,,,,,,,,,,,,,,,,,,,,,7382,1,2025-06-21_11h07.10.350,sm,2024.2.4,59.982173297974455,2025-06-21 11h07.31.692315 +0200,
40,0,40,,,,,,space,2.108840200000486,None,None,2,0.7577867999998489,0.20609289999993052,None,0,0,0,0,,,,,0,0,0,0,,,,,40,0,40,0,365.86803659999987,,,,,,,,,,,,,,,,,,,,,,,,,,,,,,,,,,,,,,,,,,,,,,,,,,,,,,,,,Gespräch,2.5273,365.8531916000002,365.85377040000003,365.85389570000007,365.86803659999987,368.4010623000004,368.3855521000005,368.3898742000001,368.4010623000004,368.4010623000004,368.4010623000004,368.4010623000004,370.4011844000006,370.4011844000006,370.4011844000006,370.4011844000006,370.38603909999983,2,0.7577867999998489,0.20609289999993052,None,,,,,,,,,,,,,,,,,,,,,,7382,1,2025-06-21_11h07.10.350,sm,2024.2.4,59.982173297974455,2025-06-21 11h07.31.692315 +0200,
41,0,41,,,,,,space,2.108840200000486,None,None,3,1.0627715000000535,0.5143340000004173,None,0,0,0,0,,,,,0,0,0,0,,,,,41,0,41,0,370.4011844000006,,,,,,,,,,,,,,,,,,,,,,,,,,,,,,,,,,,,,,,,,,,,,,,,,,,,,,,,,Shampoo,2.9833,370.38654380000025,370.38707870000053,370.3871829999998,370.4011844000006,373.3858528999999,373.36860460000025,373.37286570000015,373.3858528999999,373.3858528999999,373.3858528999999,373.3858528999999,,,,,375.38454510000065,3,1.0627715000000535,0.5143340000004173,None,,,,,,,,,,,,,,,,,,,,,,7382,1,2025-06-21_11h07.10.350,sm,2024.2.4,59.982173297974455,2025-06-21 11h07.31.692315 +0200,
42,0,42,,,,,,space,2.108840200000486,None,None,3,1.0813881000003676,0.3709826999993311,None,0,0,0,0,,,,,0,0,0,0,,,,,42,0,42,0,375.4008021999998,,,,,,,,,,,,,,,,,,,,,,,,,,,,,,,,,,,,,,,,,,,,,,,,,,,,,,,,,Winter,2.1175,375.38505429999987,375.38571760000013,375.3858320999998,375.4008021999998,377.51753689999987,377.5020322999999,377.50594379999984,377.51753689999987,377.51753689999987,377.51753689999987,377.51753689999987,379.5173456000002,379.5173456000002,379.5173456000002,379.5173456000002,379.5015934000003,3,1.0813881000003676,0.3709826999993311,None,,,,,,,,,,,,,,,,,,,,,,7382,1,2025-06-21_11h07.10.350,sm,2024.2.4,59.982173297974455,2025-06-21 11h07.31.692315 +0200,
43,0,43,,,,,,space,2.108840200000486,None,None,3,0.7863177999997788,0.3809872000001633,None,0,0,0,0,,,,,0,0,0,0,,,,,43,0,43,0,379.5173456000002,,,,,,,,,,,,,,,,,,,,,,,,,,,,,,,,,,,,,,,,,,,,,,,,,,,,,,,,,Mappe,3.4498,379.5021000000006,379.5027415000004,379.50284569999985,379.5173456000002,382.9676530000006,382.95130830000016,382.9549856000003,382.9676530000006,382.9676530000006,382.9676530000006,382.9676530000006,384.9670463000002,384.9670463000002,384.9670463000002,384.9670463000002,384.9515704000005,3,0.7863177999997788,0.3809872000001633,None,,,,,,,,,,,,,,,,,,,,,,7382,1,2025-06-21_11h07.10.350,sm,2024.2.4,59.982173297974455,2025-06-21 11h07.31.692315 +0200,
44,0,44,,,,,,space,2.108840200000486,None,None,2,0.821971699999267,0.25073040000006586,None,0,0,0,0,,,,,0,0,0,0,,,,,44,0,44,0,384.9670463000002,,,,,,,,,,,,,,,,,,,,,,,,,,,,,,,,,,,,,,,,,,,,,,,,,,,,,,,,,Kunde,2.1514,384.95207970000047,384.95259950000036,384.95270510000046,384.9670463000002,387.1333267,387.1177888000002,387.1221913999998,387.1333267,387.1333267,387.1333267,387.1333267,389.1334004999999,389.1334004999999,389.1334004999999,389.1334004999999,389.1183484000003,2,0.821971699999267,0.25073040000006586,None,,,,,,,,,,,,,,,,,,,,,,7382,1,2025-06-21_11h07.10.350,sm,2024.2.4,59.982173297974455,2025-06-21 11h07.31.692315 +0200,
45,0,45,,,,,,space,2.108840200000486,None,None,2,0.8938639000007242,0.24592779999966297,None,0,0,0,0,,,,,0,0,0,0,,,,,45,0,45,0,389.1334004999999,,,,,,,,,,,,,,,,,,,,,,,,,,,,,,,,,,,,,,,,,,,,,,,,,,,,,,,,,Applaus,2.0219,389.1188540000003,389.1193647,389.11946760000046,389.1334004999999,391.16667400000006,391.15058880000015,391.15399440000056,391.16667400000006,391.16667400000006,391.16667400000006,391.16667400000006,393.1667756000006,393.1667756000006,393.1667756000006,393.1667756000006,393.1508797000006,2,0.8938639000007242,0.24592779999966297,None,,,,,,,,,,,,,,,,,,,,,,7382,1,2025-06-21_11h07.10.350,sm,2024.2.4,59.982173297974455,2025-06-21 11h07.31.692315 +0200,
46,0,46,,,,,,space,2.108840200000486,None,None,3,0.9337480000003779,0.34961049999947136,None,0,0,0,0,,,,,0,0,0,0,,,,,46,0,46,0,393.1667756000006,,,,,,,,,,,,,,,,,,,,,,,,,,,,,,,,,,,,,,,,,,,,,,,,,,,,,,,,,Marmor,4.4498,393.1513958000005,393.15204300000005,393.1521442000003,393.1667756000006,397.6160540000001,397.6004374000004,397.60482090000005,397.6160540000001,397.6160540000001,397.6160540000001,397.6160540000001,399.6160077000004,399.6160077000004,399.6160077000004,399.6160077000004,399.60091420000026,3,0.9337480000003779,0.34961049999947136,None,,,,,,,,,,,,,,,,,,,,,,7382,1,2025-06-21_11h07.10.350,sm,2024.2.4,59.982173297974455,2025-06-21 11h07.31.692315 +0200,
47,0,47,,,,,,space,2.108840200000486,None,None,3,0.9449466000005486,0.2778578999996171,None,0,0,0,0,,,,,0,0,0,0,,,,,47,0,47,0,399.6160077000004,,,,,,,,,,,,,,,,,,,,,,,,,,,,,,,,,,,,,,,,,,,,,,,,,,,,,,,,,Alligator,2.3189,399.60141120000026,399.60191920000034,399.60202410000056,399.6160077000004,401.9492882000004,401.93355770000016,401.93733820000034,401.9492882000004,401.9492882000004,401.9492882000004,401.9492882000004,403.9496439000004,403.9496439000004,403.9496439000004,403.9496439000004,403.9335952000001,3,0.9449466000005486,0.2778578999996171,None,,,,,,,,,,,,,,,,,,,,,,7382,1,2025-06-21_11h07.10.350,sm,2024.2.4,59.982173297974455,2025-06-21 11h07.31.692315 +0200,
48,0,48,,,,,,space,2.108840200000486,None,None,2,0.7111534000005122,0.21138609999979963,None,0,0,0,0,,,,,0,0,0,0,,,,,48,0,48,0,403.9496439000004,,,,,,,,,,,,,,,,,,,,,,,,,,,,,,,,,,,,,,,,,,,,,,,,,,,,,,,,,Klempner,4.1633,403.9340987000005,403.9347507000002,403.93485560000045,403.9496439000004,408.11564030000045,408.09984070000064,408.10390030000053,408.11564030000045,408.11564030000045,408.11564030000045,408.11564030000045,410.11547359999986,410.11547359999986,410.11547359999986,410.11547359999986,410.0998577999999,2,0.7111534000005122,0.21138609999979963,None,,,,,,,,,,,,,,,,,,,,,,7382,1,2025-06-21_11h07.10.350,sm,2024.2.4,59.982173297974455,2025-06-21 11h07.31.692315 +0200,
49,0,49,,,,,,space,2.108840200000486,None,None,3,0.7797553000000335,0.3041448000003584,None,0,0,0,0,,,,,0,0,0,0,,,,,49,0,49,0,410.11547359999986,,,,,,,,,,,,,,,,,,,,,,,,,,,,,,,,,,,,,,,,,,,,,,,,,,,,,,,,,Kaffee,2.5973,410.1003646999998,410.10087120000026,410.1009763000002,410.11547359999986,412.71515869999985,412.69967429999997,412.70362770000065,412.71515869999985,412.71515869999985,412.71515869999985,412.71515869999985,414.71522920000007,414.71522920000007,414.71522920000007,414.71522920000007,414.69961030000013,3,0.7797553000000335,0.3041448000003584,None,,,,,,,,,,,,,,,,,,,,,,7382,1,2025-06-21_11h07.10.350,sm,2024.2.4,59.982173297974455,2025-06-21 11h07.31.692315 +0200,
50,0,50,,,,,,space,2.108840200000486,None,None,2,1.9359094000001278,None,None,0,0,0,0,,,,,0,0,0,0,,,,,50,0,50,0,414.71522920000007,,,,,,,,,,,,,,,,,,,,,,,,,,,,,,,,,,,,,,,,,,,,,,,,,,,,,,,,,Trennung,3.0118,414.7001105999998,414.7007590000003,414.7008620000006,414.71522920000007,417.73175979999996,417.71609270000044,417.71994369999993,417.73175979999996,417.73175979999996,417.73175979999996,417.73175979999996,419.73167830000057,419.73167830000057,419.73167830000057,419.73167830000057,419.71601480000027,2,1.9359094000001278,None,None,,,,,,,,,,,,,,,,,,,,,,7382,1,2025-06-21_11h07.10.350,sm,2024.2.4,59.982173297974455,2025-06-21 11h07.31.692315 +0200,
51,0,51,,,,,,space,2.108840200000486,None,None,3,0.7508224000002883,0.28237840000019787,None,0,0,0,0,,,,,0,0,0,0,,,,,51,0,51,0,419.73167830000057,,,,,,,,,,,,,,,,,,,,,,,,,,,,,,,,,,,,,,,,,,,,,,,,,,,,,,,,,Zeichnung,4.4766,419.71651530000054,419.71711980000055,419.7172222999998,419.73167830000057,424.21439830000054,424.1990403,424.2031654000002,424.21439830000054,424.21439830000054,424.21439830000054,424.21439830000054,426.2146283000002,426.2146283000002,426.2146283000002,426.2146283000002,426.19917330000044,3,0.7508224000002883,0.28237840000019787,None,,,,,,,,,,,,,,,,,,,,,,7382,1,2025-06-21_11h07.10.350,sm,2024.2.4,59.982173297974455,2025-06-21 11h07.31.692315 +0200,
52,0,52,,,,,,space,2.108840200000486,None,None,2,0.7314202999996269,0.33612840000023425,None,0,0,0,0,,,,,0,0,0,0,,,,,52,0,52,0,426.2146283000002,,,,,,,,,,,,,,,,,,,,,,,,,,,,,,,,,,,,,,,,,,,,,,,,,,,,,,,,,Zunge,3.3923,426.1996801000005,426.20019950000005,426.2003043000004,426.2146283000002,429.61428700000033,429.5984877000001,429.6023644000006,429.61428700000033,429.61428700000033,429.61428700000033,429.61428700000033,431.6143454000003,431.6143454000003,431.6143454000003,431.6143454000003,431.59855380000045,2,0.7314202999996269,0.33612840000023425,None,,,,,,,,,,,,,,,,,,,,,,7382,1,2025-06-21_11h07.10.350,sm,2024.2.4,59.982173297974455,2025-06-21 11h07.31.692315 +0200,
53,0,53,,,,,,space,2.108840200000486,None,None,2,1.0029490999995687,0.22734500000024127,None,0,0,0,0,,,,,0,0,0,0,,,,,53,0,53,0,431.6143454000003,,,,,,,,,,,,,,,,,,,,,,,,,,,,,,,,,,,,,,,,,,,,,,,,,,,,,,,,,Schutz,2.214,431.59894630000053,431.5996333000003,431.5997105000006,431.6143454000003,433.83069179999984,433.8151337999998,433.8188469000006,433.83069179999984,433.83069179999984,433.83069179999984,433.83069179999984,435.8307209000004,435.8307209000004,435.8307209000004,435.8307209000004,435.81512340000063,2,1.0029490999995687,0.22734500000024127,None,,,,,,,,,,,,,,,,,,,,,,7382,1,2025-06-21_11h07.10.350,sm,2024.2.4,59.982173297974455,2025-06-21 11h07.31.692315 +0200,
54,0,54,,,,,,space,2.108840200000486,None,None,3,1.3319909000001644,0.21243800000047486,None,0,0,0,0,,,,,0,0,0,0,,,,,54,0,54,0,435.8307209000004,,,,,,,,,,,,,,,,,,,,,,,,,,,,,,,,,,,,,,,,,,,,,,,,,,,,,,,,,Frieden,2.2063,435.8156227999998,435.8163525,435.8164568000002,435.8307209000004,438.0479949999999,438.0314410000001,438.03531720000046,438.0479949999999,438.0479949999999,438.0479949999999,438.0479949999999,440.04706140000053,440.04706140000053,440.04706140000053,440.04706140000053,440.0315246,3,1.3319909000001644,0.21243800000047486,None,,,,,,,,,,,,,,,,,,,,,,7382,1,2025-06-21_11h07.10.350,sm,2024.2.4,59.982173297974455,2025-06-21 11h07.31.692315 +0200,
55,0,55,,,,,,space,2.108840200000486,None,None,3,1.5725995000002513,0.3864869999997609,None,0,0,0,0,,,,,0,0,0,0,,,,,55,0,55,0,440.04706140000053,,,,,,,,,,,,,,,,,,,,,,,,,,,,,,,,,,,,,,,,,,,,,,,,,,,,,,,,,Geheimnis,2.9413,440.0320313000002,440.0325407,440.0326438000002,440.04706140000053,442.99684549999984,442.9810273000003,442.9846806000005,442.99684549999984,442.99684549999984,442.99684549999984,442.99684549999984,444.99683900000036,444.99683900000036,444.99683900000036,444.99683900000036,444.9810929000005,3,1.5725995000002513,0.3864869999997609,None,,,,,,,,,,,,,,,,,,,,,,7382,1,2025-06-21_11h07.10.350,sm,2024.2.4,59.982173297974455,2025-06-21 11h07.31.692315 +0200,
56,0,56,,,,,,space,2.108840200000486,None,None,2,0.861316600000464,0.21900780000032682,None,0,0,0,0,,,,,0,0,0,0,,,,,56,0,56,0,444.99683900000036,,,,,,,,,,,,,,,,,,,,,,,,,,,,,,,,,,,,,,,,,,,,,,,,,,,,,,,,,Professor,2.6527,444.98160350000035,444.98224800000025,444.98235300000033,444.99683900000036,447.6634118000002,447.6476308000001,447.65118710000024,447.6634118000002,447.6634118000002,447.6634118000002,447.6634118000002,449.66323360000024,449.66323360000024,449.66323360000024,449.66323360000024,449.64788210000006,2,0.861316600000464,0.21900780000032682,None,,,,,,,,,,,,,,,,,,,,,,7382,1,2025-06-21_11h07.10.350,sm,2024.2.4,59.982173297974455,2025-06-21 11h07.31.692315 +0200,
57,0,57,,,,,,space,2.108840200000486,None,None,2,1.5335870999997496,0.2061440000006769,None,0,0,0,0,,,,,0,0,0,0,,,,,57,0,57,0,449.66323360000024,,,,,,,,,,,,,,,,,,,,,,,,,,,,,,,,,,,,,,,,,,,,,,,,,,,,,,,,,Ostern,2.2919,449.6484152000003,449.64906169999995,449.64922019999995,449.66323360000024,451.9630138000002,451.94742490000044,451.9514304000004,451.9630138000002,451.9630138000002,451.9630138000002,451.9630138000002,453.9635201000001,453.9635201000001,453.9635201000001,453.9635201000001,453.94736340000054,2,1.5335870999997496,0.2061440000006769,None,,,,,,,,,,,,,,,,,,,,,,7382,1,2025-06-21_11h07.10.350,sm,2024.2.4,59.982173297974455,2025-06-21 11h07.31.692315 +0200,
58,0,58,,,,,,space,2.108840200000486,None,None,3,1.2256631000000198,0.3861704999999347,None,0,0,0,0,,,,,0,0,0,0,,,,,58,0,58,0,453.9635201000001,,,,,,,,,,,,,,,,,,,,,,,,,,,,,,,,,,,,,,,,,,,,,,,,,,,,,,,,,Wein,4.5099,453.9478630000003,453.94837129999996,453.94847410000057,453.9635201000001,458.47922650000055,458.46373219999987,458.4670556000001,458.47922650000055,458.47922650000055,458.47922650000055,458.47922650000055,460.4795817000004,460.4795817000004,460.4795817000004,460.4795817000004,460.4636895000003,3,1.2256631000000198,0.3861704999999347,None,,,,,,,,,,,,,,,,,,,,,,7382,1,2025-06-21_11h07.10.350,sm,2024.2.4,59.982173297974455,2025-06-21 11h07.31.692315 +0200,
59,0,59,,,,,,space,2.108840200000486,None,None,3,0.950345300000663,0.5221576999992976,None,0,0,0,0,,,,,0,0,0,0,,,,,59,0,59,0,460.4795817000004,,,,,,,,,,,,,,,,,,,,,,,,,,,,,,,,,,,,,,,,,,,,,,,,,,,,,,,,,Beugen,3.1562,460.4641953999999,460.4647120999998,460.46481550000044,460.4795817000004,463.64560320000055,463.63037260000056,463.63657460000013,463.64560320000055,463.64560320000055,463.64560320000055,463.64560320000055,465.64571160000014,465.64571160000014,465.64571160000014,465.64571160000014,465.6300325000002,3,0.950345300000663,0.5221576999992976,None,,,,,,,,,,,,,,,,,,,,,,7382,1,2025-06-21_11h07.10.350,sm,2024.2.4,59.982173297974455,2025-06-21 11h07.31.692315 +0200,
60,0,60,,,,,,space,2.108840200000486,None,None,2,0.8961376999995991,0.25796680000075867,None,0,0,0,0,,,,,0,0,0,0,,,,,60,0,60,0,465.64571160000014,,,,,,,,,,,,,,,,,,,,,,,,,,,,,,,,,,,,,,,,,,,,,,,,,,,,,,,,,Humor,3.5332,465.6305400000001,465.6311260000002,465.6312286000002,465.64571160000014,469.1786769,469.1631750000006,469.16926409999996,469.1786769,469.1786769,469.1786769,469.1786769,471.17883340000026,471.17883340000026,471.17883340000026,471.17883340000026,471.16301120000026,2,0.8961376999995991,0.25796680000075867,None,,,,,,,,,,,,,,,,,,,,,,7382,1,2025-06-21_11h07.10.350,sm,2024.2.4,59.982173297974455,2025-06-21 11h07.31.692315 +0200,
61,0,61,,,,,,space,2.108840200000486,None,None,3,0.8722711999998864,0.3000551999994059,None,0,0,0,0,,,,,0,0,0,0,,,,,61,0,61,0,471.17883340000026,,,,,,,,,,,,,,,,,,,,,,,,,,,,,,,,,,,,,,,,,,,,,,,,,,,,,,,,,Blatt,2.4555,471.16348710000057,471.16398089999984,471.16407849999996,471.17883340000026,473.64520960000027,473.62939689999985,473.63301599999977,473.64520960000027,473.64520960000027,473.64520960000027,473.64520960000027,475.6451323000001,475.6451323000001,475.6451323000001,475.6451323000001,475.62967449999996,3,0.8722711999998864,0.3000551999994059,None,,,,,,,,,,,,,,,,,,,,,,7382,1,2025-06-21_11h07.10.350,sm,2024.2.4,59.982173297974455,2025-06-21 11h07.31.692315 +0200,
62,0,62,,,,,,space,2.108840200000486,None,None,3,1.0615323000001808,0.2821414999998524,None,0,0,0,0,,,,,0,0,0,0,,,,,62,0,62,0,475.6451323000001,,,,,,,,,,,,,,,,,,,,,,,,,,,,,,,,,,,,,,,,,,,,,,,,,,,,,,,,,Brief,2.4435,475.63015280000036,475.6306570000006,475.6307532000001,475.6451323000001,478.0946328,478.0792031000001,478.0828439000006,478.0946328,478.0946328,478.0946328,478.0946328,480.0947219999998,480.0947219999998,480.0947219999998,480.0947219999998,480.0793498000003,3,1.0615323000001808,0.2821414999998524,None,,,,,,,,,,,,,,,,,,,,,,7382,1,2025-06-21_11h07.10.350,sm,2024.2.4,59.982173297974455,2025-06-21 11h07.31.692315 +0200,
63,0,63,,,,,,space,2.108840200000486,None,None,2,0.7305388000004314,0.24732529999982944,None,0,0,0,0,,,,,0,0,0,0,,,,,63,0,63,0,480.0947219999998,,,,,,,,,,,,,,,,,,,,,,,,,,,,,,,,,,,,,,,,,,,,,,,,,,,,,,,,,Schwimmen,2.827,480.0798590000004,480.0803684000002,480.0804710000002,480.0947219999998,482.9279296000004,482.9123543000005,482.91660000000047,482.9279296000004,482.9279296000004,482.9279296000004,482.9279296000004,484.9282103000005,484.9282103000005,484.9282103000005,484.9282103000005,484.9124563000005,2,0.7305388000004314,0.24732529999982944,None,,,,,,,,,,,,,,,,,,,,,,7382,1,2025-06-21_11h07.10.350,sm,2024.2.4,59.982173297974455,2025-06-21 11h07.31.692315 +0200,
64,0,64,,,,,,space,2.108840200000486,None,None,3,0.9565851999996084,0.37556490000042686,None,0,0,0,0,,,,,0,0,0,0,,,,,64,0,64,0,484.9282103000005,,,,,,,,,,,,,,,,,,,,,,,,,,,,,,,,,,,,,,,,,,,,,,,,,,,,,,,,,Gel,2.1785,484.91295919999993,484.9134691999998,484.91357620000053,484.9282103000005,487.11092910000025,487.0956352000003,487.09893439999996,487.11092910000025,487.11092910000025,487.11092910000025,487.11092910000025,489.1110402000004,489.1110402000004,489.1110402000004,489.1110402000004,489.09554339999977,3,0.9565851999996084,0.37556490000042686,None,,,,,,,,,,,,,,,,,,,,,,7382,1,2025-06-21_11h07.10.350,sm,2024.2.4,59.982173297974455,2025-06-21 11h07.31.692315 +0200,
65,0,65,,,,,,space,2.108840200000486,None,None,3,0.972290100000464,0.3341454999999769,None,0,0,0,0,,,,,0,0,0,0,,,,,65,0,65,0,489.1110402000004,,,,,,,,,,,,,,,,,,,,,,,,,,,,,,,,,,,,,,,,,,,,,,,,,,,,,,,,,Vers,3.3432,489.0960462000003,489.09663570000066,489.0967400999998,489.1110402000004,492.46070080000027,492.4450852,492.4497035000004,492.46070080000027,492.46070080000027,492.46070080000027,492.46070080000027,494.4607317,494.4607317,494.4607317,494.4607317,494.44492570000057,3,0.972290100000464,0.3341454999999769,None,,,,,,,,,,,,,,,,,,,,,,7382,1,2025-06-21_11h07.10.350,sm,2024.2.4,59.982173297974455,2025-06-21 11h07.31.692315 +0200,
66,0,66,,,,,,space,2.108840200000486,None,None,3,1.3820121999997355,0.38309060000028694,None,0,0,0,0,,,,,0,0,0,0,,,,,66,0,66,0,494.4607317,,,,,,,,,,,,,,,,,,,,,,,,,,,,,,,,,,,,,,,,,,,,,,,,,,,,,,,,,Vergangenheit,2.5671,494.44537130000026,494.4459907999999,494.44608620000054,494.4607317,497.0272065999998,497.0110921000005,497.0150314000002,497.0272065999998,497.0272065999998,497.0272065999998,497.0272065999998,499.02721459999975,499.02721459999975,499.02721459999975,499.02721459999975,499.01141689999986,3,1.3820121999997355,0.38309060000028694,None,,,,,,,,,,,,,,,,,,,,,,7382,1,2025-06-21_11h07.10.350,sm,2024.2.4,59.982173297974455,2025-06-21 11h07.31.692315 +0200,
67,0,67,,,,,,space,2.108840200000486,None,None,2,1.8455850000000282,None,None,0,0,0,0,,,,,0,0,0,0,,,,,67,0,67,0,499.02721459999975,,,,,,,,,,,,,,,,,,,,,,,,,,,,,,,,,,,,,,,,,,,,,,,,,,,,,,,,,Bildung,2.3753,499.0119205000001,499.0125050000006,499.01260679999996,499.02721459999975,501.41001400000005,501.39464020000014,501.39881719999994,501.41001400000005,501.41001400000005,501.41001400000005,501.41001400000005,503.41011620000063,503.41011620000063,503.41011620000063,503.41011620000063,503.3950596000004,2,1.8455850000000282,None,None,,,,,,,,,,,,,,,,,,,,,,7382,1,2025-06-21_11h07.10.350,sm,2024.2.4,59.982173297974455,2025-06-21 11h07.31.692315 +0200,
68,0,68,,,,,,space,2.108840200000486,None,None,3,1.0560031999993953,0.32041150000077323,None,0,0,0,0,,,,,0,0,0,0,,,,,68,0,68,0,503.41011620000063,,,,,,,,,,,,,,,,,,,,,,,,,,,,,,,,,,,,,,,,,,,,,,,,,,,,,,,,,Bad,5.9069,503.39556919999995,503.39611700000023,503.3962218000006,503.41011620000063,509.32642060000035,509.3108148000001,509.31443579999996,509.32642060000035,509.32642060000035,509.32642060000035,509.32642060000035,511.32652940000025,511.32652940000025,511.32652940000025,511.32652940000025,511.3106996000006,3,1.0560031999993953,0.32041150000077323,None,,,,,,,,,,,,,,,,,,,,,,7382,1,2025-06-21_11h07.10.350,sm,2024.2.4,59.982173297974455,2025-06-21 11h07.31.692315 +0200,
69,0,69,,,,,,space,2.108840200000486,None,None,3,0.9387065000000803,0.36849549999988085,None,0,0,0,0,,,,,0,0,0,0,,,,,69,0,69,0,511.32652940000025,,,,,,,,,,,,,,,,,,,,,,,,,,,,,,,,,,,,,,,,,,,,,,,,,,,,,,,,,Fakt,2.5911,511.31120400000054,511.31188380000003,511.3119854000006,511.32652940000025,513.9260935000002,513.9104447999998,513.9139141000005,513.9260935000002,513.9260935000002,513.9260935000002,513.9260935000002,515.9260505000002,515.9260505000002,515.9260505000002,515.9260505000002,515.9104250999999,3,0.9387065000000803,0.36849549999988085,None,,,,,,,,,,,,,,,,,,,,,,7382,1,2025-06-21_11h07.10.350,sm,2024.2.4,59.982173297974455,2025-06-21 11h07.31.692315 +0200,
70,0,70,,,,,,space,2.108840200000486,None,None,3,0.9027095000001282,0.2793692999994164,None,0,0,0,0,,,,,0,0,0,0,,,,,70,0,70,0,515.9260505000002,,,,,,,,,,,,,,,,,,,,,,,,,,,,,,,,,,,,,,,,,,,,,,,,,,,,,,,,,Schlüssel,2.6018,515.9109122,515.9114304000004,515.9115341000006,515.9260505000002,518.5424702999999,518.5268409999999,518.5306553999999,518.5424702999999,518.5424702999999,518.5424702999999,518.5424702999999,520.5425605,520.5425605,520.5425605,520.5425605,520.5270417000002,3,0.9027095000001282,0.2793692999994164,None,,,,,,,,,,,,,,,,,,,,,,7382,1,2025-06-21_11h07.10.350,sm,2024.2.4,59.982173297974455,2025-06-21 11h07.31.692315 +0200,
71,0,71,,,,,,space,2.108840200000486,None,None,3,0.8308784000000742,0.35915730000033363,None,0,0,0,0,,,,,0,0,0,0,,,,,71,0,71,0,520.5425605,,,,,,,,,,,,,,,,,,,,,,,,,,,,,,,,,,,,,,,,,,,,,,,,,,,,,,,,,Zapfen,2.2025,520.5275327999998,520.5281177000006,520.5282195,520.5425605,522.7587942,522.7432726000006,522.7467015000002,522.7587942,522.7587942,522.7587942,522.7587942,524.7588843000003,524.7588843000003,524.7588843000003,524.7588843000003,524.7433504999999,3,0.8308784000000742,0.35915730000033363,None,,,,,,,,,,,,,,,,,,,,,,7382,1,2025-06-21_11h07.10.350,sm,2024.2.4,59.982173297974455,2025-06-21 11h07.31.692315 +0200,
72,0,72,,,,,,space,2.108840200000486,None,None,2,1.0384651000003942,0.2752393000000666,None,0,0,0,0,,,,,0,0,0,0,,,,,72,0,72,0,524.7588843000003,,,,,,,,,,,,,,,,,,,,,,,,,,,,,,,,,,,,,,,,,,,,,,,,,,,,,,,,,Nase,3.6932,524.7438599000006,524.7445790000002,524.7446897,524.7588843000003,528.4586055,528.4434019,528.4474715000006,528.4586055,528.4586055,528.4586055,528.4586055,530.4587046000006,530.4587046000006,530.4587046000006,530.4587046000006,530.4429436999999,2,1.0384651000003942,0.2752393000000666,None,,,,,,,,,,,,,,,,,,,,,,7382,1,2025-06-21_11h07.10.350,sm,2024.2.4,59.982173297974455,2025-06-21 11h07.31.692315 +0200,
73,0,73,,,,,,space,2.108840200000486,None,None,3,1.9439951999993355,None,None,0,0,0,0,,,,,0,0,0,0,,,,,73,0,73,0,530.4587046000006,,,,,,,,,,,,,,,,,,,,,,,,,,,,,,,,,,,,,,,,,,,,,,,,,,,,,,,,,Dachboden,2.56,530.4434498,530.4440543999999,530.4441557999999,530.4587046000006,533.0247082000005,533.0092110000005,533.0130503999999,533.0247082000005,533.0247082000005,533.0247082000005,533.0247082000005,535.0249021999998,535.0249021999998,535.0249021999998,535.0249021999998,535.0094313999998,3,1.9439951999993355,None,None,,,,,,,,,,,,,,,,,,,,,,7382,1,2025-06-21_11h07.10.350,sm,2024.2.4,59.982173297974455,2025-06-21 11h07.31.692315 +0200,
74,0,74,,,,,,space,2.108840200000486,None,None,2,0.6952905999996801,0.23797340000055556,None,0,0,0,0,,,,,0,0,0,0,,,,,74,0,74,0,535.0249021999998,,,,,,,,,,,,,,,,,,,,,,,,,,,,,,,,,,,,,,,,,,,,,,,,,,,,,,,,,Ziege,4.1074,535.0099570000002,535.0104971000001,535.0106012000006,535.0249021999998,539.1413520000006,539.1258121000001,539.1293096999998,539.1413520000006,539.1413520000006,539.1413520000006,539.1413520000006,541.1415569000001,541.1415569000001,541.1415569000001,541.1415569000001,541.1257403,2,0.6952905999996801,0.23797340000055556,None,,,,,,,,,,,,,,,,,,,,,,7382,1,2025-06-21_11h07.10.350,sm,2024.2.4,59.982173297974455,2025-06-21 11h07.31.692315 +0200,
75,0,75,,,,,,space,2.108840200000486,None,None,3,0.7323431999993772,0.5085723000001963,None,0,0,0,0,,,,,0,0,0,0,,,,,75,0,75,0,541.1415569000001,,,,,,,,,,,,,,,,,,,,,,,,,,,,,,,,,,,,,,,,,,,,,,,,,,,,,,,,,Ausbruch,2.1834,541.1262457000003,541.1267653000004,541.1268681000001,541.1415569000001,543.3244172000004,543.3088336000001,543.3129230000004,543.3244172000004,543.3244172000004,543.3244172000004,543.3244172000004,545.3245194000001,545.3245194000001,545.3245194000001,545.3245194000001,545.3087734999999,3,0.7323431999993772,0.5085723000001963,None,,,,,,,,,,,,,,,,,,,,,,7382,1,2025-06-21_11h07.10.350,sm,2024.2.4,59.982173297974455,2025-06-21 11h07.31.692315 +0200,
76,0,76,,,,,,space,2.108840200000486,None,None,3,1.1802145999999993,0.5429911000001084,None,0,0,0,0,,,,,0,0,0,0,,,,,76,0,76,0,545.3245194000001,,,,,,,,,,,,,,,,,,,,,,,,,,,,,,,,,,,,,,,,,,,,,,,,,,,,,,,,,Golf,5.4148,545.3092889999998,545.3098875000005,545.3099934000002,545.3245194000001,550.7405963000001,550.7252413000006,550.7287772,550.7405963000001,550.7405963000001,550.7405963000001,550.7405963000001,552.7406162000007,552.7406162000007,552.7406162000007,552.7406162000007,552.7251952000006,3,1.1802145999999993,0.5429911000001084,None,,,,,,,,,,,,,,,,,,,,,,7382,1,2025-06-21_11h07.10.350,sm,2024.2.4,59.982173297974455,2025-06-21 11h07.31.692315 +0200,
77,0,77,,,,,,space,2.108840200000486,None,None,3,0.8836581000005026,0.5617040999995879,None,0,0,0,0,,,,,0,0,0,0,,,,,77,0,77,0,552.7406162000007,,,,,,,,,,,,,,,,,,,,,,,,,,,,,,,,,,,,,,,,,,,,,,,,,,,,,,,,,Kappe,3.9776,552.7257114000004,552.7262172999999,552.7263207000005,552.7406162000007,556.7238183999998,556.7084533000007,556.7127463000006,556.7238183999998,556.7238183999998,556.7238183999998,556.7238183999998,558.7237913999998,558.7237913999998,558.7237913999998,558.7237913999998,558.7085022000001,3,0.8836581000005026,0.5617040999995879,None,,,,,,,,,,,,,,,,,,,,,,7382,1,2025-06-21_11h07.10.350,sm,2024.2.4,59.982173297974455,2025-06-21 11h07.31.692315 +0200,
78,0,78,,,,,,space,2.108840200000486,None,None,3,1.034207000000606,0.49974139999994804,None,0,0,0,0,,,,,0,0,0,0,,,,,78,0,78,0,558.7237913999998,,,,,,,,,,,,,,,,,,,,,,,,,,,,,,,,,,,,,,,,,,,,,,,,,,,,,,,,,Puppe,2.9203,558.7090144000003,558.7095208000001,558.7096222999999,558.7237913999998,561.6565422000003,561.6409020000001,561.6454244000006,561.6565422000003,561.6565422000003,561.6565422000003,561.6565422000003,563.6567205000001,563.6567205000001,563.6567205000001,563.6567205000001,563.6412853000002,3,1.034207000000606,0.49974139999994804,None,,,,,,,,,,,,,,,,,,,,,,7382,1,2025-06-21_11h07.10.350,sm,2024.2.4,59.982173297974455,2025-06-21 11h07.31.692315 +0200,
79,0,79,,,,,,space,2.108840200000486,None,None,3,0.8893928000006781,0.43465399999968213,None,0,0,0,0,,,,,0,0,0,0,,,,,79,0,79,0,563.6567205000001,,,,,,,,,,,,,,,,,,,,,,,,,,,,,,,,,,,,,,,,,,,,,,,,,,,,,,,,,Bus,3.0607,563.6418205999998,563.6423586999999,563.6424685000002,563.6567205000001,566.7232356000004,566.7074272999998,566.7104145000003,566.7232356000004,566.7232356000004,566.7232356000004,566.7232356000004,568.7348842000001,568.7348842000001,568.7348842000001,568.7348842000001,568.7076219999999,3,0.8893928000006781,0.43465399999968213,None,,,,,,,,,,,,,,,,,,,,,,7382,1,2025-06-21_11h07.10.350,sm,2024.2.4,59.982173297974455,2025-06-21 11h07.31.692315 +0200,
0,0,0,,,,,3.6932,space,2.1376962000003914,None,None,3,1.10891090000041,0.5733507000004465,None,0,0,0,0,,,,,1,0,1,0,0,79,79,14,0,0,0,0,612.3873606000006,,,,,,,,,,,,,,,,,,,,,,,,,,,,,,,,,,,,585.6189533000006,585.6191822999999,585.6253267000002,585.6296504000002,585.6296504000002,587.7738017000001,space,2.1376962000003914,None,587.7739603,587.7890418000006,587.7890418000006,600.3725421999998,None,600.3797203000004,600.3877275000004,600.3879529666667,601.5949559000001,610.3874615666666,611.3947241000005,612.3711555,Bart,3.6932,612.3723857000005,612.3731148000006,612.3732046000005,612.3873606000006,616.0869447000005,616.0709655999999,616.0739485000004,616.0869447000005,616.0869447000005,616.0869447000005,616.0869447000005,618.0870017000007,618.0870017000007,618.0870017000007,618.0870017000007,618.071414,3,1.10891090000041,0.5733507000004465,None,580.7228593,580.7229352000004,None,580.7313085000005,580.7395101000002,584.7387637000002,584.7387637000002,584.7387637000002,585.5739455000003,2,0.8161453000002439,None,612.3873606000006,,,,,,,,,7382,1,2025-06-21_11h07.10.350,sm,2024.2.4,59.982173297974455,2025-06-21 11h07.31.692315 +0200,
1,0,1,,,,,,space,2.1376962000003914,None,None,3,1.0407586000001174,0.46973399999933463,None,0,0,0,0,,,,,1,0,1,0,,,,,1,0,1,0,618.0870017000007,,,,,,,,,,,,,,,,,,,,,,,,,,,,,,,,,,,,,,,,,,,,,,,,,,,,,,,,,Schnürsenkel,2.1175,618.0719248000005,618.0725222000001,618.0726264000004,618.0870017000007,620.2031508,620.1877984000002,620.1919900000003,620.2031508,620.2031508,620.2031508,620.2031508,622.2033510000001,622.2033510000001,622.2033510000001,622.2033510000001,622.1878414000003,3,1.0407586000001174,0.46973399999933463,None,,,,,,,,,,,,,,,,,,,,,,7382,1,2025-06-21_11h07.10.350,sm,2024.2.4,59.982173297974455,2025-06-21 11h07.31.692315 +0200,
2,0,2,,,,,,space,2.1376962000003914,None,None,3,0.8306424000002153,0.47867870000027324,None,0,0,0,0,,,,,1,0,1,0,,,,,2,0,2,0,622.2033510000001,,,,,,,,,,,,,,,,,,,,,,,,,,,,,,,,,,,,,,,,,,,,,,,,,,,,,,,,,Sauber,4.3798,622.1883392999998,622.1889921000002,622.1890932000006,622.2033510000001,626.5865138999998,626.5705298000003,626.5742940999999,626.5865138999998,626.5865138999998,626.5865138999998,626.5865138999998,628.5862733000004,628.5862733000004,628.5862733000004,628.5862733000004,628.5707309,3,0.8306424000002153,0.47867870000027324,None,,,,,,,,,,,,,,,,,,,,,,7382,1,2025-06-21_11h07.10.350,sm,2024.2.4,59.982173297974455,2025-06-21 11h07.31.692315 +0200,
3,0,3,,,,,,space,2.1376962000003914,None,None,3,1.2221763999996256,0.6941440000000512,None,0,0,0,0,,,,,1,0,1,0,,,,,3,0,3,0,628.5862733000004,,,,,,,,,,,,,,,,,,,,,,,,,,,,,,,,,,,,,,,,,,,,,,,,,,,,,,,,,Asche,3.3432,628.5712340999999,628.5718911000004,628.5719955000004,628.5862733000004,631.9359808999998,631.9205560999999,631.9246370999999,631.9359808999998,631.9359808999998,631.9359808999998,631.9359808999998,633.9361137000005,633.9361137000005,633.9361137000005,633.9361137000005,633.9203200000002,3,1.2221763999996256,0.6941440000000512,None,,,,,,,,,,,,,,,,,,,,,,7382,1,2025-06-21_11h07.10.350,sm,2024.2.4,59.982173297974455,2025-06-21 11h07.31.692315 +0200,
4,0,4,,,,,,space,2.1376962000003914,None,None,3,0.7861341000007087,0.37874529999953666,None,0,0,0,0,,,,,1,0,1,0,,,,,4,0,4,0,633.9361137000005,,,,,,,,,,,,,,,,,,,,,,,,,,,,,,,,,,,,,,,,,,,,,,,,,,,,,,,,,Hügel,2.086,633.9208275000001,633.9213337000001,633.9214366000006,633.9361137000005,636.0355995999998,636.0202729000002,636.0248728000006,636.0355995999998,636.0355995999998,636.0355995999998,636.0355995999998,638.0355595999999,638.0355595999999,638.0355595999999,638.0355595999999,638.0198707999998,3,0.7861341000007087,0.37874529999953666,None,,,,,,,,,,,,,,,,,,,,,,7382,1,2025-06-21_11h07.10.350,sm,2024.2.4,59.982173297974455,2025-06-21 11h07.31.692315 +0200,
5,0,5,,,,,,space,2.1376962000003914,None,None,3,1.480602099999487,None,None,0,0,0,0,,,,,1,0,1,0,,,,,5,0,5,0,638.0355595999999,,,,,,,,,,,,,,,,,,,,,,,,,,,,,,,,,,,,,,,,,,,,,,,,,,,,,,,,,Sicherheit,2.5273,638.0203423000003,638.0209351000003,638.0210321000004,638.0355595999999,640.5687699,640.5536317000006,640.5579836000006,640.5687699,640.5687699,640.5687699,640.5687699,642.5689496000005,642.5689496000005,642.5689496000005,642.5689496000005,642.5533833999998,3,1.480602099999487,None,None,,,,,,,,,,,,,,,,,,,,,,7382,1,2025-06-21_11h07.10.350,sm,2024.2.4,59.982173297974455,2025-06-21 11h07.31.692315 +0200,
6,0,6,,,,,,space,2.1376962000003914,None,None,2,0.6596530999995593,0.3067815000003975,None,0,0,0,0,,,,,1,0,1,0,,,,,6,0,6,0,642.5689496000005,,,,,,,,,,,,,,,,,,,,,,,,,,,,,,,,,,,,,,,,,,,,,,,,,,,,,,,,,Arm,2.2842,642.5538654000002,642.5545461000002,642.5546518000001,642.5689496000005,644.8521208000002,644.8364793999999,644.8400140000003,644.8521208000002,644.8521208000002,644.8521208000002,644.8521208000002,646.8521668000003,646.8521668000003,646.8521668000003,646.8521668000003,646.8364756999999,2,0.6596530999995593,0.3067815000003975,None,,,,,,,,,,,,,,,,,,,,,,7382,1,2025-06-21_11h07.10.350,sm,2024.2.4,59.982173297974455,2025-06-21 11h07.31.692315 +0200,
7,0,7,,,,,,space,2.1376962000003914,None,None,3,0.7991617999996379,0.8823726999999053,None,0,0,0,0,,,,,1,0,1,0,,,,,7,0,7,0,646.8521668000003,,,,,,,,,,,,,,,,,,,,,,,,,,,,,,,,,,,,,,,,,,,,,,,,,,,,,,,,,Gewürz,5.2861,646.8369825,646.8377393999999,646.8378465000005,646.8521668000003,652.1515127000002,652.1356117000005,652.1388826000002,652.1515127000002,652.1515127000002,652.1515127000002,652.1515127000002,654.1515452000003,654.1515452000003,654.1515452000003,654.1515452000003,654.1358092,3,0.7991617999996379,0.8823726999999053,None,,,,,,,,,,,,,,,,,,,,,,7382,1,2025-06-21_11h07.10.350,sm,2024.2.4,59.982173297974455,2025-06-21 11h07.31.692315 +0200,
8,0,8,,,,,,space,2.1376962000003914,None,None,3,1.0473364999998012,0.7677840000005745,None,0,0,0,0,,,,,1,0,1,0,,,,,8,0,8,0,654.1515452000003,,,,,,,,,,,,,,,,,,,,,,,,,,,,,,,,,,,,,,,,,,,,,,,,,,,,,,,,,Foto,2.5911,654.1363120000005,654.1369664000003,654.1370713000006,654.1515452000003,656.7511456000002,656.7354629000001,656.7387128999999,656.7511456000002,656.7511456000002,656.7511456000002,656.7511456000002,658.7512831000004,658.7512831000004,658.7512831000004,658.7512831000004,658.7358229000001,3,1.0473364999998012,0.7677840000005745,None,,,,,,,,,,,,,,,,,,,,,,7382,1,2025-06-21_11h07.10.350,sm,2024.2.4,59.982173297974455,2025-06-21 11h07.31.692315 +0200,
9,0,9,,,,,,space,2.1376962000003914,None,None,3,0.6993609000001015,0.587297099999887,None,0,0,0,0,,,,,1,0,1,0,,,,,9,0,9,0,658.7512831000004,,,,,,,,,,,,,,,,,,,,,,,,,,,,,,,,,,,,,,,,,,,,,,,,,,,,,,,,,Raum,3.2371,658.7363297000002,658.7368399000006,658.7369423,658.7512831000004,662.0007798000006,661.9852854000001,661.9885984000002,662.0007798000006,662.0007798000006,662.0007798000006,662.0007798000006,664.0010507000006,664.0010507000006,664.0010507000006,664.0010507000006,663.9853932000005,3,0.6993609000001015,0.587297099999887,None,,,,,,,,,,,,,,,,,,,,,,7382,1,2025-06-21_11h07.10.350,sm,2024.2.4,59.982173297974455,2025-06-21 11h07.31.692315 +0200,
10,0,10,,,,,,space,2.1376962000003914,None,None,2,0.7903163999999379,0.34506059999966965,None,0,0,0,0,,,,,1,0,1,0,,,,,10,0,10,0,664.0010507000006,,,,,,,,,,,,,,,,,,,,,,,,,,,,,,,,,,,,,,,,,,,,,,,,,,,,,,,,,Hai,2.0219,663.9858909000004,663.9864767999998,663.9865817,664.0010507000006,666.0340987999998,666.0184868000006,666.0223387000005,666.0340987999998,666.0340987999998,666.0340987999998,666.0340987999998,668.0346085000001,668.0346085000001,668.0346085000001,668.0346085000001,668.0185797000004,2,0.7903163999999379,0.34506059999966965,None,,,,,,,,,,,,,,,,,,,,,,7382,1,2025-06-21_11h07.10.350,sm,2024.2.4,59.982173297974455,2025-06-21 11h07.31.692315 +0200,
11,0,11,,,,,,space,2.1376962000003914,None,None,3,0.7176659000006111,0.8785759000002145,None,0,0,0,0,,,,,1,0,1,0,,,,,11,0,11,0,668.0346085000001,,,,,,,,,,,,,,,,,,,,,,,,,,,,,,,,,,,,,,,,,,,,,,,,,,,,,,,,,Flut,3.5584,668.0190904000001,668.0196065999999,668.0197148000007,668.0346085000001,671.600034,671.5845872,671.5886078000003,671.600034,671.600034,671.600034,671.600034,673.6002550000003,673.6002550000003,673.6002550000003,673.6002550000003,673.5848216000004,3,0.7176659000006111,0.8785759000002145,None,,,,,,,,,,,,,,,,,,,,,,7382,1,2025-06-21_11h07.10.350,sm,2024.2.4,59.982173297974455,2025-06-21 11h07.31.692315 +0200,
12,0,12,,,,,,space,2.1376962000003914,None,None,3,0.8164421999999831,0.4920066000004226,None,0,0,0,0,,,,,1,0,1,0,,,,,12,0,12,0,673.6002550000003,,,,,,,,,,,,,,,,,,,,,,,,,,,,,,,,,,,,,,,,,,,,,,,,,,,,,,,,,Ball,3.4187,673.5853220999998,673.5858556000003,673.5859571000001,673.6002550000003,677.0333596,677.0178626000006,677.0214743000006,677.0333596,677.0333596,677.0333596,677.0333596,679.0336296000005,679.0336296000005,679.0336296000005,679.0336296000005,679.0176804000002,3,0.8164421999999831,0.4920066000004226,None,,,,,,,,,,,,,,,,,,,,,,7382,1,2025-06-21_11h07.10.350,sm,2024.2.4,59.982173297974455,2025-06-21 11h07.31.692315 +0200,
13,0,13,,,,,,space,2.1376962000003914,None,None,3,1.0581630000006044,0.4650501999994958,None,0,0,0,0,,,,,1,0,1,0,,,,,13,0,13,0,679.0336296000005,,,,,,,,,,,,,,,,,,,,,,,,,,,,,,,,,,,,,,,,,,,,,,,,,,,,,,,,,Komödie,2.6246,679.0181868,679.0186954999999,679.0187993999998,679.0336296000005,681.6664613000003,681.6508431000002,681.6553687000005,681.6664613000003,681.6664613000003,681.6664613000003,681.6664613000003,683.6665174,683.6665174,683.6665174,683.6665174,683.6509163999999,3,1.0581630000006044,0.4650501999994958,None,,,,,,,,,,,,,,,,,,,,,,7382,1,2025-06-21_11h07.10.350,sm,2024.2.4,59.982173297974455,2025-06-21 11h07.31.692315 +0200,
14,0,14,,,,,,space,2.1376962000003914,None,None,3,1.509076699999241,None,None,0,0,0,0,,,,,1,0,1,0,,,,,14,0,14,0,683.6665174,,,,,,,,,,,,,,,,,,,,,,,,,,,,,,,,,,,,,,,,,,,,,,,,,,,,,,,,,Kunst,2.334,683.6514206000002,683.6519334000004,683.6520348000004,683.6665174,685.9995521000001,685.9839427000006,685.9877070000002,685.9995521000001,685.9995521000001,685.9995521000001,685.9995521000001,687.9995530000006,687.9995530000006,687.9995530000006,687.9995530000006,687.9840623,3,1.509076699999241,None,None,,,,,,,,,,,,,,,,,,,,,,7382,1,2025-06-21_11h07.10.350,sm,2024.2.4,59.982173297974455,2025-06-21 11h07.31.692315 +0200,
15,0,15,,,,,,space,2.1376962000003914,None,None,None,,,None,0,0,0,0,,,,,1,0,1,0,,,,,15,0,15,0,687.9995530000006,,,,,,,,,,,,,,,,,,,,,,,,,,,,,,,,,,,,,,,,,,,,,,,,,,,,,,,,,Monument,3.248,687.9845569999998,687.9853320000002,687.9854366999998,687.9995530000006,691.2491887000006,691.2336218,691.2373300999998,691.2491887000006,691.2491887000006,691.2491887000006,691.2491887000006,693.2492962000006,693.2492962000006,693.2492962000006,693.2492962000006,693.2335356000003,None,,,None,,,,,,,,,,,,,,,,,,,,,,7382,1,2025-06-21_11h07.10.350,sm,2024.2.4,59.982173297974455,2025-06-21 11h07.31.692315 +0200,
16,0,16,,,,,,space,2.1376962000003914,None,None,2,0.630915400000049,0.3075337000000218,None,0,0,0,0,,,,,1,0,1,0,,,,,16,0,16,0,693.2492962000006,,,,,,,,,,,,,,,,,,,,,,,,,,,,,,,,,,,,,,,,,,,,,,,,,,,,,,,,,Finger,3.0607,693.2340143000001,693.2345258000005,693.2346294999998,693.2492962000006,696.3155213999999,696.2996895000006,696.3031533000003,696.3155213999999,696.3155213999999,696.3155213999999,696.3155213999999,698.3156134999999,698.3156134999999,698.3156134999999,698.3156134999999,698.3001558000005,2,0.630915400000049,0.3075337000000218,None,,,,,,,,,,,,,,,,,,,,,,7382,1,2025-06-21_11h07.10.350,sm,2024.2.4,59.982173297974455,2025-06-21 11h07.31.692315 +0200,
17,0,17,,,,,,space,2.1376962000003914,None,None,2,1.1973472999998194,0.5315833000004204,None,0,0,0,0,,,,,1,0,1,0,,,,,17,0,17,0,698.3156134999999,,,,,,,,,,,,,,,,,,,,,,,,,,,,,,,,,,,,,,,,,,,,,,,,,,,,,,,,,Lehrer,2.9833,698.3006659000002,698.3012421000003,698.3013449999999,698.3156134999999,701.2986212000005,701.2831434999998,701.2879651000003,701.2986212000005,701.2986212000005,701.2986212000005,701.2986212000005,703.2985618000002,703.2985618000002,703.2985618000002,703.2985618000002,703.2837164000002,2,1.1973472999998194,0.5315833000004204,None,,,,,,,,,,,,,,,,,,,,,,7382,1,2025-06-21_11h07.10.350,sm,2024.2.4,59.982173297974455,2025-06-21 11h07.31.692315 +0200,
18,0,18,,,,,,space,2.1376962000003914,None,None,3,0.9972274000001562,0.4627679999994143,None,0,0,0,0,,,,,1,0,1,0,,,,,18,0,18,0,703.2985618000002,,,,,,,,,,,,,,,,,,,,,,,,,,,,,,,,,,,,,,,,,,,,,,,,,,,,,,,,,Telefon,2.3753,703.2842187000006,703.2847483000005,703.2848517000002,703.2985618000002,705.6818186,705.666271,705.6704979000006,705.6818186,705.6818186,705.6818186,705.6818186,707.6820367999999,707.6820367999999,707.6820367999999,707.6820367999999,707.6665917999999,3,0.9972274000001562,0.4627679999994143,None,,,,,,,,,,,,,,,,,,,,,,7382,1,2025-06-21_11h07.10.350,sm,2024.2.4,59.982173297974455,2025-06-21 11h07.31.692315 +0200,
19,0,19,,,,,,space,2.1376962000003914,None,None,2,0.8164440000000468,0.5664452000000892,None,0,0,0,0,,,,,1,0,1,0,,,,,19,0,19,0,707.6820367999999,,,,,,,,,,,,,,,,,,,,,,,,,,,,,,,,,,,,,,,,,,,,,,,,,,,,,,,,,Spion,3.0118,707.6671015000002,707.6677177000001,707.6678939000003,707.6820367999999,710.6981734000001,710.6824364000004,710.6860741,710.6981734000001,710.6981734000001,710.6981734000001,710.6981734000001,712.6981714000003,712.6981714000003,712.6981714000003,712.6981714000003,712.6824947000005,2,0.8164440000000468,0.5664452000000892,None,,,,,,,,,,,,,,,,,,,,,,7382,1,2025-06-21_11h07.10.350,sm,2024.2.4,59.982173297974455,2025-06-21 11h07.31.692315 +0200,
20,0,20,,,,,,space,2.1376962000003914,None,None,3,0.9787237999998979,0.5035729000001083,None,0,0,0,0,,,,,1,0,1,0,,,,,20,0,20,0,712.6981714000003,,,,,,,,,,,,,,,,,,,,,,,,,,,,,,,,,,,,,,,,,,,,,,,,,,,,,,,,,Teleskop,3.3371,712.6829947000006,712.6836758999998,712.6837799000004,712.6981714000003,716.0478137,716.0323501000003,716.0364450000006,716.0478137,716.0478137,716.0478137,716.0478137,718.0480377000004,718.0480377000004,718.0480377000004,718.0480377000004,718.0320393000002,3,0.9787237999998979,0.5035729000001083,None,,,,,,,,,,,,,,,,,,,,,,7382,1,2025-06-21_11h07.10.350,sm,2024.2.4,59.982173297974455,2025-06-21 11h07.31.692315 +0200,
21,0,21,,,,,,space,2.1376962000003914,None,None,3,0.9175500000001193,0.6305529999999635,None,0,0,0,0,,,,,1,0,1,0,,,,,21,0,21,0,718.0480377000004,,,,,,,,,,,,,,,,,,,,,,,,,,,,,,,,,,,,,,,,,,,,,,,,,,,,,,,,,Seife,3.4498,718.0324866000001,718.0329700000002,718.0330623999998,718.0480377000004,721.4977075000006,721.4823283000005,721.4861989999999,721.4977075000006,721.4977075000006,721.4977075000006,721.4977075000006,723.4977115000002,723.4977115000002,723.4977115000002,723.4977115000002,723.4821895000005,3,0.9175500000001193,0.6305529999999635,None,,,,,,,,,,,,,,,,,,,,,,7382,1,2025-06-21_11h07.10.350,sm,2024.2.4,59.982173297974455,2025-06-21 11h07.31.692315 +0200,
22,0,22,,,,,,space,2.1376962000003914,None,None,2,1.1697457000000213,0.36211830000047485,None,0,0,0,0,,,,,1,0,1,0,,,,,22,0,22,0,723.4977115000002,,,,,,,,,,,,,,,,,,,,,,,,,,,,,,,,,,,,,,,,,,,,,,,,,,,,,,,,,Leute,3.1169,723.4827095999999,723.4832244999998,723.4833267000004,723.4977115000002,726.6139072000005,726.5989679000004,726.6032357000004,726.6139072000005,726.6139072000005,726.6139072000005,726.6139072000005,728.6138669000002,728.6138669000002,728.6138669000002,728.6138669000002,728.5982906999998,2,1.1697457000000213,0.36211830000047485,None,,,,,,,,,,,,,,,,,,,,,,7382,1,2025-06-21_11h07.10.350,sm,2024.2.4,59.982173297974455,2025-06-21 11h07.31.692315 +0200,
23,0,23,,,,,,space,2.1376962000003914,None,None,3,1.1113304000000426,0.5591868000001341,None,0,0,0,0,,,,,1,0,1,0,,,,,23,0,23,0,728.6138669000002,,,,,,,,,,,,,,,,,,,,,,,,,,,,,,,,,,,,,,,,,,,,,,,,,,,,,,,,,Tee,2.214,728.5987976000006,728.5993146999999,728.5994172999999,728.6138669000002,730.8302549,730.8146576999998,730.8179397000004,730.8302549,730.8302549,730.8302549,730.8302549,732.8303190000006,732.8303190000006,732.8303190000006,732.8303190000006,732.8145112000002,3,1.1113304000000426,0.5591868000001341,None,,,,,,,,,,,,,,,,,,,,,,7382,1,2025-06-21_11h07.10.350,sm,2024.2.4,59.982173297974455,2025-06-21 11h07.31.692315 +0200,
24,0,24,,,,,,space,2.1376962000003914,None,None,3,0.9301093000003675,0.6437538999998651,None,0,0,0,0,,,,,1,0,1,0,,,,,24,0,24,0,732.8303190000006,,,,,,,,,,,,,,,,,,,,,,,,,,,,,,,,,,,,,,,,,,,,,,,,,,,,,,,,,Zirkus,2.2646,732.8149397000007,732.8154384,732.8155260000003,732.8303190000006,735.0965366999999,735.0808273000002,735.0863347000004,735.0965366999999,735.0965366999999,735.0965366999999,735.0965366999999,737.0966963999999,737.0966963999999,737.0966963999999,737.0966963999999,737.0812580000002,3,0.9301093000003675,0.6437538999998651,None,,,,,,,,,,,,,,,,,,,,,,7382,1,2025-06-21_11h07.10.350,sm,2024.2.4,59.982173297974455,2025-06-21 11h07.31.692315 +0200,
25,0,25,,,,,,space,2.1376962000003914,None,None,3,1.1446339000003718,0.7524187999997594,None,0,0,0,0,,,,,1,0,1,0,,,,,25,0,25,0,737.0966963999999,,,,,,,,,,,,,,,,,,,,,,,,,,,,,,,,,,,,,,,,,,,,,,,,,,,,,,,,,Orange,4.7207,737.0817686999999,737.0822789000003,737.0823805,737.0966963999999,741.8298746999999,741.8140816000005,741.8182273000002,741.8298746999999,741.8298746999999,741.8298746999999,741.8298746999999,743.8297407999999,743.8297407999999,743.8297407999999,743.8297407999999,743.8141274999998,3,1.1446339000003718,0.7524187999997594,None,,,,,,,,,,,,,,,,,,,,,,7382,1,2025-06-21_11h07.10.350,sm,2024.2.4,59.982173297974455,2025-06-21 11h07.31.692315 +0200,
26,0,26,,,,,,space,2.1376962000003914,None,None,None,,,None,0,0,0,0,,,,,1,0,1,0,,,,,26,0,26,0,743.8297407999999,,,,,,,,,,,,,,,,,,,,,,,,,,,,,,,,,,,,,,,,,,,,,,,,,,,,,,,,,Ferien,2.2919,743.8146359000002,743.8151443000006,743.8152449999998,743.8297407999999,746.1290914000001,746.1136610000003,746.117268,746.1290914000001,746.1290914000001,746.1290914000001,746.1290914000001,748.1295737,748.1295737,748.1295737,748.1295737,748.1137592000005,None,,,None,,,,,,,,,,,,,,,,,,,,,,7382,1,2025-06-21_11h07.10.350,sm,2024.2.4,59.982173297974455,2025-06-21 11h07.31.692315 +0200,
27,0,27,,,,,,space,2.1376962000003914,None,None,3,0.8660824999997203,0.5354418000006262,None,0,0,0,0,,,,,1,0,1,0,,,,,27,0,27,0,748.1295737,,,,,,,,,,,,,,,,,,,,,,,,,,,,,,,,,,,,,,,,,,,,,,,,,,,,,,,,,Loch,4.4766,748.1142346000006,748.1147463000007,748.1148498000002,748.1295737,752.6123521,752.5967258000001,752.6002749999998,752.6123521,752.6123521,752.6123521,752.6123521,754.6123845000002,754.6123845000002,754.6123845000002,754.6123845000002,754.5967765000005,3,0.8660824999997203,0.5354418000006262,None,,,,,,,,,,,,,,,,,,,,,,7382,1,2025-06-21_11h07.10.350,sm,2024.2.4,59.982173297974455,2025-06-21 11h07.31.692315 +0200,
28,0,28,,,,,,space,2.1376962000003914,None,None,3,1.0881171999999424,0.6376856000006228,None,0,0,0,0,,,,,1,0,1,0,,,,,28,0,28,0,754.6123845000002,,,,,,,,,,,,,,,,,,,,,,,,,,,,,,,,,,,,,,,,,,,,,,,,,,,,,,,,,Klippe,5.4148,754.5972778000005,754.5979416,754.5980473999998,754.6123845000002,760.0285334999999,760.0129913000001,760.0168854000003,760.0285334999999,760.0285334999999,760.0285334999999,760.0285334999999,762.0288115000003,762.0288115000003,762.0288115000003,762.0288115000003,762.0129907,3,1.0881171999999424,0.6376856000006228,None,,,,,,,,,,,,,,,,,,,,,,7382,1,2025-06-21_11h07.10.350,sm,2024.2.4,59.982173297974455,2025-06-21 11h07.31.692315 +0200,
29,0,29,,,,,,space,2.1376962000003914,None,None,2,0.7674567000003663,0.265332999999373,None,0,0,0,0,,,,,1,0,1,0,,,,,29,0,29,0,762.0288115000003,,,,,,,,,,,,,,,,,,,,,,,,,,,,,,,,,,,,,,,,,,,,,,,,,,,,,,,,,Mund,4.1074,762.0134916000006,762.0140159000002,762.0141187999998,762.0288115000003,766.1447594000001,766.1289336,766.1317280000003,766.1447594000001,766.1447594000001,766.1447594000001,766.1447594000001,768.1450119000001,768.1450119000001,768.1450119000001,768.1450119000001,768.1294702000005,2,0.7674567000003663,0.265332999999373,None,,,,,,,,,,,,,,,,,,,,,,7382,1,2025-06-21_11h07.10.350,sm,2024.2.4,59.982173297974455,2025-06-21 11h07.31.692315 +0200,
30,0,30,,,,,,space,2.1376962000003914,None,None,3,1.0566625999999815,0.3998903000001519,None,0,0,0,0,,,,,1,0,1,0,,,,,30,0,30,0,768.1450119000001,,,,,,,,,,,,,,,,,,,,,,,,,,,,,,,,,,,,,,,,,,,,,,,,,,,,,,,,,Schloss,2.977,768.1299715000005,768.1306292999998,768.1307336999998,768.1450119000001,771.1277400999998,771.1122088000002,771.1158992999999,771.1277400999998,771.1277400999998,771.1277400999998,771.1277400999998,773.1278616999998,773.1278616999998,773.1278616999998,773.1278616999998,773.1125384000006,3,1.0566625999999815,0.3998903000001519,None,,,,,,,,,,,,,,,,,,,,,,7382,1,2025-06-21_11h07.10.350,sm,2024.2.4,59.982173297974455,2025-06-21 11h07.31.692315 +0200,
31,0,31,,,,,,space,2.1376962000003914,None,None,3,0.7932233000001361,0.4448013000001083,None,0,0,0,0,,,,,1,0,1,0,,,,,31,0,31,0,773.1278616999998,,,,,,,,,,,,,,,,,,,,,,,,,,,,,,,,,,,,,,,,,,,,,,,,,,,,,,,,,Kapitel,5.9069,773.1130473000003,773.1135684000001,773.1136739000003,773.1278616999998,779.0441411000002,779.0285782999999,779.0331962,779.0441411000002,779.0441411000002,779.0441411000002,779.0441411000002,781.0441359000006,781.0441359000006,781.0441359000006,781.0441359000006,781.0286369000005,3,0.7932233000001361,0.4448013000001083,None,,,,,,,,,,,,,,,,,,,,,,7382,1,2025-06-21_11h07.10.350,sm,2024.2.4,59.982173297974455,2025-06-21 11h07.31.692315 +0200,
32,0,32,,,,,,space,2.1376962000003914,None,None,3,1.0041402999995626,0.4791998999999123,None,0,0,0,0,,,,,1,0,1,0,,,,,32,0,32,0,781.0441359000006,,,,,,,,,,,,,,,,,,,,,,,,,,,,,,,,,,,,,,,,,,,,,,,,,,,,,,,,,Schwarz,2.7768,781.0291391999999,781.0297872000001,781.0298882000006,781.0441359000006,783.8272625,783.8114522000005,783.8149546000004,783.8272625,783.8272625,783.8272625,783.8272625,785.8272612000001,785.8272612000001,785.8272612000001,785.8272612000001,785.8118368000005,3,1.0041402999995626,0.4791998999999123,None,,,,,,,,,,,,,,,,,,,,,,7382,1,2025-06-21_11h07.10.350,sm,2024.2.4,59.982173297974455,2025-06-21 11h07.31.692315 +0200,
33,0,33,,,,,,space,2.1376962000003914,None,None,2,1.2409976999997525,0.31812970000009955,None,0,0,0,0,,,,,1,0,1,0,,,,,33,0,33,0,785.8272612000001,,,,,,,,,,,,,,,,,,,,,,,,,,,,,,,,,,,,,,,,,,,,,,,,,,,,,,,,,Familie,2.5671,785.8123388000004,785.8129944000002,785.8130980000005,785.8272612000001,788.3935880999998,788.3781372000003,788.3820423000006,788.3935880999998,788.3935880999998,788.3935880999998,788.3935880999998,790.3938206000003,790.3938206000003,790.3938206000003,790.3938206000003,790.3780974000001,2,1.2409976999997525,0.31812970000009955,None,,,,,,,,,,,,,,,,,,,,,,7382,1,2025-06-21_11h07.10.350,sm,2024.2.4,59.982173297974455,2025-06-21 11h07.31.692315 +0200,
34,0,34,,,,,,space,2.1376962000003914,None,None,3,1.1840652999999293,0.46345060000021476,None,0,0,0,0,,,,,1,0,1,0,,,,,34,0,34,0,790.3938206000003,,,,,,,,,,,,,,,,,,,,,,,,,,,,,,,,,,,,,,,,,,,,,,,,,,,,,,,,,Gemüse,3.105,790.3786018000001,790.3792533000005,790.3793575999998,790.3938206000003,793.5101282000005,793.4944323999998,793.4984310999998,793.5101282000005,793.5101282000005,793.5101282000005,793.5101282000005,795.5100276000003,795.5100276000003,795.5100276000003,795.5100276000003,795.4943855000001,3,1.1840652999999293,0.46345060000021476,None,,,,,,,,,,,,,,,,,,,,,,7382,1,2025-06-21_11h07.10.350,sm,2024.2.4,59.982173297974455,2025-06-21 11h07.31.692315 +0200,
35,0,35,,,,,,space,2.1376962000003914,None,None,3,0.8134792000000743,0.402013299999453,None,0,0,0,0,,,,,1,0,1,0,,,,,35,0,35,0,795.5100276000003,,,,,,,,,,,,,,,,,,,,,,,,,,,,,,,,,,,,,,,,,,,,,,,,,,,,,,,,,Beutel,3.442,795.4948750000003,795.4955344,795.4956436000002,795.5100276000003,798.9600883000003,798.9444821000006,798.9486424000006,798.9600883000003,798.9600883000003,798.9600883000003,798.9600883000003,800.9596534000002,800.9596534000002,800.9596534000002,800.9596534000002,800.944082,3,0.8134792000000743,0.402013299999453,None,,,,,,,,,,,,,,,,,,,,,,7382,1,2025-06-21_11h07.10.350,sm,2024.2.4,59.982173297974455,2025-06-21 11h07.31.692315 +0200,
36,0,36,,,,,,space,2.1376962000003914,None,None,3,1.4860410000001139,None,None,0,0,0,0,,,,,1,0,1,0,,,,,36,0,36,0,800.9596534000002,,,,,,,,,,,,,,,,,,,,,,,,,,,,,,,,,,,,,,,,,,,,,,,,,,,,,,,,,Bürste,3.3923,800.9445998000001,800.9452484000003,800.9453539000006,800.9596534000002,804.3594825,804.3440142,804.3480074999998,804.3594825,804.3594825,804.3594825,804.3594825,806.3595194999998,806.3595194999998,806.3595194999998,806.3595194999998,806.3440132000005,3,1.4860410000001139,None,None,,,,,,,,,,,,,,,,,,,,,,7382,1,2025-06-21_11h07.10.350,sm,2024.2.4,59.982173297974455,2025-06-21 11h07.31.692315 +0200,
37,0,37,,,,,,space,2.1376962000003914,None,None,2,0.7222496000003957,0.262246000000232,None,0,0,0,0,,,,,1,0,1,0,,,,,37,0,37,0,806.3595194999998,,,,,,,,,,,,,,,,,,,,,,,,,,,,,,,,,,,,,,,,,,,,,,,,,,,,,,,,,Geschwister,3.1678,806.3445154000001,806.3451251000006,806.3452293999999,806.3595194999998,809.5422947000006,809.5266538000005,809.5313471999998,809.5422947000006,809.5422947000006,809.5422947000006,809.5422947000006,811.5425898000003,811.5425898000003,811.5425898000003,811.5425898000003,811.5269281000001,2,0.7222496000003957,0.262246000000232,None,,,,,,,,,,,,,,,,,,,,,,7382,1,2025-06-21_11h07.10.350,sm,2024.2.4,59.982173297974455,2025-06-21 11h07.31.692315 +0200,
38,0,38,,,,,,space,2.1376962000003914,None,None,3,1.7207665000005363,None,None,0,0,0,0,,,,,1,0,1,0,,,,,38,0,38,0,811.5425898000003,,,,,,,,,,,,,,,,,,,,,,,,,,,,,,,,,,,,,,,,,,,,,,,,,,,,,,,,,Rose,2.4567,811.5274360000003,811.5280356000003,811.5281384,811.5425898000003,814.0087705000005,813.9932935000006,813.9969167999998,814.0087705000005,814.0087705000005,814.0087705000005,814.0087705000005,816.0088722,816.0088722,816.0088722,816.0088722,815.9932896,3,1.7207665000005363,None,None,,,,,,,,,,,,,,,,,,,,,,7382,1,2025-06-21_11h07.10.350,sm,2024.2.4,59.982173297974455,2025-06-21 11h07.31.692315 +0200,
39,0,39,,,,,,space,2.1376962000003914,None,None,3,1.0931893999995737,0.3695260000004055,None,0,0,0,0,,,,,1,0,1,0,,,,,39,0,39,0,816.0088722,,,,,,,,,,,,,,,,,,,,,,,,,,,,,,,,,,,,,,,,,,,,,,,,,,,,,,,,,Zug,2.4268,815.9937893000006,815.9945690000004,815.9946731999999,816.0088722,818.4418442000006,818.4262315000005,818.4292255999999,818.4418442000006,818.4418442000006,818.4418442000006,818.4418442000006,820.4420139000003,820.4420139000003,820.4420139000003,820.4420139000003,820.4263685000005,3,1.0931893999995737,0.3695260000004055,None,,,,,,,,,,,,,,,,,,,,,,7382,1,2025-06-21_11h07.10.350,sm,2024.2.4,59.982173297974455,2025-06-21 11h07.31.692315 +0200,
40,0,40,,,,,,space,2.1376962000003914,None,None,3,0.7563878000000841,0.3510728000001109,None,0,0,0,0,,,,,1,0,1,0,,,,,40,0,40,0,820.4420139000003,,,,,,,,,,,,,,,,,,,,,,,,,,,,,,,,,,,,,,,,,,,,,,,,,,,,,,,,,Urlaub,3.1562,820.4268804000003,820.4273933000004,820.4274974999998,820.4420139000003,823.6080879000001,823.5929863000001,823.5990712000003,823.6080879000001,823.6080879000001,823.6080879000001,823.6080879000001,825.6082259000004,825.6082259000004,825.6082259000004,825.6082259000004,825.5926500000005,3,0.7563878000000841,0.3510728000001109,None,,,,,,,,,,,,,,,,,,,,,,7382,1,2025-06-21_11h07.10.350,sm,2024.2.4,59.982173297974455,2025-06-21 11h07.31.692315 +0200,
41,0,41,,,,,,space,2.1376962000003914,None,None,2,0.7930599999999686,0.22258160000001226,None,0,0,0,0,,,,,1,0,1,0,,,,,41,0,41,0,825.6082259000004,,,,,,,,,,,,,,,,,,,,,,,,,,,,,,,,,,,,,,,,,,,,,,,,,,,,,,,,,Löwe,2.8287,825.5931582000003,825.5936649000005,825.5937675000005,825.6082259000004,828.4415460999999,828.4258885999998,828.4294311000003,828.4415460999999,828.4415460999999,828.4415460999999,828.4415460999999,830.4413838999999,830.4413838999999,830.4413838999999,830.4413838999999,830.4258973000005,2,0.7930599999999686,0.22258160000001226,None,,,,,,,,,,,,,,,,,,,,,,7382,1,2025-06-21_11h07.10.350,sm,2024.2.4,59.982173297974455,2025-06-21 11h07.31.692315 +0200,
42,0,42,,,,,,space,2.1376962000003914,None,None,2,1.497201799999857,None,None,0,0,0,0,,,,,1,0,1,0,,,,,42,0,42,0,830.4413838999999,,,,,,,,,,,,,,,,,,,,,,,,,,,,,,,,,,,,,,,,,,,,,,,,,,,,,,,,,Lernen,2.5435,830.4263863000006,830.4269728999998,830.4270756000005,830.4413838999999,832.9910938000003,832.9753990999998,832.9787836000005,832.9910938000003,832.9910938000003,832.9910938000003,832.9910938000003,834.9911644000003,834.9911644000003,834.9911644000003,834.9911644000003,834.9756980000002,2,1.497201799999857,None,None,,,,,,,,,,,,,,,,,,,,,,7382,1,2025-06-21_11h07.10.350,sm,2024.2.4,59.982173297974455,2025-06-21 11h07.31.692315 +0200,
43,0,43,,,,,,space,2.1376962000003914,None,None,3,1.4985209999995277,0.3077963000005184,None,0,0,0,0,,,,,1,0,1,0,,,,,43,0,43,0,834.9911644000003,,,,,,,,,,,,,,,,,,,,,,,,,,,,,,,,,,,,,,,,,,,,,,,,,,,,,,,,,Rasen,3.2746,834.9762109000003,834.9767656000004,834.9768705000006,834.9911644000003,838.2740407000001,838.2585288,838.2634967000004,838.2740407000001,838.2740407000001,838.2740407000001,838.2740407000001,840.2741919,840.2741919,840.2741919,840.2741919,840.2583106000002,3,1.4985209999995277,0.3077963000005184,None,,,,,,,,,,,,,,,,,,,,,,7382,1,2025-06-21_11h07.10.350,sm,2024.2.4,59.982173297974455,2025-06-21 11h07.31.692315 +0200,
44,0,44,,,,,,space,2.1376962000003914,None,None,3,1.189592800000355,0.3011692000000039,None,0,0,0,0,,,,,1,0,1,0,,,,,44,0,44,0,840.2741919,,,,,,,,,,,,,,,,,,,,,,,,,,,,,,,,,,,,,,,,,,,,,,,,,,,,,,,,,Sendung,3.5332,840.258758,840.2592329999998,840.2593237000001,840.2741919,843.8071043999998,843.7913520000002,843.794895,843.8071043999998,843.8071043999998,843.8071043999998,843.8071043999998,845.807041,845.807041,845.807041,845.807041,845.7914571000001,3,1.189592800000355,0.3011692000000039,None,,,,,,,,,,,,,,,,,,,,,,7382,1,2025-06-21_11h07.10.350,sm,2024.2.4,59.982173297974455,2025-06-21 11h07.31.692315 +0200,
45,0,45,,,,,,space,2.1376962000003914,None,None,3,1.5960062000003745,0.3416832000002614,None,0,0,0,0,,,,,1,0,1,0,,,,,45,0,45,0,845.807041,,,,,,,,,,,,,,,,,,,,,,,,,,,,,,,,,,,,,,,,,,,,,,,,,,,,,,,,,Gruppe,2.6163,845.7919778000005,845.7926346000004,845.7927386000001,845.807041,848.4233687000005,848.4078674000002,848.4113544000002,848.4233687000005,848.4233687000005,848.4233687000005,848.4233687000005,850.4234707000005,850.4234707000005,850.4234707000005,850.4234707000005,850.4078839000003,3,1.5960062000003745,0.3416832000002614,None,,,,,,,,,,,,,,,,,,,,,,7382,1,2025-06-21_11h07.10.350,sm,2024.2.4,59.982173297974455,2025-06-21 11h07.31.692315 +0200,
46,0,46,,,,,,space,2.1376962000003914,None,None,3,0.6948459000004732,0.2802528000001985,None,0,0,0,0,,,,,1,0,1,0,,,,,46,0,46,0,850.4234707000005,,,,,,,,,,,,,,,,,,,,,,,,,,,,,,,,,,,,,,,,,,,,,,,,,,,,,,,,,Arbeit,2.1673,850.4083872000001,850.4089899999999,850.4090962,850.4234707000005,852.5896541000002,852.5744183000006,852.5780712000005,852.5896541000002,852.5896541000002,852.5896541000002,852.5896541000002,854.5898908999998,854.5898908999998,854.5898908999998,854.5898908999998,854.5745119000003,3,0.6948459000004732,0.2802528000001985,None,,,,,,,,,,,,,,,,,,,,,,7382,1,2025-06-21_11h07.10.350,sm,2024.2.4,59.982173297974455,2025-06-21 11h07.31.692315 +0200,
47,0,47,,,,,,space,2.1376962000003914,None,None,2,0.9670212000000902,0.6212542000002941,None,0,0,0,0,,,,,1,0,1,0,,,,,47,0,47,0,854.5898908999998,,,,,,,,,,,,,,,,,,,,,,,,,,,,,,,,,,,,,,,,,,,,,,,,,,,,,,,,,Vogel,2.9083,854.5750214999998,854.5755767,854.5756808000006,854.5898908999998,857.5062324,857.4904971000005,857.4940569,857.5062324,857.5062324,857.5062324,857.5062324,859.5062859999998,859.5062859999998,859.5062859999998,859.5062859999998,859.4909358000004,2,0.9670212000000902,0.6212542000002941,None,,,,,,,,,,,,,,,,,,,,,,7382,1,2025-06-21_11h07.10.350,sm,2024.2.4,59.982173297974455,2025-06-21 11h07.31.692315 +0200,
48,0,48,,,,,,space,2.1376962000003914,None,None,2,0.8612456999999267,0.5465109999995548,None,0,0,0,0,,,,,1,0,1,0,,,,,48,0,48,0,859.5062859999998,,,,,,,,,,,,,,,,,,,,,,,,,,,,,,,,,,,,,,,,,,,,,,,,,,,,,,,,,Besucher,2.538,859.4914616000005,859.4920047000005,859.4921211000001,859.5062859999998,862.0559884000004,862.0406336000005,862.0448562000001,862.0559884000004,862.0559884000004,862.0559884000004,862.0559884000004,864.0560407000003,864.0560407000003,864.0560407000003,864.0560407000003,864.0404907000002,2,0.8612456999999267,0.5465109999995548,None,,,,,,,,,,,,,,,,,,,,,,7382,1,2025-06-21_11h07.10.350,sm,2024.2.4,59.982173297974455,2025-06-21 11h07.31.692315 +0200,
49,0,49,,,,,,space,2.1376962000003914,None,None,3,0.9217799999996714,0.3500722999997379,None,0,0,0,0,,,,,1,0,1,0,,,,,49,0,49,0,864.0560407000003,,,,,,,,,,,,,,,,,,,,,,,,,,,,,,,,,,,,,,,,,,,,,,,,,,,,,,,,,Teller,2.3009,864.0409963000002,864.0415054000005,864.0416080000005,864.0560407000003,866.3558339000001,866.3402327000003,866.3438948000003,866.3558339000001,866.3558339000001,866.3558339000001,866.3558339000001,868.3557698000004,868.3557698000004,868.3557698000004,868.3557698000004,868.3399338999998,3,0.9217799999996714,0.3500722999997379,None,,,,,,,,,,,,,,,,,,,,,,7382,1,2025-06-21_11h07.10.350,sm,2024.2.4,59.982173297974455,2025-06-21 11h07.31.692315 +0200,
50,0,50,,,,,,space,2.1376962000003914,None,None,3,0.949119700000665,0.3350836999998137,None,0,0,0,0,,,,,1,0,1,0,,,,,50,0,50,0,868.3557698000004,,,,,,,,,,,,,,,,,,,,,,,,,,,,,,,,,,,,,,,,,,,,,,,,,,,,,,,,,Krone,3.9776,868.3403272000005,868.3407802000002,868.3408587000004,868.3557698000004,872.3388414000001,872.3229956000005,872.3275238000006,872.3388414000001,872.3388414000001,872.3388414000001,872.3388414000001,874.3387194000006,874.3387194000006,874.3387194000006,874.3387194000006,874.3236907999999,3,0.949119700000665,0.3350836999998137,None,,,,,,,,,,,,,,,,,,,,,,7382,1,2025-06-21_11h07.10.350,sm,2024.2.4,59.982173297974455,2025-06-21 11h07.31.692315 +0200,
51,0,51,,,,,,space,2.1376962000003914,None,None,2,0.9245832000005976,0.2975999000000229,None,0,0,0,0,,,,,1,0,1,0,,,,,51,0,51,0,874.3387194000006,,,,,,,,,,,,,,,,,,,,,,,,,,,,,,,,,,,,,,,,,,,,,,,,,,,,,,,,,Handwerker,3.9651,874.3242048000002,874.3247216,874.3248266999999,874.3387194000006,878.3051663000006,878.2895468000006,878.2941003000005,878.3051663000006,878.3051663000006,878.3051663000006,878.3051663000006,880.3051907999998,880.3051907999998,880.3051907999998,880.3051907999998,880.2896870000004,2,0.9245832000005976,0.2975999000000229,None,,,,,,,,,,,,,,,,,,,,,,7382,1,2025-06-21_11h07.10.350,sm,2024.2.4,59.982173297974455,2025-06-21 11h07.31.692315 +0200,
52,0,52,,,,,,space,2.1376962000003914,None,None,3,0.7987945000004402,0.3640480000003663,None,0,0,0,0,,,,,1,0,1,0,,,,,52,0,52,0,880.3051907999998,,,,,,,,,,,,,,,,,,,,,,,,,,,,,,,,,,,,,,,,,,,,,,,,,,,,,,,,,Küche,2.1514,880.2901155999998,880.2905854999999,880.2906725000003,880.3051907999998,882.4715577000006,882.4559292000004,882.4599663999998,882.4715577000006,882.4715577000006,882.4715577000006,882.4715577000006,884.4718115000005,884.4718115000005,884.4718115000005,884.4718115000005,884.4561503000004,3,0.7987945000004402,0.3640480000003663,None,,,,,,,,,,,,,,,,,,,,,,7382,1,2025-06-21_11h07.10.350,sm,2024.2.4,59.982173297974455,2025-06-21 11h07.31.692315 +0200,
53,0,53,,,,,,space,2.1376962000003914,None,None,2,1.1678000000001703,0.5962034000003769,None,0,0,0,0,,,,,1,0,1,0,,,,,53,0,53,0,884.4718115000005,,,,,,,,,,,,,,,,,,,,,,,,,,,,,,,,,,,,,,,,,,,,,,,,,,,,,,,,,Vampir,2.6364,884.4566648999999,884.4571885000005,884.4572961000003,884.4718115000005,887.1210411000002,887.1055201999998,887.1092219000002,887.1210411000002,887.1210411000002,887.1210411000002,887.1210411000002,889.1213193000003,889.1213193000003,889.1213193000003,889.1213193000003,889.1057790000004,2,1.1678000000001703,0.5962034000003769,None,,,,,,,,,,,,,,,,,,,,,,7382,1,2025-06-21_11h07.10.350,sm,2024.2.4,59.982173297974455,2025-06-21 11h07.31.692315 +0200,
54,0,54,,,,,,space,2.1376962000003914,None,None,3,1.0151744000004328,0.38580219999948895,None,0,0,0,0,,,,,1,0,1,0,,,,,54,0,54,0,889.1213193000003,,,,,,,,,,,,,,,,,,,,,,,,,,,,,,,,,,,,,,,,,,,,,,,,,,,,,,,,,Weiß,4.4498,889.1062794,889.1069232999998,889.1070267000005,889.1213193000003,893.5710542000006,893.5557339000006,893.5593245,893.5710542000006,893.5710542000006,893.5710542000006,893.5710542000006,895.5709183999998,895.5709183999998,895.5709183999998,895.5709183999998,895.5554013999999,3,1.0151744000004328,0.38580219999948895,None,,,,,,,,,,,,,,,,,,,,,,7382,1,2025-06-21_11h07.10.350,sm,2024.2.4,59.982173297974455,2025-06-21 11h07.31.692315 +0200,
55,0,55,,,,,,space,2.1376962000003914,None,None,None,,,None,0,0,0,0,,,,,1,0,1,0,,,,,55,0,55,0,895.5709183999998,,,,,,,,,,,,,,,,,,,,,,,,,,,,,,,,,,,,,,,,,,,,,,,,,,,,,,,,,Baum,2.7267,895.5559008,895.5564254999999,895.5565279000002,895.5709183999998,898.3040783000006,898.2886453000001,898.2921602000006,898.3040783000006,898.3040783000006,898.3040783000006,898.3040783000006,900.3040646,900.3040646,900.3040646,900.3040646,900.2885008000003,None,,,None,,,,,,,,,,,,,,,,,,,,,,7382,1,2025-06-21_11h07.10.350,sm,2024.2.4,59.982173297974455,2025-06-21 11h07.31.692315 +0200,
56,0,56,,,,,,space,2.1376962000003914,None,None,2,1.2518287000002601,0.3541170999997121,None,0,0,0,0,,,,,1,0,1,0,,,,,56,0,56,0,900.3040646,,,,,,,,,,,,,,,,,,,,,,,,,,,,,,,,,,,,,,,,,,,,,,,,,,,,,,,,,Knöchel,2.9885,900.2889710999998,900.2894972000004,900.2896006999999,900.3040646,903.3039494000004,903.2883681000003,903.2938886000002,903.3039494000004,903.3039494000004,903.3039494000004,903.3039494000004,905.3036588000004,905.3036588000004,905.3036588000004,905.3036588000004,905.2880992,2,1.2518287000002601,0.3541170999997121,None,,,,,,,,,,,,,,,,,,,,,,7382,1,2025-06-21_11h07.10.350,sm,2024.2.4,59.982173297974455,2025-06-21 11h07.31.692315 +0200,
57,0,57,,,,,,space,2.1376962000003914,None,None,3,1.6227656999999454,None,None,0,0,0,0,,,,,1,0,1,0,,,,,57,0,57,0,905.3036588000004,,,,,,,,,,,,,,,,,,,,,,,,,,,,,,,,,,,,,,,,,,,,,,,,,,,,,,,,,Maske,4.5099,905.2886095000003,905.2891196999999,905.289229,905.3036588000004,909.8198934000002,909.8046519,909.8086275000005,909.8198934000002,909.8198934000002,909.8198934000002,909.8198934000002,911.8198385000005,911.8198385000005,911.8198385000005,911.8198385000005,911.8044139000003,3,1.6227656999999454,None,None,,,,,,,,,,,,,,,,,,,,,,7382,1,2025-06-21_11h07.10.350,sm,2024.2.4,59.982173297974455,2025-06-21 11h07.31.692315 +0200,
58,0,58,,,,,,space,2.1376962000003914,None,None,3,0.955186500000309,0.8112383999996382,None,0,0,0,0,,,,,1,0,1,0,,,,,58,0,58,0,911.8198385000005,,,,,,,,,,,,,,,,,,,,,,,,,,,,,,,,,,,,,,,,,,,,,,,,,,,,,,,,,Zigarette,2.3189,911.8049140000003,911.8056937000001,911.8057999000002,911.8198385000005,914.1530982000004,914.1376975000003,914.1419950999998,914.1530982000004,914.1530982000004,914.1530982000004,914.1530982000004,916.1530755000003,916.1530755000003,916.1530755000003,916.1530755000003,916.1375214999998,3,0.955186500000309,0.8112383999996382,None,,,,,,,,,,,,,,,,,,,,,,7382,1,2025-06-21_11h07.10.350,sm,2024.2.4,59.982173297974455,2025-06-21 11h07.31.692315 +0200,
59,0,59,,,,,,space,2.1376962000003914,None,None,3,1.5402157999997144,None,None,0,0,0,0,,,,,1,0,1,0,,,,,59,0,59,0,916.1530755000003,,,,,,,,,,,,,,,,,,,,,,,,,,,,,,,,,,,,,,,,,,,,,,,,,,,,,,,,,Spaghetti,2.4291,916.1380254000005,916.1386819999998,916.1387826999999,916.1530755000003,918.5861132,918.5705266000004,918.5749700000006,918.5861132,918.5861132,918.5861132,918.5861132,920.5861863999999,920.5861863999999,920.5861863999999,920.5861863999999,920.5705867000006,3,1.5402157999997144,None,None,,,,,,,,,,,,,,,,,,,,,,7382,1,2025-06-21_11h07.10.350,sm,2024.2.4,59.982173297974455,2025-06-21 11h07.31.692315 +0200,
60,0,60,,,,,,space,2.1376962000003914,None,None,2,1.2666087000006883,0.4876168000000689,None,0,0,0,0,,,,,1,0,1,0,,,,,60,0,60,0,920.5861863999999,,,,,,,,,,,,,,,,,,,,,,,,,,,,,,,,,,,,,,,,,,,,,,,,,,,,,,,,,Atem,4.1633,920.5710859000001,920.5717800000002,920.5718852,920.5861863999999,924.7522100000006,924.7370836,924.7407876000007,924.7522100000006,924.7522100000006,924.7522100000006,924.7522100000006,926.7525641000002,926.7525641000002,926.7525641000002,926.7525641000002,926.7369795000004,2,1.2666087000006883,0.4876168000000689,None,,,,,,,,,,,,,,,,,,,,,,7382,1,2025-06-21_11h07.10.350,sm,2024.2.4,59.982173297974455,2025-06-21 11h07.31.692315 +0200,
61,0,61,,,,,,space,2.1376962000003914,None,None,2,0.8948353999994652,0.43350850000024366,None,0,0,0,0,,,,,1,0,1,0,,,,,61,0,61,0,926.7525641000002,,,,,,,,,,,,,,,,,,,,,,,,,,,,,,,,,,,,,,,,,,,,,,,,,,,,,,,,,Liebe,2.2025,926.7376629,926.7381744000004,926.7382899000004,926.7525641000002,928.9688643,928.9533564000003,928.9573313000001,928.9688643,928.9688643,928.9688643,928.9688643,930.9689162000004,930.9689162000004,930.9689162000004,930.9689162000004,930.9532962000003,2,0.8948353999994652,0.43350850000024366,None,,,,,,,,,,,,,,,,,,,,,,7382,1,2025-06-21_11h07.10.350,sm,2024.2.4,59.982173297974455,2025-06-21 11h07.31.692315 +0200,
62,0,62,,,,,,space,2.1376962000003914,None,None,2,0.939583099999254,0.4717900000005102,None,0,0,0,0,,,,,1,0,1,0,,,,,62,0,62,0,930.9689162000004,,,,,,,,,,,,,,,,,,,,,,,,,,,,,,,,,,,,,,,,,,,,,,,,,,,,,,,,,Klee,2.4435,930.9537976000001,930.9542829000002,930.9543861000002,930.9689162000004,933.4192985,933.4031737000005,933.4071168999999,933.4192985,933.4192985,933.4192985,933.4192985,935.4190259000006,935.4190259000006,935.4190259000006,935.4190259000006,935.4032619999998,2,0.939583099999254,0.4717900000005102,None,,,,,,,,,,,,,,,,,,,,,,7382,1,2025-06-21_11h07.10.350,sm,2024.2.4,59.982173297974455,2025-06-21 11h07.31.692315 +0200,
63,0,63,,,,,,space,2.1376962000003914,None,None,3,0.9986574999993536,0.4825899000006757,None,0,0,0,0,,,,,1,0,1,0,,,,,63,0,63,0,935.4190259000006,,,,,,,,,,,,,,,,,,,,,,,,,,,,,,,,,,,,,,,,,,,,,,,,,,,,,,,,,Kerzen,2.1834,935.4037659000005,935.4044203000003,935.4045235000003,935.4190259000006,937.6023617000001,937.5860372000006,937.5905505000001,937.6023617000001,937.6023617000001,937.6023617000001,937.6023617000001,939.6016487000006,939.6016487000006,939.6016487000006,939.6016487000006,939.5861171000006,3,0.9986574999993536,0.4825899000006757,None,,,,,,,,,,,,,,,,,,,,,,7382,1,2025-06-21_11h07.10.350,sm,2024.2.4,59.982173297974455,2025-06-21 11h07.31.692315 +0200,
