thisN,thisTrialN,thisRepN,Cue,Target,Mediator1,Mediator2,iti,scanner_ready_press.keys,scanner_ready_press.rt,scanner_ready_press.duration,skip_trigger.keys,living_nonliving.keys,living_nonliving.rt,living_nonliving.duration,end_mapping.keys,blocks.thisRepN,blocks.thisTrialN,blocks.thisN,blocks.thisIndex,load_and_shuffle.thisRepN,load_and_shuffle.thisTrialN,load_and_shuffle.thisN,load_and_shuffle.thisIndex,runs.thisRepN,runs.thisTrialN,runs.thisN,runs.thisIndex,iti_loading_loop.thisRepN,iti_loading_loop.thisTrialN,iti_loading_loop.thisN,iti_loading_loop.thisIndex,semantic_mapping_run.thisRepN,semantic_mapping_run.thisTrialN,semantic_mapping_run.thisN,semantic_mapping_run.thisIndex,thisRow.t,notes,welcome.started,welcome_text.started,key_resp__welcome.started,welcome.stopped,key_resp__welcome.keys,key_resp__welcome.rt,key_resp__welcome.duration,scout.started,scout_text.started,key_resp.started,scout.stopped,key_resp.keys,key_resp.rt,key_resp.duration,instructions_semantic_mapping1.started,sm_instructions1_text.started,sm_instructions1_key.started,instructions_semantic_mapping1.stopped,sm_instructions1_key.keys,sm_instructions1_key.rt,sm_instructions1_key.duration,instructions_semantic_mapping2.started,sm_instructions2_text.started,sm_instructions2_key.started,instructions_semantic_mapping2.stopped,sm_instructions2_key.keys,sm_instructions2_key.rt,sm_instructions2_key.duration,reset_run.started,reset_run.stopped,shuffle_items.started,shuffle_items.stopped,set_up_runs.started,set_up_runs.stopped,load_iti.started,load_iti.stopped,prep_scanner.started,scanner_ready_press.started,ready_set_text.started,prep_scanner.stopped,runs.scanner_ready_press.keys,runs.scanner_ready_press.rt,runs.scanner_ready_press.duration,wait_for_trigger.started,starting_soon.started,skip_trigger.started,wait_for_trigger.stopped,runs.skip_trigger.keys,blank.started,begin_end_run_cross.started,sound_1.started,sound_1.stopped,sound_2.started,sound_2.stopped,blank.stopped,CurrentItem,CurrentITI,set_up_trial.started,set_up_trial.stopped,sm_iti.started,iti_cross.started,iti_cross.stopped,sm_iti.stopped,item.started,living_nonliving.started,end_mapping.started,living_nonliving_text.started,semantic_map_item.started,living_nonliving.stopped,end_mapping.stopped,living_nonliving_text.stopped,semantic_map_item.stopped,item.stopped,semantic_mapping_run.living_nonliving.keys,semantic_mapping_run.living_nonliving.rt,semantic_mapping_run.living_nonliving.duration,semantic_mapping_run.end_mapping.keys,fieldmap.started,fieldmap.stopped,runs.fm_key.keys,task_break.started,feeback_text.started,task_break_text.started,task_break_resp.started,feeback_text.stopped,task_break.stopped,runs.task_break_resp.keys,runs.task_break_resp.rt,runs.task_break_resp.duration,begin_end_run_cross.stopped,fm_text.started,fm_key.started,runs.fm_key.rt,runs.fm_key.duration,PID,MRI,date,expName,psychopyVersion,frameRate,expStart,
,,,,,,,,,,,,,,,,,,,,,,,,,,,,,,,,,,,,,,0.004662899999857473,0.013578699999925448,0.013578699999925448,11.196700399999827,space,11.174768400000175,None,,,,,,,,,,,,,,,,,,,,,,,,,,,,,,,,,,,,,,,,,,,,,,,,,,,,,,,,,,,,,,,,,,,,,,,,,,,,,,,,,,,,,,,,5720,1,2025-10-17_16h12.03.769,sm,2024.2.4,59.967138008263554,2025-10-17 16h12.15.988986 +0200,
,,,,,,,,,,,,,,,,,,,,,,,,,,,,,,,,,,,,,,,,,,,,,11.196822500000053,11.205913200000396,11.205913200000396,92.06614439999976,space,80.84590240000034,None,,,,,,,,,,,,,,,,,,,,,,,,,,,,,,,,,,,,,,,,,,,,,,,,,,,,,,,,,,,,,,,,,,,,,,,,,,,,,,,,,5720,1,2025-10-17_16h12.03.769,sm,2024.2.4,59.967138008263554,2025-10-17 16h12.15.988986 +0200,
,,,,,,,,,,,,,,,,,,,,,,,,,,,,,,,,,,,,,,,,,,,,,,,,,,,,92.06632270000046,92.08120260000032,92.08120260000032,105.73198320000029,2,13.647944899999857,None,,,,,,,,,,,,,,,,,,,,,,,,,,,,,,,,,,,,,,,,,,,,,,,,,,,,,,,,,,,,,,,,,,,,,,,,,,5720,1,2025-10-17_16h12.03.769,sm,2024.2.4,59.967138008263554,2025-10-17 16h12.15.988986 +0200,
,,,,,,,,,,,,,,,,,,,,,,,,,,,,,,,,,,,,,,,,,,,,,,,,,,,,,,,,,,,105.7321063999998,105.74698900000021,105.74698900000021,115.06504949999999,2,9.312473699999828,None,,,,,,,,,,,,,,,,,,,,,,,,,,,,,,,,,,,,,,,,,,,,,,,,,,,,,,,,,,,,,,,,,,,5720,1,2025-10-17_16h12.03.769,sm,2024.2.4,59.967138008263554,2025-10-17 16h12.15.988986 +0200,
0,0,0,Mappe,Ordner,Datei,Papier,3.3674,space,3.7270582999999533,None,None,3,1.4598611999999775,0.2462851000000228,None,0,0,0,0,0,79,79,46,0,0,0,0,0,79,79,7,0,0,0,0,177.62834400000065,,,,,,,,,,,,,,,,,,,,,,,,,,,,,,115.06597899999997,115.06665440000052,115.14309529999991,115.14334550000058,115.14787030000025,115.14816710000014,115.17777800000022,115.17798940000011,115.18461320000006,115.18852860000061,115.18852860000061,118.9334114000003,space,3.7270582999999533,None,118.93357060000017,118.94813620000059,118.94813620000059,165.59693080000034,None,165.60571560000062,165.61418370000047,165.6122989666667,166.82158299999992,175.61125356666733,176.62135649999982,177.61131440000008,Schuh,3.3674,177.61265820000062,177.6133346000006,177.6164574000004,177.62834400000065,181.01046730000053,180.99524810000003,180.9986570000001,181.01046730000053,181.01046730000053,181.01046730000053,181.01046730000053,183.0109379000005,183.0109379000005,183.0109379000005,183.0109379000005,182.9958704999999,3,1.4598611999999775,0.2462851000000228,None,,,,,,,,,,,,,,,,,,5720,1,2025-10-17_16h12.03.769,sm,2024.2.4,59.967138008263554,2025-10-17 16h12.15.988986 +0200,
1,0,1,,,,,,space,3.7270582999999533,None,None,3,0.8313931999991837,0.2865473000001657,None,0,0,0,0,,,,,0,0,0,0,,,,,1,0,1,0,183.0109379000005,,,,,,,,,,,,,,,,,,,,,,,,,,,,,,,,,,,,,,,,,,,,,,,,,,,,,,,,,Nase,4.0471,182.99638719999984,182.99690800000008,182.99702179999986,183.0109379000005,187.0607104999999,187.04507210000065,187.0486808000005,187.0607104999999,187.0607104999999,187.0607104999999,187.0607104999999,189.06065130000025,189.06065130000025,189.06065130000025,189.06065130000025,189.0449921999998,3,0.8313931999991837,0.2865473000001657,None,,,,,,,,,,,,,,,,,,5720,1,2025-10-17_16h12.03.769,sm,2024.2.4,59.967138008263554,2025-10-17 16h12.15.988986 +0200,
2,0,2,,,,,,space,3.7270582999999533,None,None,2,0.7601297000001068,0.19412190000002738,None,0,0,0,0,,,,,0,0,0,0,,,,,2,0,2,0,189.06065130000025,,,,,,,,,,,,,,,,,,,,,,,,,,,,,,,,,,,,,,,,,,,,,,,,,,,,,,,,,Hase,2.9545,189.04549860000043,189.0460309,189.04613860000063,189.06065130000025,192.02749050000057,192.0115248000002,192.0181935999999,192.02749050000057,192.02749050000057,192.02749050000057,192.02749050000057,194.02705940000033,194.02705940000033,194.02705940000033,194.02705940000033,194.01121430000057,2,0.7601297000001068,0.19412190000002738,None,,,,,,,,,,,,,,,,,,5720,1,2025-10-17_16h12.03.769,sm,2024.2.4,59.967138008263554,2025-10-17 16h12.15.988986 +0200,
3,0,3,,,,,,space,3.7270582999999533,None,None,3,0.8073337999994692,0.2560293000005913,None,0,0,0,0,,,,,0,0,0,0,,,,,3,0,3,0,194.02705940000033,,,,,,,,,,,,,,,,,,,,,,,,,,,,,,,,,,,,,,,,,,,,,,,,,,,,,,,,,Soße,2.8689,194.01169220000065,194.01219550000042,194.01229690000036,194.02705940000033,196.9098969000006,196.89436240000032,196.8980677999998,196.9098969000006,196.9098969000006,196.9098969000006,196.9098969000006,198.90996520000044,198.90996520000044,198.90996520000044,198.90996520000044,198.89422600000034,3,0.8073337999994692,0.2560293000005913,None,,,,,,,,,,,,,,,,,,5720,1,2025-10-17_16h12.03.769,sm,2024.2.4,59.967138008263554,2025-10-17 16h12.15.988986 +0200,
4,0,4,,,,,,space,3.7270582999999533,None,None,3,0.6939133999994738,0.2611370000004172,None,0,0,0,0,,,,,0,0,0,0,,,,,4,0,4,0,198.90996520000044,,,,,,,,,,,,,,,,,,,,,,,,,,,,,,,,,,,,,,,,,,,,,,,,,,,,,,,,,Hose,2.4547,198.89471050000066,198.89534749999984,198.89545720000024,198.90996520000044,201.37628620000032,201.36072289999993,201.36367640000026,201.37628620000032,201.37628620000032,201.37628620000032,201.37628620000032,203.37642959999994,203.37642959999994,203.37642959999994,203.37642959999994,203.3609790999999,3,0.6939133999994738,0.2611370000004172,None,,,,,,,,,,,,,,,,,,5720,1,2025-10-17_16h12.03.769,sm,2024.2.4,59.967138008263554,2025-10-17 16h12.15.988986 +0200,
5,0,5,,,,,,space,3.7270582999999533,None,None,3,0.747954700000264,0.26125020000017685,None,0,0,0,0,,,,,0,0,0,0,,,,,5,0,5,0,203.37642959999994,,,,,,,,,,,,,,,,,,,,,,,,,,,,,,,,,,,,,,,,,,,,,,,,,,,,,,,,,Zucker,5.095,203.36148719999983,203.36213380000027,203.36224130000028,203.37642959999994,208.47597680000035,208.4605676000001,208.4669539000006,208.47597680000035,208.47597680000035,208.47597680000035,208.47597680000035,210.47589080000034,210.47589080000034,210.47589080000034,210.47589080000034,210.4605161999998,3,0.747954700000264,0.26125020000017685,None,,,,,,,,,,,,,,,,,,5720,1,2025-10-17_16h12.03.769,sm,2024.2.4,59.967138008263554,2025-10-17 16h12.15.988986 +0200,
6,0,6,,,,,,space,3.7270582999999533,None,None,3,0.9067903999994087,0.3045962000005602,None,0,0,0,0,,,,,0,0,0,0,,,,,6,0,6,0,210.47589080000034,,,,,,,,,,,,,,,,,,,,,,,,,,,,,,,,,,,,,,,,,,,,,,,,,,,,,,,,,Album,2.016,210.46103360000052,210.4616728000001,210.4617814000003,210.47589080000034,212.4925447000005,212.47648389999995,212.47961440000017,212.4925447000005,212.4925447000005,212.4925447000005,212.4925447000005,214.49248739999985,214.49248739999985,214.49248739999985,214.49248739999985,214.47675340000023,3,0.9067903999994087,0.3045962000005602,None,,,,,,,,,,,,,,,,,,5720,1,2025-10-17_16h12.03.769,sm,2024.2.4,59.967138008263554,2025-10-17 16h12.15.988986 +0200,
7,0,7,,,,,,space,3.7270582999999533,None,None,3,0.7629086999995707,0.287554700000328,None,0,0,0,0,,,,,0,0,0,0,,,,,7,0,7,0,214.49248739999985,,,,,,,,,,,,,,,,,,,,,,,,,,,,,,,,,,,,,,,,,,,,,,,,,,,,,,,,,Ring,4.931,214.47726969999985,214.47777990000031,214.47788730000048,214.49248739999985,219.42514740000024,219.4099696000003,219.41367580000042,219.42514740000024,219.42514740000024,219.42514740000024,219.42514740000024,221.42506460000004,221.42506460000004,221.42506460000004,221.42506460000004,221.40935720000016,3,0.7629086999995707,0.287554700000328,None,,,,,,,,,,,,,,,,,,5720,1,2025-10-17_16h12.03.769,sm,2024.2.4,59.967138008263554,2025-10-17 16h12.15.988986 +0200,
8,0,8,,,,,,space,3.7270582999999533,None,None,3,0.6973596000007092,0.2965651999993497,None,0,0,0,0,,,,,0,0,0,0,,,,,8,0,8,0,221.42506460000004,,,,,,,,,,,,,,,,,,,,,,,,,,,,,,,,,,,,,,,,,,,,,,,,,,,,,,,,,Diamant,2.1015,221.40973440000016,221.41016510000009,221.41024950000065,221.42506460000004,223.54183850000027,223.5262483000006,223.5301571,223.54183850000027,223.54183850000027,223.54183850000027,223.54183850000027,225.54183720000037,225.54183720000037,225.54183720000037,225.54183720000037,225.52599079999982,3,0.6973596000007092,0.2965651999993497,None,,,,,,,,,,,,,,,,,,5720,1,2025-10-17_16h12.03.769,sm,2024.2.4,59.967138008263554,2025-10-17 16h12.15.988986 +0200,
9,0,9,,,,,,space,3.7270582999999533,None,None,3,0.6988442000001669,0.2742035000001124,None,0,0,0,0,,,,,0,0,0,0,,,,,9,0,9,0,225.54183720000037,,,,,,,,,,,,,,,,,,,,,,,,,,,,,,,,,,,,,,,,,,,,,,,,,,,,,,,,,Loch,3.611,225.52644250000048,225.52703780000047,225.52713310000036,225.54183720000037,229.15804780000053,229.1424275999998,229.14645550000023,229.15804780000053,229.15804780000053,229.15804780000053,229.15804780000053,231.15803730000061,231.15803730000061,231.15803730000061,231.15803730000061,231.14297700000043,3,0.6988442000001669,0.2742035000001124,None,,,,,,,,,,,,,,,,,,5720,1,2025-10-17_16h12.03.769,sm,2024.2.4,59.967138008263554,2025-10-17 16h12.15.988986 +0200,
10,0,10,,,,,,space,3.7270582999999533,None,None,2,0.7825417000003654,0.23726879999958328,None,0,0,0,0,,,,,0,0,0,0,,,,,10,0,10,0,231.15803730000061,,,,,,,,,,,,,,,,,,,,,,,,,,,,,,,,,,,,,,,,,,,,,,,,,,,,,,,,,Tischler,2.2633,231.1434817999998,231.14414140000008,231.14425480000045,231.15803730000061,233.42433249999976,233.40900890000012,233.41307200000028,233.42433249999976,233.42433249999976,233.42433249999976,233.42433249999976,235.42456140000013,235.42456140000013,235.42456140000013,235.42456140000013,235.40873809999994,2,0.7825417000003654,0.23726879999958328,None,,,,,,,,,,,,,,,,,,5720,1,2025-10-17_16h12.03.769,sm,2024.2.4,59.967138008263554,2025-10-17 16h12.15.988986 +0200,
11,0,11,,,,,,space,3.7270582999999533,None,None,3,0.7406381000000692,0.27032360000066546,None,0,0,0,0,,,,,0,0,0,0,,,,,11,0,11,0,235.42456140000013,,,,,,,,,,,,,,,,,,,,,,,,,,,,,,,,,,,,,,,,,,,,,,,,,,,,,,,,,Kuchen ,2.2996,235.4092236000006,235.40972090000014,235.40981929999998,235.42456140000013,237.7240866000002,237.70873440000014,237.71500879999985,237.7240866000002,237.7240866000002,237.7240866000002,237.7240866000002,239.72432329999992,239.72432329999992,239.72432329999992,239.72432329999992,239.70851540000058,3,0.7406381000000692,0.27032360000066546,None,,,,,,,,,,,,,,,,,,5720,1,2025-10-17_16h12.03.769,sm,2024.2.4,59.967138008263554,2025-10-17 16h12.15.988986 +0200,
12,0,12,,,,,,space,3.7270582999999533,None,None,2,0.7256511999994473,0.24791390000063984,None,0,0,0,0,,,,,0,0,0,0,,,,,12,0,12,0,239.72432329999992,,,,,,,,,,,,,,,,,,,,,,,,,,,,,,,,,,,,,,,,,,,,,,,,,,,,,,,,,Kopf,4.6883,239.70902639999986,239.7095386000001,239.70964840000033,239.72432329999992,244.4236152000003,244.40806390000034,244.4115026999998,244.4236152000003,244.4236152000003,244.4236152000003,244.4236152000003,246.42370459999984,246.42370459999984,246.42370459999984,246.42370459999984,246.4083430999999,2,0.7256511999994473,0.24791390000063984,None,,,,,,,,,,,,,,,,,,5720,1,2025-10-17_16h12.03.769,sm,2024.2.4,59.967138008263554,2025-10-17 16h12.15.988986 +0200,
13,0,13,,,,,,space,3.7270582999999533,None,None,2,0.7279569000002084,0.2283436999996411,None,0,0,0,0,,,,,0,0,0,0,,,,,13,0,13,0,246.42370459999984,,,,,,,,,,,,,,,,,,,,,,,,,,,,,,,,,,,,,,,,,,,,,,,,,,,,,,,,,Kunde,2.1236,246.40884360000018,246.40948490000028,246.4095913000001,246.42370459999984,248.55697969999983,248.54136730000027,248.54476250000062,248.55697969999983,248.55697969999983,248.55697969999983,248.55697969999983,250.55695990000004,250.55695990000004,250.55695990000004,250.55695990000004,250.54111790000024,2,0.7279569000002084,0.2283436999996411,None,,,,,,,,,,,,,,,,,,5720,1,2025-10-17_16h12.03.769,sm,2024.2.4,59.967138008263554,2025-10-17 16h12.15.988986 +0200,
14,0,14,,,,,,space,3.7270582999999533,None,None,2,0.5704451000001427,0.2513152999999875,None,0,0,0,0,,,,,0,0,0,0,,,,,14,0,14,0,250.55695990000004,,,,,,,,,,,,,,,,,,,,,,,,,,,,,,,,,,,,,,,,,,,,,,,,,,,,,,,,,Känguru,3.4631,250.54162309999992,250.5421366999999,250.5422441999999,250.55695990000004,254.0233592000004,254.00767970000015,254.01207070000055,254.0233592000004,254.0233592000004,254.0233592000004,254.0233592000004,256.0233036999998,256.0233036999998,256.0233036999998,256.0233036999998,256.0082357000001,2,0.5704451000001427,0.2513152999999875,None,,,,,,,,,,,,,,,,,,5720,1,2025-10-17_16h12.03.769,sm,2024.2.4,59.967138008263554,2025-10-17 16h12.15.988986 +0200,
15,0,15,,,,,,space,3.7270582999999533,None,None,3,0.7933667000006608,0.2574466999994911,None,0,0,0,0,,,,,0,0,0,0,,,,,15,0,15,0,256.0233036999998,,,,,,,,,,,,,,,,,,,,,,,,,,,,,,,,,,,,,,,,,,,,,,,,,,,,,,,,,Wüste,3.7299,256.0087454000004,256.0093797999998,256.0094929000006,256.0233036999998,259.7559166000001,259.7406697000006,259.74464739999985,259.7559166000001,259.7559166000001,259.7559166000001,259.7559166000001,261.7566459999998,261.7566459999998,261.7566459999998,261.7566459999998,261.74063149999984,3,0.7933667000006608,0.2574466999994911,None,,,,,,,,,,,,,,,,,,5720,1,2025-10-17_16h12.03.769,sm,2024.2.4,59.967138008263554,2025-10-17 16h12.15.988986 +0200,
16,0,16,,,,,,space,3.7270582999999533,None,None,3,0.725973999999951,0.2399769000003289,None,0,0,0,0,,,,,0,0,0,0,,,,,16,0,16,0,261.7566459999998,,,,,,,,,,,,,,,,,,,,,,,,,,,,,,,,,,,,,,,,,,,,,,,,,,,,,,,,,Tasse,3.3842,261.74113600000055,261.7417841000006,261.7418950000001,261.7566459999998,265.15642990000015,265.14044269999977,265.14376619999985,265.15642990000015,265.15642990000015,265.15642990000015,265.15642990000015,267.15588040000057,267.15588040000057,267.15588040000057,267.15588040000057,267.1402519000003,3,0.725973999999951,0.2399769000003289,None,,,,,,,,,,,,,,,,,,5720,1,2025-10-17_16h12.03.769,sm,2024.2.4,59.967138008263554,2025-10-17 16h12.15.988986 +0200,
17,0,17,,,,,,space,3.7270582999999533,None,None,3,0.8856871999996656,0.2615752000001521,None,0,0,0,0,,,,,0,0,0,0,,,,,17,0,17,0,267.15588040000057,,,,,,,,,,,,,,,,,,,,,,,,,,,,,,,,,,,,,,,,,,,,,,,,,,,,,,,,,Weltraum,2.2918,267.1407614,267.1412713999998,267.14137970000047,267.15588040000057,269.4556484000004,269.4399570000005,269.4442581000003,269.4556484000004,269.4556484000004,269.4556484000004,269.4556484000004,271.45553800000016,271.45553800000016,271.45553800000016,271.45553800000016,271.44007370000054,3,0.8856871999996656,0.2615752000001521,None,,,,,,,,,,,,,,,,,,5720,1,2025-10-17_16h12.03.769,sm,2024.2.4,59.967138008263554,2025-10-17 16h12.15.988986 +0200,
18,0,18,,,,,,space,3.7270582999999533,None,None,3,1.0666541000000507,0.23938920000000508,None,0,0,0,0,,,,,0,0,0,0,,,,,18,0,18,0,271.45553800000016,,,,,,,,,,,,,,,,,,,,,,,,,,,,,,,,,,,,,,,,,,,,,,,,,,,,,,,,,Zunge,2.5109,271.4405813000003,271.4412848000002,271.4413951000006,271.45553800000016,273.97222260000035,273.9567053999999,273.9608896999998,273.97222260000035,273.97222260000035,273.97222260000035,273.97222260000035,275.97242970000025,275.97242970000025,275.97242970000025,275.97242970000025,275.95656169999984,3,1.0666541000000507,0.23938920000000508,None,,,,,,,,,,,,,,,,,,5720,1,2025-10-17_16h12.03.769,sm,2024.2.4,59.967138008263554,2025-10-17 16h12.15.988986 +0200,
19,0,19,,,,,,space,3.7270582999999533,None,None,3,1.089736000000812,0.2792059999992489,None,0,0,0,0,,,,,0,0,0,0,,,,,19,0,19,0,275.97242970000025,,,,,,,,,,,,,,,,,,,,,,,,,,,,,,,,,,,,,,,,,,,,,,,,,,,,,,,,,Rebe,2.2605,275.9570813,275.9575896000006,275.9576986000002,275.97242970000025,278.2386062000005,278.2231369000001,278.2268382000002,278.2386062000005,278.2386062000005,278.2386062000005,278.2386062000005,280.23854420000043,280.23854420000043,280.23854420000043,280.23854420000043,280.22305229999984,3,1.089736000000812,0.2792059999992489,None,,,,,,,,,,,,,,,,,,5720,1,2025-10-17_16h12.03.769,sm,2024.2.4,59.967138008263554,2025-10-17 16h12.15.988986 +0200,
20,0,20,,,,,,space,3.7270582999999533,None,None,3,0.8920093000006091,0.2676486999998815,None,0,0,0,0,,,,,0,0,0,0,,,,,20,0,20,0,280.23854420000043,,,,,,,,,,,,,,,,,,,,,,,,,,,,,,,,,,,,,,,,,,,,,,,,,,,,,,,,,Monument,2.2206,280.2235584,280.22410130000026,280.2242137000003,280.23854420000043,282.47155889999976,282.4560964000002,282.46032990000003,282.47155889999976,282.47155889999976,282.47155889999976,282.47155889999976,284.4717271999998,284.4717271999998,284.4717271999998,284.4717271999998,284.4560078000004,3,0.8920093000006091,0.2676486999998815,None,,,,,,,,,,,,,,,,,,5720,1,2025-10-17_16h12.03.769,sm,2024.2.4,59.967138008263554,2025-10-17 16h12.15.988986 +0200,
21,0,21,,,,,,space,3.7270582999999533,None,None,3,1.1305958000002647,0.28222899999946094,None,0,0,0,0,,,,,0,0,0,0,,,,,21,0,21,0,284.4717271999998,,,,,,,,,,,,,,,,,,,,,,,,,,,,,,,,,,,,,,,,,,,,,,,,,,,,,,,,,Lernen,2.3381,284.45652100000007,284.4570375000003,284.45714790000056,284.4717271999998,286.8213927000006,286.80573770000046,286.80946649999987,286.8213927000006,286.8213927000006,286.8213927000006,286.8213927000006,288.8215430999999,288.8215430999999,288.8215430999999,288.8215430999999,288.8056602000006,3,1.1305958000002647,0.28222899999946094,None,,,,,,,,,,,,,,,,,,5720,1,2025-10-17_16h12.03.769,sm,2024.2.4,59.967138008263554,2025-10-17 16h12.15.988986 +0200,
22,0,22,,,,,,space,3.7270582999999533,None,None,2,0.7015986000005796,0.24078539999936766,None,0,0,0,0,,,,,0,0,0,0,,,,,22,0,22,0,288.8215430999999,,,,,,,,,,,,,,,,,,,,,,,,,,,,,,,,,,,,,,,,,,,,,,,,,,,,,,,,,Anwalt,2.5275,288.8061336999999,288.80669540000054,288.8067984999998,288.8215430999999,291.35440430000017,291.3390248000005,291.34395459999996,291.35440430000017,291.35440430000017,291.35440430000017,291.35440430000017,293.35442800000055,293.35442800000055,293.35442800000055,293.35442800000055,293.3394382000006,2,0.7015986000005796,0.24078539999936766,None,,,,,,,,,,,,,,,,,,5720,1,2025-10-17_16h12.03.769,sm,2024.2.4,59.967138008263554,2025-10-17 16h12.15.988986 +0200,
23,0,23,,,,,,space,3.7270582999999533,None,None,3,0.7399094000002151,0.2603073000000222,None,0,0,0,0,,,,,0,0,0,0,,,,,23,0,23,0,293.35442800000055,,,,,,,,,,,,,,,,,,,,,,,,,,,,,,,,,,,,,,,,,,,,,,,,,,,,,,,,,Golf,2.7057,293.33990300000005,293.3404177000002,293.34051570000065,293.35442800000055,296.07093369999984,296.0553571999999,296.05900420000035,296.07093369999984,296.07093369999984,296.07093369999984,296.07093369999984,298.07085860000007,298.07085860000007,298.07085860000007,298.07085860000007,298.0553396000005,3,0.7399094000002151,0.2603073000000222,None,,,,,,,,,,,,,,,,,,5720,1,2025-10-17_16h12.03.769,sm,2024.2.4,59.967138008263554,2025-10-17 16h12.15.988986 +0200,
24,0,24,,,,,,space,3.7270582999999533,None,None,3,0.7239085000001069,0.247287299999698,None,0,0,0,0,,,,,0,0,0,0,,,,,24,0,24,0,298.07085860000007,,,,,,,,,,,,,,,,,,,,,,,,,,,,,,,,,,,,,,,,,,,,,,,,,,,,,,,,,Bürste,3.5354,298.0558436000001,298.05643770000006,298.0565443000005,298.07085860000007,301.62104510000063,301.6049745,301.60849730000064,301.62104510000063,301.62104510000063,301.62104510000063,301.62104510000063,303.6203196000006,303.6203196000006,303.6203196000006,303.6203196000006,303.60508590000063,3,0.7239085000001069,0.247287299999698,None,,,,,,,,,,,,,,,,,,5720,1,2025-10-17_16h12.03.769,sm,2024.2.4,59.967138008263554,2025-10-17 16h12.15.988986 +0200,
25,0,25,,,,,,space,3.7270582999999533,None,None,3,0.8311260999998922,0.3182214999997086,None,0,0,0,0,,,,,0,0,0,0,,,,,25,0,25,0,303.6203196000006,,,,,,,,,,,,,,,,,,,,,,,,,,,,,,,,,,,,,,,,,,,,,,,,,,,,,,,,,Geschirr,3.3702,303.60559360000025,303.6061000999998,303.60620930000005,303.6203196000006,307.0034827999998,306.98789410000063,306.9915537000006,307.0034827999998,307.0034827999998,307.0034827999998,307.0034827999998,309.00380310000037,309.00380310000037,309.00380310000037,309.00380310000037,308.9875191000001,3,0.8311260999998922,0.3182214999997086,None,,,,,,,,,,,,,,,,,,5720,1,2025-10-17_16h12.03.769,sm,2024.2.4,59.967138008263554,2025-10-17 16h12.15.988986 +0200,
26,0,26,,,,,,space,3.7270582999999533,None,None,2,1.0656439000003957,0.2234630000002653,None,0,0,0,0,,,,,0,0,0,0,,,,,26,0,26,0,309.00380310000037,,,,,,,,,,,,,,,,,,,,,,,,,,,,,,,,,,,,,,,,,,,,,,,,,,,,,,,,,Kartoffel,2.5332,308.98795860000064,308.98842310000055,308.9885156999999,309.00380310000037,311.5365089000006,311.5207940999999,311.52501180000036,311.5365089000006,311.5365089000006,311.5365089000006,311.5365089000006,313.5365182000005,313.5365182000005,313.5365182000005,313.5365182000005,313.52092340000036,2,1.0656439000003957,0.2234630000002653,None,,,,,,,,,,,,,,,,,,5720,1,2025-10-17_16h12.03.769,sm,2024.2.4,59.967138008263554,2025-10-17 16h12.15.988986 +0200,
27,0,27,,,,,,space,3.7270582999999533,None,None,2,1.038286099999823,0.21601450000071054,None,0,0,0,0,,,,,0,0,0,0,,,,,27,0,27,0,313.5365182000005,,,,,,,,,,,,,,,,,,,,,,,,,,,,,,,,,,,,,,,,,,,,,,,,,,,,,,,,,Finger,3.6177,313.5214354999998,313.52193609999995,313.52204429999983,313.5365182000005,317.1695169000004,317.15472800000043,317.16100150000057,317.1695169000004,317.1695169000004,317.1695169000004,317.1695169000004,319.17002109999976,319.17002109999976,319.17002109999976,319.17002109999976,319.1540896000006,2,1.038286099999823,0.21601450000071054,None,,,,,,,,,,,,,,,,,,5720,1,2025-10-17_16h12.03.769,sm,2024.2.4,59.967138008263554,2025-10-17 16h12.15.988986 +0200,
28,0,28,,,,,,space,3.7270582999999533,None,None,3,0.7647200999999768,0.25598420000005717,None,0,0,0,0,,,,,0,0,0,0,,,,,28,0,28,0,319.17002109999976,,,,,,,,,,,,,,,,,,,,,,,,,,,,,,,,,,,,,,,,,,,,,,,,,,,,,,,,,Telefon,2.5116,319.1545893000002,319.1550950999999,319.1552061000002,319.17002109999976,321.6861886000006,321.67071020000003,321.67561790000036,321.6861886000006,321.6861886000006,321.6861886000006,321.6861886000006,323.6860860000006,323.6860860000006,323.6860860000006,323.6860860000006,323.6704509000001,3,0.7647200999999768,0.25598420000005717,None,,,,,,,,,,,,,,,,,,5720,1,2025-10-17_16h12.03.769,sm,2024.2.4,59.967138008263554,2025-10-17 16h12.15.988986 +0200,
29,0,29,,,,,,space,3.7270582999999533,None,None,2,0.8077315000000453,0.21728410000014264,None,0,0,0,0,,,,,0,0,0,0,,,,,29,0,29,0,323.6860860000006,,,,,,,,,,,,,,,,,,,,,,,,,,,,,,,,,,,,,,,,,,,,,,,,,,,,,,,,,Spinne,2.0889,323.6709716000005,323.6714765000006,323.6715855000002,323.6860860000006,325.7858817000006,325.7701009000002,325.77381400000013,325.7858817000006,325.7858817000006,325.7858817000006,325.7858817000006,327.7856016000005,327.7856016000005,327.7856016000005,327.7856016000005,327.77023610000015,2,0.8077315000000453,0.21728410000014264,None,,,,,,,,,,,,,,,,,,5720,1,2025-10-17_16h12.03.769,sm,2024.2.4,59.967138008263554,2025-10-17 16h12.15.988986 +0200,
30,0,30,,,,,,space,3.7270582999999533,None,None,3,1.2732356999995318,0.34074109999983193,None,0,0,0,0,,,,,0,0,0,0,,,,,30,0,30,0,327.7856016000005,,,,,,,,,,,,,,,,,,,,,,,,,,,,,,,,,,,,,,,,,,,,,,,,,,,,,,,,,Tradition,5.0312,327.77074640000046,327.77126580000004,327.7713727999999,327.7856016000005,332.81861519999984,332.80308289999994,332.8066550000003,332.81861519999984,332.81861519999984,332.81861519999984,332.81861519999984,334.81860510000024,334.81860510000024,334.81860510000024,334.81860510000024,334.8030348000002,3,1.2732356999995318,0.34074109999983193,None,,,,,,,,,,,,,,,,,,5720,1,2025-10-17_16h12.03.769,sm,2024.2.4,59.967138008263554,2025-10-17 16h12.15.988986 +0200,
31,0,31,,,,,,space,3.7270582999999533,None,None,2,0.7234491999997772,0.2314501000000746,None,0,0,0,0,,,,,0,0,0,0,,,,,31,0,31,0,334.81860510000024,,,,,,,,,,,,,,,,,,,,,,,,,,,,,,,,,,,,,,,,,,,,,,,,,,,,,,,,,Akrobatin,2.2829,334.80354160000024,334.8040615,334.8041751999999,334.81860510000024,337.1014888999998,337.0860972999999,337.0891751999998,337.1014888999998,337.1014888999998,337.1014888999998,337.1014888999998,339.10189979999996,339.10189979999996,339.10189979999996,339.10189979999996,339.0862997000004,2,0.7234491999997772,0.2314501000000746,None,,,,,,,,,,,,,,,,,,5720,1,2025-10-17_16h12.03.769,sm,2024.2.4,59.967138008263554,2025-10-17 16h12.15.988986 +0200,
32,0,32,,,,,,space,3.7270582999999533,None,None,3,0.8740197999995871,0.30477499999960855,None,0,0,0,0,,,,,0,0,0,0,,,,,32,0,32,0,339.10189979999996,,,,,,,,,,,,,,,,,,,,,,,,,,,,,,,,,,,,,,,,,,,,,,,,,,,,,,,,,Tisch,2.1579,339.08685330000026,339.0873633000001,339.08747399999993,339.10189979999996,341.26820339999995,341.25263580000046,341.25657610000053,341.26820339999995,341.26820339999995,341.26820339999995,341.26820339999995,343.2683371000003,343.2683371000003,343.2683371000003,343.2683371000003,343.2527522999999,3,0.8740197999995871,0.30477499999960855,None,,,,,,,,,,,,,,,,,,5720,1,2025-10-17_16h12.03.769,sm,2024.2.4,59.967138008263554,2025-10-17 16h12.15.988986 +0200,
33,0,33,,,,,,space,3.7270582999999533,None,None,2,1.2035323000000062,0.22414990000015678,None,0,0,0,0,,,,,0,0,0,0,,,,,33,0,33,0,343.2683371000003,,,,,,,,,,,,,,,,,,,,,,,,,,,,,,,,,,,,,,,,,,,,,,,,,,,,,,,,,Klee,2.3807,343.25324249999994,343.2539794000004,343.2540914000001,343.2683371000003,345.6512250000005,345.63537890000043,345.6382147000004,345.6512250000005,345.6512250000005,345.6512250000005,345.6512250000005,347.6514668,347.6514668,347.6514668,347.6514668,347.63562640000055,2,1.2035323000000062,0.22414990000015678,None,,,,,,,,,,,,,,,,,,5720,1,2025-10-17_16h12.03.769,sm,2024.2.4,59.967138008263554,2025-10-17 16h12.15.988986 +0200,
34,0,34,,,,,,space,3.7270582999999533,None,None,3,0.7722775000002002,0.32495709999966493,None,0,0,0,0,,,,,0,0,0,0,,,,,34,0,34,0,347.6514668,,,,,,,,,,,,,,,,,,,,,,,,,,,,,,,,,,,,,,,,,,,,,,,,,,,,,,,,,Arbeit,2.3942,347.63612960000046,347.6367755000001,347.63688139999977,347.6514668,350.0513246999999,350.03570240000045,350.0397475,350.0513246999999,350.0513246999999,350.0513246999999,350.0513246999999,352.05107099999987,352.05107099999987,352.05107099999987,352.05107099999987,352.035382,3,0.7722775000002002,0.32495709999966493,None,,,,,,,,,,,,,,,,,,5720,1,2025-10-17_16h12.03.769,sm,2024.2.4,59.967138008263554,2025-10-17 16h12.15.988986 +0200,
35,0,35,,,,,,space,3.7270582999999533,None,None,2,0.8741368999999395,0.26168520000010176,None,0,0,0,0,,,,,0,0,0,0,,,,,35,0,35,0,352.05107099999987,,,,,,,,,,,,,,,,,,,,,,,,,,,,,,,,,,,,,,,,,,,,,,,,,,,,,,,,,Gras,3.0725,352.0358248000002,352.03628540000045,352.0363747000001,352.05107099999987,355.13411030000043,355.1185354999998,355.12224530000003,355.13411030000043,355.13411030000043,355.13411030000043,355.13411030000043,357.1339873000006,357.1339873000006,357.1339873000006,357.1339873000006,357.1184723000006,2,0.8741368999999395,0.26168520000010176,None,,,,,,,,,,,,,,,,,,5720,1,2025-10-17_16h12.03.769,sm,2024.2.4,59.967138008263554,2025-10-17 16h12.15.988986 +0200,
36,0,36,,,,,,space,3.7270582999999533,None,None,3,0.6659610000006069,0.33216339999944466,None,0,0,0,0,,,,,0,0,0,0,,,,,36,0,36,0,357.1339873000006,,,,,,,,,,,,,,,,,,,,,,,,,,,,,,,,,,,,,,,,,,,,,,,,,,,,,,,,,Raum,3.3294,357.1189935000002,357.11967580000055,357.1197825999998,357.1339873000006,360.46712970000044,360.45152980000057,360.4552650000005,360.46712970000044,360.46712970000044,360.46712970000044,360.46712970000044,362.4671235000005,362.4671235000005,362.4671235000005,362.4671235000005,362.4516385000006,3,0.6659610000006069,0.33216339999944466,None,,,,,,,,,,,,,,,,,,5720,1,2025-10-17_16h12.03.769,sm,2024.2.4,59.967138008263554,2025-10-17 16h12.15.988986 +0200,
37,0,37,,,,,,space,3.7270582999999533,None,None,2,0.6621002000001681,0.25893399999949906,None,0,0,0,0,,,,,0,0,0,0,,,,,37,0,37,0,362.4671235000005,,,,,,,,,,,,,,,,,,,,,,,,,,,,,,,,,,,,,,,,,,,,,,,,,,,,,,,,,Eule,2.3125,362.45215129999997,362.4526614000006,362.4527668999999,362.4671235000005,364.7837180000006,364.76829069999985,364.7718439,364.7837180000006,364.7837180000006,364.7837180000006,364.7837180000006,366.78340300000036,366.78340300000036,366.78340300000036,366.78340300000036,366.76805590000004,2,0.6621002000001681,0.25893399999949906,None,,,,,,,,,,,,,,,,,,5720,1,2025-10-17_16h12.03.769,sm,2024.2.4,59.967138008263554,2025-10-17 16h12.15.988986 +0200,
38,0,38,,,,,,space,3.7270582999999533,None,None,2,1.0583753999999317,0.22638780000033876,None,0,0,0,0,,,,,0,0,0,0,,,,,38,0,38,0,366.78340300000036,,,,,,,,,,,,,,,,,,,,,,,,,,,,,,,,,,,,,,,,,,,,,,,,,,,,,,,,,Blumen,3.9676,366.76856750000024,366.76907930000016,366.7691845999998,366.78340300000036,370.7666549000005,370.7510751,370.7552391999998,370.7666549000005,370.7666549000005,370.7666549000005,370.7666549000005,372.7664384999998,372.7664384999998,372.7664384999998,372.7664384999998,372.75093240000024,2,1.0583753999999317,0.22638780000033876,None,,,,,,,,,,,,,,,,,,5720,1,2025-10-17_16h12.03.769,sm,2024.2.4,59.967138008263554,2025-10-17 16h12.15.988986 +0200,
39,0,39,,,,,,space,3.7270582999999533,None,None,3,0.8158923999999388,0.3291465000002063,None,0,0,0,0,,,,,0,0,0,0,,,,,39,0,39,0,372.7664384999998,,,,,,,,,,,,,,,,,,,,,,,,,,,,,,,,,,,,,,,,,,,,,,,,,,,,,,,,,Skizze,2.0788,372.7514369999999,372.75194740000006,372.7520586999999,372.7664384999998,374.84966500000064,374.83394990000033,374.83730900000046,374.84966500000064,374.84966500000064,374.84966500000064,374.84966500000064,376.84962259999975,376.84962259999975,376.84962259999975,376.84962259999975,376.8338918999998,3,0.8158923999999388,0.3291465000002063,None,,,,,,,,,,,,,,,,,,5720,1,2025-10-17_16h12.03.769,sm,2024.2.4,59.967138008263554,2025-10-17 16h12.15.988986 +0200,
40,0,40,,,,,,space,3.7270582999999533,None,None,3,1.525066600000173,0.3101655000000392,None,0,0,0,0,,,,,0,0,0,0,,,,,40,0,40,0,376.84962259999975,,,,,,,,,,,,,,,,,,,,,,,,,,,,,,,,,,,,,,,,,,,,,,,,,,,,,,,,,Gelenk,2.8866,376.83437890000005,376.83487890000015,376.83499120000033,376.84962259999975,379.74922330000027,379.7335272999999,379.73722520000047,379.74922330000027,379.74922330000027,379.74922330000027,379.74922330000027,381.7493506999999,381.7493506999999,381.7493506999999,381.7493506999999,381.7340819000001,3,1.525066600000173,0.3101655000000392,None,,,,,,,,,,,,,,,,,,5720,1,2025-10-17_16h12.03.769,sm,2024.2.4,59.967138008263554,2025-10-17 16h12.15.988986 +0200,
41,0,41,,,,,,space,3.7270582999999533,None,None,3,1.1641908000001422,0.3331482000003234,None,0,0,0,0,,,,,0,0,0,0,,,,,41,0,41,0,381.7493506999999,,,,,,,,,,,,,,,,,,,,,,,,,,,,,,,,,,,,,,,,,,,,,,,,,,,,,,,,,Hütte,3.2428,381.73463249999986,381.7352804000002,381.73539679999976,381.7493506999999,384.99989220000043,384.98311490000015,384.98665620000065,384.99989220000043,384.99989220000043,384.99989220000043,384.99989220000043,386.99914119999994,386.99914119999994,386.99914119999994,386.99914119999994,386.9840055000004,3,1.1641908000001422,0.3331482000003234,None,,,,,,,,,,,,,,,,,,5720,1,2025-10-17_16h12.03.769,sm,2024.2.4,59.967138008263554,2025-10-17 16h12.15.988986 +0200,
42,0,42,,,,,,space,3.7270582999999533,None,None,3,0.9500072999999247,0.2966437000004589,None,0,0,0,0,,,,,0,0,0,0,,,,,42,0,42,0,386.99914119999994,,,,,,,,,,,,,,,,,,,,,,,,,,,,,,,,,,,,,,,,,,,,,,,,,,,,,,,,,Zimmer,4.1935,386.9845014000002,386.9850256999998,386.98513809999986,386.99914119999994,391.1986145999999,391.1831308999999,391.18812849999995,391.1986145999999,391.1986145999999,391.1986145999999,391.1986145999999,393.19851800000015,393.19851800000015,393.19851800000015,393.19851800000015,393.18299190000016,3,0.9500072999999247,0.2966437000004589,None,,,,,,,,,,,,,,,,,,5720,1,2025-10-17_16h12.03.769,sm,2024.2.4,59.967138008263554,2025-10-17 16h12.15.988986 +0200,
43,0,43,,,,,,space,3.7270582999999533,None,None,3,1.2903526999998576,0.2906943999996656,None,0,0,0,0,,,,,0,0,0,0,,,,,43,0,43,0,393.19851800000015,,,,,,,,,,,,,,,,,,,,,,,,,,,,,,,,,,,,,,,,,,,,,,,,,,,,,,,,,Poesie,3.3357,393.1835009000006,393.1840302999999,393.1841411000005,393.19851800000015,396.5479419000003,396.5324384000005,396.5377539000001,396.5479419000003,396.5479419000003,396.5479419000003,396.5479419000003,398.54827190000015,398.54827190000015,398.54827190000015,398.54827190000015,398.53265250000004,3,1.2903526999998576,0.2906943999996656,None,,,,,,,,,,,,,,,,,,5720,1,2025-10-17_16h12.03.769,sm,2024.2.4,59.967138008263554,2025-10-17 16h12.15.988986 +0200,
44,0,44,,,,,,space,3.7270582999999533,None,None,3,0.9984011999995346,0.29782239999985904,None,0,0,0,0,,,,,0,0,0,0,,,,,44,0,44,0,398.54827190000015,,,,,,,,,,,,,,,,,,,,,,,,,,,,,,,,,,,,,,,,,,,,,,,,,,,,,,,,,Bart,2.9551,398.5331563999998,398.53379740000037,398.5339068000003,398.54827190000015,401.51451090000046,401.49886380000044,401.5018205000006,401.51451090000046,401.51451090000046,401.51451090000046,401.51451090000046,403.51472040000044,403.51472040000044,403.51472040000044,403.51472040000044,403.4990552999998,3,0.9984011999995346,0.29782239999985904,None,,,,,,,,,,,,,,,,,,5720,1,2025-10-17_16h12.03.769,sm,2024.2.4,59.967138008263554,2025-10-17 16h12.15.988986 +0200,
45,0,45,,,,,,space,3.7270582999999533,None,None,3,1.1384592000003977,0.3670718000003035,None,0,0,0,0,,,,,0,0,0,0,,,,,45,0,45,0,403.51472040000044,,,,,,,,,,,,,,,,,,,,,,,,,,,,,,,,,,,,,,,,,,,,,,,,,,,,,,,,,Frieden,3.1117,403.4995761,403.5000832000005,403.50019429999975,403.51472040000044,406.6310788999999,406.61508520000007,406.61828030000015,406.6310788999999,406.6310788999999,406.6310788999999,406.6310788999999,408.6311161000003,408.6311161000003,408.6311161000003,408.6311161000003,408.61556590000055,3,1.1384592000003977,0.3670718000003035,None,,,,,,,,,,,,,,,,,,5720,1,2025-10-17_16h12.03.769,sm,2024.2.4,59.967138008263554,2025-10-17 16h12.15.988986 +0200,
46,0,46,,,,,,space,3.7270582999999533,None,None,2,0.7900283999997555,0.21065139999973326,None,0,0,0,0,,,,,0,0,0,0,,,,,46,0,46,0,408.6311161000003,,,,,,,,,,,,,,,,,,,,,,,,,,,,,,,,,,,,,,,,,,,,,,,,,,,,,,,,,Fisch,3.5998,408.6160740000005,408.6165847000002,408.6166933000004,408.6311161000003,412.2308761000004,412.2151654999998,412.2191149999999,412.2308761000004,412.2308761000004,412.2308761000004,412.2308761000004,414.23070330000064,414.23070330000064,414.23070330000064,414.23070330000064,414.2150369000001,2,0.7900283999997555,0.21065139999973326,None,,,,,,,,,,,,,,,,,,5720,1,2025-10-17_16h12.03.769,sm,2024.2.4,59.967138008263554,2025-10-17 16h12.15.988986 +0200,
47,0,47,,,,,,space,3.7270582999999533,None,None,3,0.9071152000005895,0.2976507999992464,None,0,0,0,0,,,,,0,0,0,0,,,,,47,0,47,0,414.23070330000064,,,,,,,,,,,,,,,,,,,,,,,,,,,,,,,,,,,,,,,,,,,,,,,,,,,,,,,,,Wind,4.6747,414.21555069999977,414.21613590000015,414.21624190000057,414.23070330000064,418.91358409999975,418.8984285000006,418.9019865999999,418.91358409999975,418.91358409999975,418.91358409999975,418.91358409999975,420.9137335000005,420.9137335000005,420.9137335000005,420.9137335000005,420.89810190000026,3,0.9071152000005895,0.2976507999992464,None,,,,,,,,,,,,,,,,,,5720,1,2025-10-17_16h12.03.769,sm,2024.2.4,59.967138008263554,2025-10-17 16h12.15.988986 +0200,
48,0,48,,,,,,space,3.7270582999999533,None,None,3,1.189336800000092,0.32212760000038543,None,0,0,0,0,,,,,0,0,0,0,,,,,48,0,48,0,420.9137335000005,,,,,,,,,,,,,,,,,,,,,,,,,,,,,,,,,,,,,,,,,,,,,,,,,,,,,,,,,Wissen,2.1936,420.8986015999999,420.8992474000006,420.89935719999994,420.9137335000005,423.1133869000005,423.09798050000063,423.10262670000066,423.1133869000005,423.1133869000005,423.1133869000005,423.1133869000005,425.11338310000065,425.11338310000065,425.11338310000065,425.11338310000065,425.0974838000002,3,1.189336800000092,0.32212760000038543,None,,,,,,,,,,,,,,,,,,5720,1,2025-10-17_16h12.03.769,sm,2024.2.4,59.967138008263554,2025-10-17 16h12.15.988986 +0200,
49,0,49,,,,,,space,3.7270582999999533,None,None,3,0.9193051000002015,0.2936485000000175,None,0,0,0,0,,,,,0,0,0,0,,,,,49,0,49,0,425.11338310000065,,,,,,,,,,,,,,,,,,,,,,,,,,,,,,,,,,,,,,,,,,,,,,,,,,,,,,,,,Tanz,2.753,425.0979047000001,425.0984036,425.0984924000004,425.11338310000065,427.88026009999976,427.8644228000003,427.86775099999977,427.88026009999976,427.88026009999976,427.88026009999976,427.88026009999976,429.87971780000044,429.87971780000044,429.87971780000044,429.87971780000044,429.86437710000064,3,0.9193051000002015,0.2936485000000175,None,,,,,,,,,,,,,,,,,,5720,1,2025-10-17_16h12.03.769,sm,2024.2.4,59.967138008263554,2025-10-17 16h12.15.988986 +0200,
50,0,50,,,,,,space,3.7270582999999533,None,None,3,1.0819296999998187,0.3067304999995031,None,0,0,0,0,,,,,0,0,0,0,,,,,50,0,50,0,429.87971780000044,,,,,,,,,,,,,,,,,,,,,,,,,,,,,,,,,,,,,,,,,,,,,,,,,,,,,,,,,Haare,3.4264,429.8648787000002,429.8653991000001,429.8655096000002,429.87971780000044,433.31283690000055,433.29737340000065,433.3010694000004,433.31283690000055,433.31283690000055,433.31283690000055,433.31283690000055,435.3127150999999,435.3127150999999,435.3127150999999,435.3127150999999,435.29734819999976,3,1.0819296999998187,0.3067304999995031,None,,,,,,,,,,,,,,,,,,5720,1,2025-10-17_16h12.03.769,sm,2024.2.4,59.967138008263554,2025-10-17 16h12.15.988986 +0200,
51,0,51,,,,,,space,3.7270582999999533,None,None,3,0.9607748999997057,0.28590780000013183,None,0,0,0,0,,,,,0,0,0,0,,,,,51,0,51,0,435.3127150999999,,,,,,,,,,,,,,,,,,,,,,,,,,,,,,,,,,,,,,,,,,,,,,,,,,,,,,,,,Universität,2.8426,435.2978649000006,435.2983764999999,435.2984830000005,435.3127150999999,438.1621716999998,438.14675309999984,438.1538380000002,438.1621716999998,438.1621716999998,438.1621716999998,438.1621716999998,440.16282930000034,440.16282930000034,440.16282930000034,440.16282930000034,440.1473145,3,0.9607748999997057,0.28590780000013183,None,,,,,,,,,,,,,,,,,,5720,1,2025-10-17_16h12.03.769,sm,2024.2.4,59.967138008263554,2025-10-17 16h12.15.988986 +0200,
52,0,52,,,,,,space,3.7270582999999533,None,None,3,1.1527313999995386,0.2776679000007789,None,0,0,0,0,,,,,0,0,0,0,,,,,52,0,52,0,440.16282930000034,,,,,,,,,,,,,,,,,,,,,,,,,,,,,,,,,,,,,,,,,,,,,,,,,,,,,,,,,Ordner,3.147,440.14783330000046,440.1485278,440.1486439,440.16282930000034,443.31215969999994,443.2967757000006,443.30338029999984,443.31215969999994,443.31215969999994,443.31215969999994,443.31215969999994,445.3125641000006,445.3125641000006,445.3125641000006,445.3125641000006,445.2971735000001,3,1.1527313999995386,0.2776679000007789,None,,,,,,,,,,,,,,,,,,5720,1,2025-10-17_16h12.03.769,sm,2024.2.4,59.967138008263554,2025-10-17 16h12.15.988986 +0200,
53,0,53,,,,,,space,3.7270582999999533,None,None,3,0.9173617999995258,0.31251109999993787,None,0,0,0,0,,,,,0,0,0,0,,,,,53,0,53,0,445.3125641000006,,,,,,,,,,,,,,,,,,,,,,,,,,,,,,,,,,,,,,,,,,,,,,,,,,,,,,,,,Feuer,2.596,445.29775210000025,445.29853580000054,445.29867360000026,445.3125641000006,447.91183770000043,447.89649819999977,447.9009111000005,447.91183770000043,447.91183770000043,447.91183770000043,447.91183770000043,449.9120711000005,449.9120711000005,449.9120711000005,449.9120711000005,449.8964857000001,3,0.9173617999995258,0.31251109999993787,None,,,,,,,,,,,,,,,,,,5720,1,2025-10-17_16h12.03.769,sm,2024.2.4,59.967138008263554,2025-10-17 16h12.15.988986 +0200,
54,0,54,,,,,,space,3.7270582999999533,None,None,3,0.8807907999998861,0.28723640000043815,None,0,0,0,0,,,,,0,0,0,0,,,,,54,0,54,0,449.9120711000005,,,,,,,,,,,,,,,,,,,,,,,,,,,,,,,,,,,,,,,,,,,,,,,,,,,,,,,,,Weiß,3.0583,449.8969919000001,449.89750280000044,449.89760970000043,449.9120711000005,452.97809250000046,452.96248000000014,452.9655988000004,452.97809250000046,452.97809250000046,452.97809250000046,452.97809250000046,454.97858330000054,454.97858330000054,454.97858330000054,454.97858330000054,454.9633356000004,3,0.8807907999998861,0.28723640000043815,None,,,,,,,,,,,,,,,,,,5720,1,2025-10-17_16h12.03.769,sm,2024.2.4,59.967138008263554,2025-10-17 16h12.15.988986 +0200,
55,0,55,,,,,,space,3.7270582999999533,None,None,2,0.9398430999999619,0.2573677000000316,None,0,0,0,0,,,,,0,0,0,0,,,,,55,0,55,0,454.97858330000054,,,,,,,,,,,,,,,,,,,,,,,,,,,,,,,,,,,,,,,,,,,,,,,,,,,,,,,,,Löwe,2.9566,454.96384170000056,454.9643651000006,454.96447440000065,454.97858330000054,457.9444633000003,457.9289088000005,457.9319513999999,457.9444633000003,457.9444633000003,457.9444633000003,457.9444633000003,459.94476459999987,459.94476459999987,459.94476459999987,459.94476459999987,459.9290409000005,2,0.9398430999999619,0.2573677000000316,None,,,,,,,,,,,,,,,,,,5720,1,2025-10-17_16h12.03.769,sm,2024.2.4,59.967138008263554,2025-10-17 16h12.15.988986 +0200,
56,0,56,,,,,,space,3.7270582999999533,None,None,3,1.4382095999999365,0.29220359999999346,None,0,0,0,0,,,,,0,0,0,0,,,,,56,0,56,0,459.94476459999987,,,,,,,,,,,,,,,,,,,,,,,,,,,,,,,,,,,,,,,,,,,,,,,,,,,,,,,,,Lokomotive,3.1334,459.9295234000001,459.9300737000003,459.93018740000025,459.94476459999987,463.0777791999999,463.0620392000001,463.0657648000006,463.0777791999999,463.0777791999999,463.0777791999999,463.0777791999999,465.0780441000006,465.0780441000006,465.0780441000006,465.0780441000006,465.0623762000005,3,1.4382095999999365,0.29220359999999346,None,,,,,,,,,,,,,,,,,,5720,1,2025-10-17_16h12.03.769,sm,2024.2.4,59.967138008263554,2025-10-17 16h12.15.988986 +0200,
57,0,57,,,,,,space,3.7270582999999533,None,None,3,0.7839819999999236,0.2887484000002587,None,0,0,0,0,,,,,0,0,0,0,,,,,57,0,57,0,465.0780441000006,,,,,,,,,,,,,,,,,,,,,,,,,,,,,,,,,,,,,,,,,,,,,,,,,,,,,,,,,Sendung,2.3677,465.0628652000005,465.0633867000006,465.0634948000006,465.0780441000006,467.46067459999995,467.44517330000053,467.4489905999999,467.46067459999995,467.46067459999995,467.46067459999995,467.46067459999995,469.46076210000047,469.46076210000047,469.46076210000047,469.46076210000047,469.4454321000003,3,0.7839819999999236,0.2887484000002587,None,,,,,,,,,,,,,,,,,,5720,1,2025-10-17_16h12.03.769,sm,2024.2.4,59.967138008263554,2025-10-17 16h12.15.988986 +0200,
58,0,58,,,,,,space,3.7270582999999533,None,None,3,1.2153056999995897,0.2684048000000985,None,0,0,0,0,,,,,0,0,0,0,,,,,58,0,58,0,469.46076210000047,,,,,,,,,,,,,,,,,,,,,,,,,,,,,,,,,,,,,,,,,,,,,,,,,,,,,,,,,Angriff,2.0068,469.44593760000043,469.44645409999976,469.4465632000001,469.46076210000047,471.47728000000006,471.4617648000003,471.4658098,471.47728000000006,471.47728000000006,471.47728000000006,471.47728000000006,473.47724819999985,473.47724819999985,473.47724819999985,473.47724819999985,473.4623382,3,1.2153056999995897,0.2684048000000985,None,,,,,,,,,,,,,,,,,,5720,1,2025-10-17_16h12.03.769,sm,2024.2.4,59.967138008263554,2025-10-17 16h12.15.988986 +0200,
59,0,59,,,,,,space,3.7270582999999533,None,None,2,0.7290720000000874,0.21108290000029228,None,0,0,0,0,,,,,0,0,0,0,,,,,59,0,59,0,473.47724819999985,,,,,,,,,,,,,,,,,,,,,,,,,,,,,,,,,,,,,,,,,,,,,,,,,,,,,,,,,Leute,2.5145,473.46276190000026,473.4633498000003,473.46351440000035,473.47724819999985,475.99367059999986,475.9781045,475.98210970000036,475.99367059999986,475.99367059999986,475.99367059999986,475.99367059999986,477.9937742000002,477.9937742000002,477.9937742000002,477.9937742000002,477.97839440000007,2,0.7290720000000874,0.21108290000029228,None,,,,,,,,,,,,,,,,,,5720,1,2025-10-17_16h12.03.769,sm,2024.2.4,59.967138008263554,2025-10-17 16h12.15.988986 +0200,
60,0,60,,,,,,space,3.7270582999999533,None,None,3,0.7360556000003271,0.29116939999948954,None,0,0,0,0,,,,,0,0,0,0,,,,,60,0,60,0,477.9937742000002,,,,,,,,,,,,,,,,,,,,,,,,,,,,,,,,,,,,,,,,,,,,,,,,,,,,,,,,,Sauber,3.4827,477.9789083000005,477.9796993,477.97986780000065,477.9937742000002,481.47660499999984,481.4613352000006,481.46586000000025,481.47660499999984,481.47660499999984,481.47660499999984,481.47660499999984,483.4766773000001,483.4766773000001,483.4766773000001,483.4766773000001,483.46124710000004,3,0.7360556000003271,0.29116939999948954,None,,,,,,,,,,,,,,,,,,5720,1,2025-10-17_16h12.03.769,sm,2024.2.4,59.967138008263554,2025-10-17 16h12.15.988986 +0200,
61,0,61,,,,,,space,3.7270582999999533,None,None,3,1.063026899999386,0.2880001000003176,None,0,0,0,0,,,,,0,0,0,0,,,,,61,0,61,0,483.4766773000001,,,,,,,,,,,,,,,,,,,,,,,,,,,,,,,,,,,,,,,,,,,,,,,,,,,,,,,,,Anhänger,2.3686,483.46175700000003,483.46226410000054,483.46237139999994,483.4766773000001,485.8596785999998,485.8442616000002,485.84834000000046,485.8596785999998,485.8596785999998,485.8596785999998,485.8596785999998,487.85981020000054,487.85981020000054,487.85981020000054,487.85981020000054,487.8447734000001,3,1.063026899999386,0.2880001000003176,None,,,,,,,,,,,,,,,,,,5720,1,2025-10-17_16h12.03.769,sm,2024.2.4,59.967138008263554,2025-10-17 16h12.15.988986 +0200,
62,0,62,,,,,,space,3.7270582999999533,None,None,3,1.46549320000031,0.2850922999996328,None,0,0,0,0,,,,,0,0,0,0,,,,,62,0,62,0,487.85981020000054,,,,,,,,,,,,,,,,,,,,,,,,,,,,,,,,,,,,,,,,,,,,,,,,,,,,,,,,,Dunkelheit,2.1264,487.8452739000004,487.84583759999987,487.8459432999998,487.85981020000054,489.9927763000005,489.9772868,489.9810429999998,489.9927763000005,489.9927763000005,489.9927763000005,489.9927763000005,491.9928227999999,491.9928227999999,491.9928227999999,491.9928227999999,491.97709159999977,3,1.46549320000031,0.2850922999996328,None,,,,,,,,,,,,,,,,,,5720,1,2025-10-17_16h12.03.769,sm,2024.2.4,59.967138008263554,2025-10-17 16h12.15.988986 +0200,
63,0,63,,,,,,space,3.7270582999999533,None,None,3,0.7968791000002966,0.3269171000001734,None,0,0,0,0,,,,,0,0,0,0,,,,,63,0,63,0,491.9928227999999,,,,,,,,,,,,,,,,,,,,,,,,,,,,,,,,,,,,,,,,,,,,,,,,,,,,,,,,,Film,2.0345,491.9776068000001,491.97811009999987,491.97821810000005,491.9928227999999,494.0426371000003,494.0271395,494.0304455000005,494.0426371000003,494.0426371000003,494.0426371000003,494.0426371000003,496.0428367000004,496.0428367000004,496.0428367000004,496.0428367000004,496.02706730000045,3,0.7968791000002966,0.3269171000001734,None,,,,,,,,,,,,,,,,,,5720,1,2025-10-17_16h12.03.769,sm,2024.2.4,59.967138008263554,2025-10-17 16h12.15.988986 +0200,
64,0,64,,,,,,space,3.7270582999999533,None,None,3,1.431595400000333,0.2882273000004716,None,0,0,0,0,,,,,0,0,0,0,,,,,64,0,64,0,496.0428367000004,,,,,,,,,,,,,,,,,,,,,,,,,,,,,,,,,,,,,,,,,,,,,,,,,,,,,,,,,Urlaub,2.0009,496.0275726,496.0282808000002,496.0283909,496.0428367000004,498.0590391000005,498.0435660000003,498.0481569000003,498.0590391000005,498.0590391000005,498.0590391000005,498.0590391000005,500.0591642999998,500.0591642999998,500.0591642999998,500.0591642999998,500.0434787000004,3,1.431595400000333,0.2882273000004716,None,,,,,,,,,,,,,,,,,,5720,1,2025-10-17_16h12.03.769,sm,2024.2.4,59.967138008263554,2025-10-17 16h12.15.988986 +0200,
65,0,65,,,,,,space,3.7270582999999533,None,None,2,1.601118000000497,0.20348009999997885,None,0,0,0,0,,,,,0,0,0,0,,,,,65,0,65,0,500.0591642999998,,,,,,,,,,,,,,,,,,,,,,,,,,,,,,,,,,,,,,,,,,,,,,,,,,,,,,,,,Vampir,2.1399,500.04399550000016,500.04459360000055,500.0447085000005,500.0591642999998,502.2085152999998,502.19330679999985,502.1968316000002,502.2085152999998,502.2085152999998,502.2085152999998,502.2085152999998,504.20881009999994,504.20881009999994,504.20881009999994,504.20881009999994,504.19313729999976,2,1.601118000000497,0.20348009999997885,None,,,,,,,,,,,,,,,,,,5720,1,2025-10-17_16h12.03.769,sm,2024.2.4,59.967138008263554,2025-10-17 16h12.15.988986 +0200,
66,0,66,,,,,,space,3.7270582999999533,None,None,2,0.6973279999992883,0.25774530000035156,None,0,0,0,0,,,,,0,0,0,0,,,,,66,0,66,0,504.20881009999994,,,,,,,,,,,,,,,,,,,,,,,,,,,,,,,,,,,,,,,,,,,,,,,,,,,,,,,,,Bruder,4.578,504.1936477999998,504.194297,504.1944070999998,504.20881009999994,508.7918440000003,508.77601159999995,508.78126090000023,508.7918440000003,508.7918440000003,508.7918440000003,508.7918440000003,510.7924297999998,510.7924297999998,510.7924297999998,510.7924297999998,510.7763081000003,2,0.6973279999992883,0.25774530000035156,None,,,,,,,,,,,,,,,,,,5720,1,2025-10-17_16h12.03.769,sm,2024.2.4,59.967138008263554,2025-10-17 16h12.15.988986 +0200,
67,0,67,,,,,,space,3.7270582999999533,None,None,3,1.3661614000002373,0.29119619999983115,None,0,0,0,0,,,,,0,0,0,0,,,,,67,0,67,0,510.7924297999998,,,,,,,,,,,,,,,,,,,,,,,,,,,,,,,,,,,,,,,,,,,,,,,,,,,,,,,,,Dorn,2.9994,510.7768089000001,510.77734770000006,510.7774559999998,510.7924297999998,513.7916943,513.7760100000005,513.7797550000005,513.7916943,513.7916943,513.7916943,513.7916943,515.7914354000004,515.7914354000004,515.7914354000004,515.7914354000004,515.7759867000004,3,1.3661614000002373,0.29119619999983115,None,,,,,,,,,,,,,,,,,,5720,1,2025-10-17_16h12.03.769,sm,2024.2.4,59.967138008263554,2025-10-17 16h12.15.988986 +0200,
68,0,68,,,,,,space,3.7270582999999533,None,None,3,1.254262800000106,0.2827106000004278,None,0,0,0,0,,,,,0,0,0,0,,,,,68,0,68,0,515.7914354000004,,,,,,,,,,,,,,,,,,,,,,,,,,,,,,,,,,,,,,,,,,,,,,,,,,,,,,,,,Kante,2.1169,515.7764934000006,515.7770275000003,515.7771413999999,515.7914354000004,517.9078905000006,517.8926087999998,517.8959865000006,517.9078905000006,517.9078905000006,517.9078905000006,517.9078905000006,519.9078835,519.9078835,519.9078835,519.9078835,519.8924840999998,3,1.254262800000106,0.2827106000004278,None,,,,,,,,,,,,,,,,,,5720,1,2025-10-17_16h12.03.769,sm,2024.2.4,59.967138008263554,2025-10-17 16h12.15.988986 +0200,
69,0,69,,,,,,space,3.7270582999999533,None,None,3,1.0517172999998365,0.3784005999996225,None,0,0,0,0,,,,,0,0,0,0,,,,,69,0,69,0,519.9078835,,,,,,,,,,,,,,,,,,,,,,,,,,,,,,,,,,,,,,,,,,,,,,,,,,,,,,,,,Gipfel,3.4193,519.892992,519.8935084000004,519.8936177000005,519.9078835,523.3409385000004,523.3254668,523.3295683000006,523.3409385000004,523.3409385000004,523.3409385000004,523.3409385000004,525.3410488,525.3410488,525.3410488,525.3410488,525.3253518000001,3,1.0517172999998365,0.3784005999996225,None,,,,,,,,,,,,,,,,,,5720,1,2025-10-17_16h12.03.769,sm,2024.2.4,59.967138008263554,2025-10-17 16h12.15.988986 +0200,
70,0,70,,,,,,space,3.7270582999999533,None,None,2,1.9337273999999525,None,None,0,0,0,0,,,,,0,0,0,0,,,,,70,0,70,0,525.3410488,,,,,,,,,,,,,,,,,,,,,,,,,,,,,,,,,,,,,,,,,,,,,,,,,,,,,,,,,Weinen,5.8294,525.3258557999998,525.3263684000003,525.3264788000006,525.3410488,531.1737064999998,531.1583449,531.1623792,531.1737064999998,531.1737064999998,531.1737064999998,531.1737064999998,533.1739628000005,533.1739628000005,533.1739628000005,533.1739628000005,533.1581534000006,2,1.9337273999999525,None,None,,,,,,,,,,,,,,,,,,5720,1,2025-10-17_16h12.03.769,sm,2024.2.4,59.967138008263554,2025-10-17 16h12.15.988986 +0200,
71,0,71,,,,,,space,3.7270582999999533,None,None,3,1.1298416999998153,0.25444770000012795,None,0,0,0,0,,,,,0,0,0,0,,,,,71,0,71,0,533.1739628000005,,,,,,,,,,,,,,,,,,,,,,,,,,,,,,,,,,,,,,,,,,,,,,,,,,,,,,,,,Saft,2.0939,533.1585566000003,533.1590393000006,533.1591275000001,533.1739628000005,535.2736945000006,535.2576700999998,535.2608111999998,535.2736945000006,535.2736945000006,535.2736945000006,535.2736945000006,537.2734700000001,537.2734700000001,537.2734700000001,537.2734700000001,537.2580634000005,3,1.1298416999998153,0.25444770000012795,None,,,,,,,,,,,,,,,,,,5720,1,2025-10-17_16h12.03.769,sm,2024.2.4,59.967138008263554,2025-10-17 16h12.15.988986 +0200,
72,0,72,,,,,,space,3.7270582999999533,None,None,3,0.9618647999996028,0.2782643000000462,None,0,0,0,0,,,,,0,0,0,0,,,,,72,0,72,0,537.2734700000001,,,,,,,,,,,,,,,,,,,,,,,,,,,,,,,,,,,,,,,,,,,,,,,,,,,,,,,,,Geschichte,2.8387,537.2585662000001,537.2591375000002,537.2592420999999,537.2734700000001,540.1229827000006,540.1074171,540.1111898999998,540.1229827000006,540.1229827000006,540.1229827000006,540.1229827000006,542.1232023000002,542.1232023000002,542.1232023000002,542.1232023000002,542.1078441999998,3,0.9618647999996028,0.2782643000000462,None,,,,,,,,,,,,,,,,,,5720,1,2025-10-17_16h12.03.769,sm,2024.2.4,59.967138008263554,2025-10-17 16h12.15.988986 +0200,
73,0,73,,,,,,space,3.7270582999999533,None,None,3,1.302165099999911,0.3320203000002948,None,0,0,0,0,,,,,0,0,0,0,,,,,73,0,73,0,542.1232023000002,,,,,,,,,,,,,,,,,,,,,,,,,,,,,,,,,,,,,,,,,,,,,,,,,,,,,,,,,Vulkan,3.1802,542.1083297000005,542.1089714999998,542.1090836000003,542.1232023000002,545.3063915000002,545.2911143000001,545.2961740999999,545.3063915000002,545.3063915000002,545.3063915000002,545.3063915000002,547.3064795999999,547.3064795999999,547.3064795999999,547.3064795999999,547.2909557000003,3,1.302165099999911,0.3320203000002948,None,,,,,,,,,,,,,,,,,,5720,1,2025-10-17_16h12.03.769,sm,2024.2.4,59.967138008263554,2025-10-17 16h12.15.988986 +0200,
74,0,74,,,,,,space,3.7270582999999533,None,None,3,1.2488876999996137,0.2463002000004053,None,0,0,0,0,,,,,0,0,0,0,,,,,74,0,74,0,547.3064795999999,,,,,,,,,,,,,,,,,,,,,,,,,,,,,,,,,,,,,,,,,,,,,,,,,,,,,,,,,Sitzgurt,2.1365,547.2914725,547.2919855999999,547.2921076000002,547.3064795999999,549.4560093999999,549.4407971999999,549.4451297000005,549.4560093999999,549.4560093999999,549.4560093999999,549.4560093999999,551.4560091000003,551.4560091000003,551.4560091000003,551.4560091000003,551.4404918999999,3,1.2488876999996137,0.2463002000004053,None,,,,,,,,,,,,,,,,,,5720,1,2025-10-17_16h12.03.769,sm,2024.2.4,59.967138008263554,2025-10-17 16h12.15.988986 +0200,
75,0,75,,,,,,space,3.7270582999999533,None,None,3,0.8322252999996635,0.26924920000055863,None,0,0,0,0,,,,,0,0,0,0,,,,,75,0,75,0,551.4560091000003,,,,,,,,,,,,,,,,,,,,,,,,,,,,,,,,,,,,,,,,,,,,,,,,,,,,,,,,,Geheimnis,4.3167,551.4409955000001,551.4416415000005,551.4417486000002,551.4560091000003,555.7723805000005,555.7569327000001,555.7611470000002,555.7723805000005,555.7723805000005,555.7723805000005,555.7723805000005,557.7722786000004,557.7722786000004,557.7722786000004,557.7722786000004,557.7567429999999,3,0.8322252999996635,0.26924920000055863,None,,,,,,,,,,,,,,,,,,5720,1,2025-10-17_16h12.03.769,sm,2024.2.4,59.967138008263554,2025-10-17 16h12.15.988986 +0200,
76,0,76,,,,,,space,3.7270582999999533,None,None,2,1.0394252000005508,0.25218909999966854,None,0,0,0,0,,,,,0,0,0,0,,,,,76,0,76,0,557.7722786000004,,,,,,,,,,,,,,,,,,,,,,,,,,,,,,,,,,,,,,,,,,,,,,,,,,,,,,,,,Autorin,2.2915,557.7572279000005,557.7577142,557.7578171000005,557.7722786000004,560.0719045000005,560.0566638,560.0608059000006,560.0719045000005,560.0719045000005,560.0719045000005,560.0719045000005,562.0722464999999,562.0722464999999,562.0722464999999,562.0722464999999,562.0567117999999,2,1.0394252000005508,0.25218909999966854,None,,,,,,,,,,,,,,,,,,5720,1,2025-10-17_16h12.03.769,sm,2024.2.4,59.967138008263554,2025-10-17 16h12.15.988986 +0200,
77,0,77,,,,,,space,3.7270582999999533,None,None,2,0.9942496999992727,0.23693960000036896,None,0,0,0,0,,,,,0,0,0,0,,,,,77,0,77,0,562.0722464999999,,,,,,,,,,,,,,,,,,,,,,,,,,,,,,,,,,,,,,,,,,,,,,,,,,,,,,,,,Alligator,2.7544,562.0572183000004,562.0577279999998,562.0578386000007,562.0722464999999,564.8385441,564.8229771000006,564.8271937,564.8385441,564.8385441,564.8385441,564.8385441,566.8385757000005,566.8385757000005,566.8385757000005,566.8385757000005,566.8230211,2,0.9942496999992727,0.23693960000036896,None,,,,,,,,,,,,,,,,,,5720,1,2025-10-17_16h12.03.769,sm,2024.2.4,59.967138008263554,2025-10-17 16h12.15.988986 +0200,
78,0,78,,,,,,space,3.7270582999999533,None,None,3,0.9900248999992982,0.3176619000005303,None,0,0,0,0,,,,,0,0,0,0,,,,,78,0,78,0,566.8385757000005,,,,,,,,,,,,,,,,,,,,,,,,,,,,,,,,,,,,,,,,,,,,,,,,,,,,,,,,,Ringe,3.1921,566.8235209000004,566.8242535999998,566.8243610999998,566.8385757000005,570.0381950000001,570.0224501000002,570.0261649000004,570.0381950000001,570.0381950000001,570.0381950000001,570.0381950000001,572.0382236000005,572.0382236000005,572.0382236000005,572.0382236000005,572.0223802,3,0.9900248999992982,0.3176619000005303,None,,,,,,,,,,,,,,,,,,5720,1,2025-10-17_16h12.03.769,sm,2024.2.4,59.967138008263554,2025-10-17 16h12.15.988986 +0200,
79,0,79,,,,,,space,3.7270582999999533,None,None,None,,,None,0,0,0,0,,,,,0,0,0,0,,,,,79,0,79,0,572.0382236000005,,,,,,,,,,,,,,,,,,,,,,,,,,,,,,,,,,,,,,,,,,,,,,,,,,,,,,,,,Komödie,2.051,572.0227822000006,572.0232550999999,572.0233425000006,572.0382236000005,574.1051149000004,574.0891359000007,574.0928210000002,574.1051149000004,574.1051149000004,574.1051149000004,574.1051149000004,576.1157131,576.1157131,576.1157131,576.1157131,576.0890872999998,None,,,None,,,,,,,,,,,,,,,,,,5720,1,2025-10-17_16h12.03.769,sm,2024.2.4,59.967138008263554,2025-10-17 16h12.15.988986 +0200,
0,0,0,,,,,4.6883,space,1.935981300000094,None,None,3,0.8680691999998089,0.2654483000005712,None,0,0,0,0,,,,,1,0,1,0,0,79,79,14,0,0,0,0,627.5518276000003,,,,,,,,,,,,,,,,,,,,,,,,,,,,,,,,,,,,600.6500425000004,600.6502694000001,600.6565248000006,600.6609874000005,600.6609874000005,602.6051428000001,space,1.935981300000094,None,602.6052971999998,602.6198282000005,602.6198282000005,615.53521,None,615.5426324,615.5522783000006,615.5506223666664,616.7611588999998,625.5358352666665,626.5411709999998,627.5356293000004,Bad,4.6883,627.5369036000002,627.5375481000001,627.5376506000002,627.5518276000003,632.2510659999998,632.2359204000004,632.2394208000005,632.2510659999998,632.2510659999998,632.2510659999998,632.2510659999998,634.2512781000005,634.2512781000005,634.2512781000005,634.2512781000005,634.2356282999999,3,0.8680691999998089,0.2654483000005712,None,588.1043066000002,588.1043827000003,None,588.1121537999998,588.1201139000004,592.1206177000004,592.1206177000004,592.1206177000004,600.6050814,2,8.468168999999762,None,,,,,,5720,1,2025-10-17_16h12.03.769,sm,2024.2.4,59.967138008263554,2025-10-17 16h12.15.988986 +0200,
1,0,1,,,,,,space,1.935981300000094,None,None,3,1.1171276999994006,0.28749750000042695,None,0,0,0,0,,,,,1,0,1,0,,,,,1,0,1,0,634.2512781000005,,,,,,,,,,,,,,,,,,,,,,,,,,,,,,,,,,,,,,,,,,,,,,,,,,,,,,,,,Feld,2.4547,634.2361396000006,634.2367307000004,634.2368366000001,634.2512781000005,636.7175612000001,636.7019627,636.7051731000001,636.7175612000001,636.7175612000001,636.7175612000001,636.7175612000001,638.7176685000004,638.7176685000004,638.7176685000004,638.7176685000004,638.7020809000005,3,1.1171276999994006,0.28749750000042695,None,,,,,,,,,,,,,,,,,,5720,1,2025-10-17_16h12.03.769,sm,2024.2.4,59.967138008263554,2025-10-17 16h12.15.988986 +0200,
2,0,2,,,,,,space,1.935981300000094,None,None,2,0.9099050999993779,0.2284527000001617,None,0,0,0,0,,,,,1,0,1,0,,,,,2,0,2,0,638.7176685000004,,,,,,,,,,,,,,,,,,,,,,,,,,,,,,,,,,,,,,,,,,,,,,,,,,,,,,,,,Rasen,2.3807,638.7025932000006,638.7032478000001,638.7033571000002,638.7176685000004,641.1007654000005,641.0850301999999,641.0884716,641.1007654000005,641.1007654000005,641.1007654000005,641.1007654000005,643.1006996000006,643.1006996000006,643.1006996000006,643.1006996000006,643.0851650000004,2,0.9099050999993779,0.2284527000001617,None,,,,,,,,,,,,,,,,,,5720,1,2025-10-17_16h12.03.769,sm,2024.2.4,59.967138008263554,2025-10-17 16h12.15.988986 +0200,
3,0,3,,,,,,space,1.935981300000094,None,None,3,1.6254884999998467,0.26766029999998864,None,0,0,0,0,,,,,1,0,1,0,,,,,3,0,3,0,643.1006996000006,,,,,,,,,,,,,,,,,,,,,,,,,,,,,,,,,,,,,,,,,,,,,,,,,,,,,,,,,Schleim,2.3677,643.0856689000002,643.0861745000002,643.0862862000004,643.1006996000006,645.4669774000004,645.4517617000001,645.4554844000004,645.4669774000004,645.4669774000004,645.4669774000004,645.4669774000004,647.4671526000002,647.4671526000002,647.4671526000002,647.4671526000002,647.4515603,3,1.6254884999998467,0.26766029999998864,None,,,,,,,,,,,,,,,,,,5720,1,2025-10-17_16h12.03.769,sm,2024.2.4,59.967138008263554,2025-10-17 16h12.15.988986 +0200,
4,0,4,,,,,,space,1.935981300000094,None,None,3,0.7497386000004553,0.24025679999977,None,0,0,0,0,,,,,1,0,1,0,,,,,4,0,4,0,647.4671526000002,,,,,,,,,,,,,,,,,,,,,,,,,,,,,,,,,,,,,,,,,,,,,,,,,,,,,,,,,Fuß,2.9551,647.4520806,647.4525779000005,647.4526852999998,647.4671526000002,650.4345106000001,650.4180108,650.4222391000003,650.4345106000001,650.4345106000001,650.4345106000001,650.4345106000001,652.4337317999998,652.4337317999998,652.4337317999998,652.4337317999998,652.4181893000004,3,0.7497386000004553,0.24025679999977,None,,,,,,,,,,,,,,,,,,5720,1,2025-10-17_16h12.03.769,sm,2024.2.4,59.967138008263554,2025-10-17 16h12.15.988986 +0200,
5,0,5,,,,,,space,1.935981300000094,None,None,3,1.13298979999945,0.2603272000005745,None,0,0,0,0,,,,,1,0,1,0,,,,,5,0,5,0,652.4337317999998,,,,,,,,,,,,,,,,,,,,,,,,,,,,,,,,,,,,,,,,,,,,,,,,,,,,,,,,,Geschäft,2.2633,652.4187019000001,652.4192194000007,652.4193279000001,652.4337317999998,654.6999839999999,654.6843227999998,654.6883955000003,654.6999839999999,654.6999839999999,654.6999839999999,654.6999839999999,656.7001717000003,656.7001717000003,656.7001717000003,656.7001717000003,656.6845526000006,3,1.13298979999945,0.2603272000005745,None,,,,,,,,,,,,,,,,,,5720,1,2025-10-17_16h12.03.769,sm,2024.2.4,59.967138008263554,2025-10-17 16h12.15.988986 +0200,
6,0,6,,,,,,space,1.935981300000094,None,None,3,0.7244817999999213,0.2044541000004756,None,0,0,0,0,,,,,1,0,1,0,,,,,6,0,6,0,656.7001717000003,,,,,,,,,,,,,,,,,,,,,,,,,,,,,,,,,,,,,,,,,,,,,,,,,,,,,,,,,Dachboden,2.1936,656.6850491000005,656.6855689000004,656.6856778000001,656.7001717000003,658.8996320000006,658.8844611000004,658.8888833000001,658.8996320000006,658.8996320000006,658.8996320000006,658.8996320000006,660.8996938,660.8996938,660.8996938,660.8996938,660.8842715000001,3,0.7244817999999213,0.2044541000004756,None,,,,,,,,,,,,,,,,,,5720,1,2025-10-17_16h12.03.769,sm,2024.2.4,59.967138008263554,2025-10-17 16h12.15.988986 +0200,
7,0,7,,,,,,space,1.935981300000094,None,None,3,0.6675260000001799,0.2622527000003174,None,0,0,0,0,,,,,1,0,1,0,,,,,7,0,7,0,660.8996938,,,,,,,,,,,,,,,,,,,,,,,,,,,,,,,,,,,,,,,,,,,,,,,,,,,,,,,,,Ausbruch,2.1236,660.8848113000004,660.8854683999998,660.8856286999999,660.8996938,663.0328530000006,663.0171879999998,663.0206606000002,663.0328530000006,663.0328530000006,663.0328530000006,663.0328530000006,665.0328214000001,665.0328214000001,665.0328214000001,665.0328214000001,665.0173285000001,3,0.6675260000001799,0.2622527000003174,None,,,,,,,,,,,,,,,,,,5720,1,2025-10-17_16h12.03.769,sm,2024.2.4,59.967138008263554,2025-10-17 16h12.15.988986 +0200,
8,0,8,,,,,,space,1.935981300000094,None,None,3,0.769561099999919,0.27560910000011063,None,0,0,0,0,,,,,1,0,1,0,,,,,8,0,8,0,665.0328214000001,,,,,,,,,,,,,,,,,,,,,,,,,,,,,,,,,,,,,,,,,,,,,,,,,,,,,,,,,Waschbecken,3.1334,665.0178305,665.0184868000006,665.0185935,665.0328214000001,668.165935,668.1504541000004,668.1547031999999,668.165935,668.165935,668.165935,668.165935,670.1662747999999,670.1662747999999,670.1662747999999,670.1662747999999,670.1505323000001,3,0.769561099999919,0.27560910000011063,None,,,,,,,,,,,,,,,,,,5720,1,2025-10-17_16h12.03.769,sm,2024.2.4,59.967138008263554,2025-10-17 16h12.15.988986 +0200,
9,0,9,,,,,,space,1.935981300000094,None,None,2,0.6866312000001926,0.19140249999963999,None,0,0,0,0,,,,,1,0,1,0,,,,,9,0,9,0,670.1662747999999,,,,,,,,,,,,,,,,,,,,,,,,,,,,,,,,,,,,,,,,,,,,,,,,,,,,,,,,,Student,2.7544,670.1510407000005,670.1517115000006,670.1518204000004,670.1662747999999,672.9323402,672.9167401000004,672.9208853999999,672.9323402,672.9323402,672.9323402,672.9323402,674.9324323000001,674.9324323000001,674.9324323000001,674.9324323000001,674.9169928000001,2,0.6866312000001926,0.19140249999963999,None,,,,,,,,,,,,,,,,,,5720,1,2025-10-17_16h12.03.769,sm,2024.2.4,59.967138008263554,2025-10-17 16h12.15.988986 +0200,
10,0,10,,,,,,space,1.935981300000094,None,None,3,0.7307713000000149,0.29455980000057025,None,0,0,0,0,,,,,1,0,1,0,,,,,10,0,10,0,674.9324323000001,,,,,,,,,,,,,,,,,,,,,,,,,,,,,,,,,,,,,,,,,,,,,,,,,,,,,,,,,Schule,4.931,674.9175153000006,674.9181988,674.9183129000003,674.9324323000001,679.8649844000001,679.8494870000004,679.8530390000005,679.8649844000001,679.8649844000001,679.8649844000001,679.8649844000001,681.8652013000001,681.8652013000001,681.8652013000001,681.8652013000001,681.8495205999998,3,0.7307713000000149,0.29455980000057025,None,,,,,,,,,,,,,,,,,,5720,1,2025-10-17_16h12.03.769,sm,2024.2.4,59.967138008263554,2025-10-17 16h12.15.988986 +0200,
11,0,11,,,,,,space,1.935981300000094,None,None,3,0.6388778000000457,0.3250871999998708,None,0,0,0,0,,,,,1,0,1,0,,,,,11,0,11,0,681.8652013000001,,,,,,,,,,,,,,,,,,,,,,,,,,,,,,,,,,,,,,,,,,,,,,,,,,,,,,,,,Tasche,4.578,681.8500260000001,681.8507613000002,681.8508755000003,681.8652013000001,686.4478010000003,686.4325548000006,686.4367804000003,686.4478010000003,686.4478010000003,686.4478010000003,686.4478010000003,688.4480204000001,688.4480204000001,688.4480204000001,688.4480204000001,688.4324944,3,0.6388778000000457,0.3250871999998708,None,,,,,,,,,,,,,,,,,,5720,1,2025-10-17_16h12.03.769,sm,2024.2.4,59.967138008263554,2025-10-17 16h12.15.988986 +0200,
12,0,12,,,,,,space,1.935981300000094,None,None,3,0.97840879999967,0.25696810000044934,None,0,0,0,0,,,,,1,0,1,0,,,,,12,0,12,0,688.4480204000001,,,,,,,,,,,,,,,,,,,,,,,,,,,,,,,,,,,,,,,,,,,,,,,,,,,,,,,,,Service,4.1935,688.4330071000004,688.4335381000001,688.4336491000004,688.4480204000001,692.6480326000001,692.6321368999998,692.6360506999999,692.6480326000001,692.6480326000001,692.6480326000001,692.6480326000001,694.6476320000002,694.6476320000002,694.6476320000002,694.6476320000002,694.6322381999998,3,0.97840879999967,0.25696810000044934,None,,,,,,,,,,,,,,,,,,5720,1,2025-10-17_16h12.03.769,sm,2024.2.4,59.967138008263554,2025-10-17 16h12.15.988986 +0200,
13,0,13,,,,,,space,1.935981300000094,None,None,2,1.025282700000389,0.19252789999973174,None,0,0,0,0,,,,,1,0,1,0,,,,,13,0,13,0,694.6476320000002,,,,,,,,,,,,,,,,,,,,,,,,,,,,,,,,,,,,,,,,,,,,,,,,,,,,,,,,,Zähne,3.7299,694.6327184000002,694.6332940000002,694.6334003000002,694.6476320000002,698.3806860000004,698.3651239999999,698.3682933999999,698.3806860000004,698.3806860000004,698.3806860000004,698.3806860000004,700.3812961000003,700.3812961000003,700.3812961000003,700.3812961000003,700.3653086000004,2,1.025282700000389,0.19252789999973174,None,,,,,,,,,,,,,,,,,,5720,1,2025-10-17_16h12.03.769,sm,2024.2.4,59.967138008263554,2025-10-17 16h12.15.988986 +0200,
14,0,14,,,,,,space,1.935981300000094,None,None,3,0.7490250000000742,0.30628100000012637,None,0,0,0,0,,,,,1,0,1,0,,,,,14,0,14,0,700.3812961000003,,,,,,,,,,,,,,,,,,,,,,,,,,,,,,,,,,,,,,,,,,,,,,,,,,,,,,,,,Rolle,2.2206,700.3658070000001,700.3663152999998,700.3664235000006,700.3812961000003,702.6137055999998,702.5982766000006,702.6021423000002,702.6137055999998,702.6137055999998,702.6137055999998,702.6137055999998,704.6139598999998,704.6139598999998,704.6139598999998,704.6139598999998,704.5979693999998,3,0.7490250000000742,0.30628100000012637,None,,,,,,,,,,,,,,,,,,5720,1,2025-10-17_16h12.03.769,sm,2024.2.4,59.967138008263554,2025-10-17 16h12.15.988986 +0200,
15,0,15,,,,,,space,1.935981300000094,None,None,2,1.1598858999996082,0.22634440000001632,None,0,0,0,0,,,,,1,0,1,0,,,,,15,0,15,0,704.6139598999998,,,,,,,,,,,,,,,,,,,,,,,,,,,,,,,,,,,,,,,,,,,,,,,,,,,,,,,,,Gast,2.753,704.5983686999998,704.5989114000004,704.5989961000005,704.6139598999998,707.3801426,707.3648702,707.3683795000006,707.3801426,707.3801426,707.3801426,707.3801426,709.3804762999998,709.3804762999998,709.3804762999998,709.3804762999998,709.3648454000004,2,1.1598858999996082,0.22634440000001632,None,,,,,,,,,,,,,,,,,,5720,1,2025-10-17_16h12.03.769,sm,2024.2.4,59.967138008263554,2025-10-17 16h12.15.988986 +0200,
16,0,16,,,,,,space,1.935981300000094,None,None,3,1.6655513000005158,0.2511345999992045,None,0,0,0,0,,,,,1,0,1,0,,,,,16,0,16,0,709.3804762999998,,,,,,,,,,,,,,,,,,,,,,,,,,,,,,,,,,,,,,,,,,,,,,,,,,,,,,,,,Hammer,2.5116,709.3653482,709.3658599,709.3659733000004,709.3804762999998,711.8965622000005,711.8810285,711.8852735,711.8965622000005,711.8965622000005,711.8965622000005,711.8965622000005,713.8965712999998,713.8965712999998,713.8965712999998,713.8965712999998,713.8806168000001,3,1.6655513000005158,0.2511345999992045,None,,,,,,,,,,,,,,,,,,5720,1,2025-10-17_16h12.03.769,sm,2024.2.4,59.967138008263554,2025-10-17 16h12.15.988986 +0200,
17,0,17,,,,,,space,1.935981300000094,None,None,3,1.363944900000206,0.2693371000004845,None,0,0,0,0,,,,,1,0,1,0,,,,,17,0,17,0,713.8965712999998,,,,,,,,,,,,,,,,,,,,,,,,,,,,,,,,,,,,,,,,,,,,,,,,,,,,,,,,,Nacht,3.3357,713.8810004000006,713.8814469999998,713.8815304999998,713.8965712999998,717.2463013000006,717.2312431,717.2353140000005,717.2463013000006,717.2463013000006,717.2463013000006,717.2463013000006,719.2463551000001,719.2463551000001,719.2463551000001,719.2463551000001,719.2307753000005,3,1.363944900000206,0.2693371000004845,None,,,,,,,,,,,,,,,,,,5720,1,2025-10-17_16h12.03.769,sm,2024.2.4,59.967138008263554,2025-10-17 16h12.15.988986 +0200,
18,0,18,,,,,,space,1.935981300000094,None,None,3,0.8932540000005247,0.24737219999951776,None,0,0,0,0,,,,,1,0,1,0,,,,,18,0,18,0,719.2463551000001,,,,,,,,,,,,,,,,,,,,,,,,,,,,,,,,,,,,,,,,,,,,,,,,,,,,,,,,,Wein,2.5332,719.2312840000004,719.2317836000002,719.2318918999999,719.2463551000001,721.7794340999999,721.7641973999998,721.7687482000001,721.7794340999999,721.7794340999999,721.7794340999999,721.7794340999999,723.7795174000003,723.7795174000003,723.7795174000003,723.7795174000003,723.7638907,3,0.8932540000005247,0.24737219999951776,None,,,,,,,,,,,,,,,,,,5720,1,2025-10-17_16h12.03.769,sm,2024.2.4,59.967138008263554,2025-10-17 16h12.15.988986 +0200,
19,0,19,,,,,,space,1.935981300000094,None,None,3,0.8771555000002991,0.27730109999993147,None,0,0,0,0,,,,,1,0,1,0,,,,,19,0,19,0,723.7795174000003,,,,,,,,,,,,,,,,,,,,,,,,,,,,,,,,,,,,,,,,,,,,,,,,,,,,,,,,,Strand,3.4631,723.7643729000001,723.7650266999999,723.7651364000003,723.7795174000003,727.2456161,727.2302206000004,727.2339479000002,727.2456161,727.2456161,727.2456161,727.2456161,729.2457261,729.2457261,729.2457261,729.2457261,729.2300933000006,3,0.8771555000002991,0.27730109999993147,None,,,,,,,,,,,,,,,,,,5720,1,2025-10-17_16h12.03.769,sm,2024.2.4,59.967138008263554,2025-10-17 16h12.15.988986 +0200,
20,0,20,,,,,,space,1.935981300000094,None,None,3,1.9014275999998063,None,None,0,0,0,0,,,,,1,0,1,0,,,,,20,0,20,0,729.2457261,,,,,,,,,,,,,,,,,,,,,,,,,,,,,,,,,,,,,,,,,,,,,,,,,,,,,,,,,Gel,2.0939,729.2306001000006,729.2311054000002,729.2312142999999,729.2457261,731.3456182999998,731.3301225000005,731.3336917000006,731.3456182999998,731.3456182999998,731.3456182999998,731.3456182999998,733.3455263000005,733.3455263000005,733.3455263000005,733.3455263000005,733.3301676000001,3,1.9014275999998063,None,None,,,,,,,,,,,,,,,,,,5720,1,2025-10-17_16h12.03.769,sm,2024.2.4,59.967138008263554,2025-10-17 16h12.15.988986 +0200,
21,0,21,,,,,,space,1.935981300000094,None,None,3,1.0150543999998263,0.25730730000032054,None,0,0,0,0,,,,,1,0,1,0,,,,,21,0,21,0,733.3455263000005,,,,,,,,,,,,,,,,,,,,,,,,,,,,,,,,,,,,,,,,,,,,,,,,,,,,,,,,,Gesicht,4.6747,733.3306815000005,733.3312272000003,733.3313401000005,733.3455263000005,738.0281634000003,738.0126707999998,738.0160992000001,738.0281634000003,738.0281634000003,738.0281634000003,738.0281634000003,740.0282539999998,740.0282539999998,740.0282539999998,740.0282539999998,740.0128250000007,3,1.0150543999998263,0.25730730000032054,None,,,,,,,,,,,,,,,,,,5720,1,2025-10-17_16h12.03.769,sm,2024.2.4,59.967138008263554,2025-10-17 16h12.15.988986 +0200,
22,0,22,,,,,,space,1.935981300000094,None,None,3,1.176841799999238,0.2628757999991649,None,0,0,0,0,,,,,1,0,1,0,,,,,22,0,22,0,740.0282539999998,,,,,,,,,,,,,,,,,,,,,,,,,,,,,,,,,,,,,,,,,,,,,,,,,,,,,,,,,Kunst,3.4193,740.013335300001,740.0138558999997,740.0139659000006,740.0282539999998,743.4616262999998,743.4458972000002,743.4498986000008,743.4616262999998,743.4616262999998,743.4616262999998,743.4616262999998,745.4614131000008,745.4614131000008,745.4614131000008,745.4614131000008,745.4459201,3,1.176841799999238,0.2628757999991649,None,,,,,,,,,,,,,,,,,,5720,1,2025-10-17_16h12.03.769,sm,2024.2.4,59.967138008263554,2025-10-17 16h12.15.988986 +0200,
23,0,23,,,,,,space,1.935981300000094,None,None,2,1.4595474999987346,0.24510630000077072,None,0,0,0,0,,,,,1,0,1,0,,,,,23,0,23,0,745.4614131000008,,,,,,,,,,,,,,,,,,,,,,,,,,,,,,,,,,,,,,,,,,,,,,,,,,,,,,,,,Schulter,2.1365,745.4464362999997,745.4469505000006,745.4470568999996,745.4614131000008,747.6110708000006,747.5955151999997,747.5990166000001,747.6110708000006,747.6110708000006,747.6110708000006,747.6110708000006,749.6112146999994,749.6112146999994,749.6112146999994,749.6112146999994,749.5956101000002,2,1.4595474999987346,0.24510630000077072,None,,,,,,,,,,,,,,,,,,5720,1,2025-10-17_16h12.03.769,sm,2024.2.4,59.967138008263554,2025-10-17 16h12.15.988986 +0200,
24,0,24,,,,,,space,1.935981300000094,None,None,3,1.1660284999998112,0.2445800000004965,None,0,0,0,0,,,,,1,0,1,0,,,,,24,0,24,0,749.6112146999994,,,,,,,,,,,,,,,,,,,,,,,,,,,,,,,,,,,,,,,,,,,,,,,,,,,,,,,,,Bus,2.8866,749.5961137000004,749.5966305000011,749.5967396999995,749.6112146999994,752.5107242999993,752.4955452999993,752.4987150000006,752.5107242999993,752.5107242999993,752.5107242999993,752.5107242999993,754.5111363000005,754.5111363000005,754.5111363000005,754.5111363000005,754.4954459999999,3,1.1660284999998112,0.2445800000004965,None,,,,,,,,,,,,,,,,,,5720,1,2025-10-17_16h12.03.769,sm,2024.2.4,59.967138008263554,2025-10-17 16h12.15.988986 +0200,
25,0,25,,,,,,space,1.935981300000094,None,None,3,0.7323846999988746,0.26191950000065845,None,0,0,0,0,,,,,1,0,1,0,,,,,25,0,25,0,754.5111363000005,,,,,,,,,,,,,,,,,,,,,,,,,,,,,,,,,,,,,,,,,,,,,,,,,,,,,,,,,Schwung,2.8426,754.4959506999994,754.4964616000007,754.4965665999998,754.5111363000005,757.3603716999996,757.3448417000009,757.3489698000003,757.3603716999996,757.3603716999996,757.3603716999996,757.3603716999996,759.3610804999998,759.3610804999998,759.3610804999998,759.3610804999998,759.3452650000008,3,0.7323846999988746,0.26191950000065845,None,,,,,,,,,,,,,,,,,,5720,1,2025-10-17_16h12.03.769,sm,2024.2.4,59.967138008263554,2025-10-17 16h12.15.988986 +0200,
26,0,26,,,,,,space,1.935981300000094,None,None,2,0.7156216000003042,0.20057529999940016,None,0,0,0,0,,,,,1,0,1,0,,,,,26,0,26,0,759.3610804999998,,,,,,,,,,,,,,,,,,,,,,,,,,,,,,,,,,,,,,,,,,,,,,,,,,,,,,,,,Rose,4.3167,759.3457683999995,759.3462869000005,759.346394000001,759.3610804999998,763.6769797000006,763.6611328000008,763.6638558000004,763.6769797000006,763.6769797000006,763.6769797000006,763.6769797000006,765.6772608000001,765.6772608000001,765.6772608000001,765.6772608000001,765.6611863000007,2,0.7156216000003042,0.20057529999940016,None,,,,,,,,,,,,,,,,,,5720,1,2025-10-17_16h12.03.769,sm,2024.2.4,59.967138008263554,2025-10-17 16h12.15.988986 +0200,
27,0,27,,,,,,space,1.935981300000094,None,None,3,1.6335039000005054,0.2884412000003067,None,0,0,0,0,,,,,1,0,1,0,,,,,27,0,27,0,765.6772608000001,,,,,,,,,,,,,,,,,,,,,,,,,,,,,,,,,,,,,,,,,,,,,,,,,,,,,,,,,Ferien,2.2918,765.6616540999994,765.6621406999993,765.6622362000007,765.6772608000001,767.9770823999997,767.961041900001,767.9645372999994,767.9770823999997,767.9770823999997,767.9770823999997,767.9770823999997,769.9768211,769.9768211,769.9768211,769.9768211,769.9610108999996,3,1.6335039000005054,0.2884412000003067,None,,,,,,,,,,,,,,,,,,5720,1,2025-10-17_16h12.03.769,sm,2024.2.4,59.967138008263554,2025-10-17 16h12.15.988986 +0200,
28,0,28,,,,,,space,1.935981300000094,None,None,3,1.1863858999986405,0.20209020000038436,None,0,0,0,0,,,,,1,0,1,0,,,,,28,0,28,0,769.9768211,,,,,,,,,,,,,,,,,,,,,,,,,,,,,,,,,,,,,,,,,,,,,,,,,,,,,,,,,Pizza,2.016,769.9615311999996,769.9620587,769.9621691000002,769.9768211,771.9929218999996,771.9771401000007,771.9801737999996,771.9929218999996,771.9929218999996,771.9929218999996,771.9929218999996,773.9930792999994,773.9930792999994,773.9930792999994,773.9930792999994,773.9776236999996,3,1.1863858999986405,0.20209020000038436,None,,,,,,,,,,,,,,,,,,5720,1,2025-10-17_16h12.03.769,sm,2024.2.4,59.967138008263554,2025-10-17 16h12.15.988986 +0200,
29,0,29,,,,,,space,1.935981300000094,None,None,2,0.7342654999993101,0.1983127000003151,None,0,0,0,0,,,,,1,0,1,0,,,,,29,0,29,0,773.9930792999994,,,,,,,,,,,,,,,,,,,,,,,,,,,,,,,,,,,,,,,,,,,,,,,,,,,,,,,,,Geschwister,5.8294,773.9781205000008,773.9786231000007,773.9787306999997,773.9930792999994,779.8259805000007,779.8103913000004,779.8142328000004,779.8259805000007,779.8259805000007,779.8259805000007,779.8259805000007,781.8260304999994,781.8260304999994,781.8260304999994,781.8260304999994,781.8102181999993,2,0.7342654999993101,0.1983127000003151,None,,,,,,,,,,,,,,,,,,5720,1,2025-10-17_16h12.03.769,sm,2024.2.4,59.967138008263554,2025-10-17 16h12.15.988986 +0200,
30,0,30,,,,,,space,1.935981300000094,None,None,3,0.9571629000001849,0.21047510000062175,None,0,0,0,0,,,,,1,0,1,0,,,,,30,0,30,0,781.8260304999994,,,,,,,,,,,,,,,,,,,,,,,,,,,,,,,,,,,,,,,,,,,,,,,,,,,,,,,,,Dip,5.0312,781.8106921999997,781.8114132000001,781.8115155000005,781.8260304999994,786.8588725,786.8433283999993,786.8464928000003,786.8588725,786.8588725,786.8588725,786.8588725,788.8588628999996,788.8588628999996,788.8588628999996,788.8588628999996,788.8434808000011,3,0.9571629000001849,0.21047510000062175,None,,,,,,,,,,,,,,,,,,5720,1,2025-10-17_16h12.03.769,sm,2024.2.4,59.967138008263554,2025-10-17 16h12.15.988986 +0200,
31,0,31,,,,,,space,1.935981300000094,None,None,3,1.5487990000001446,0.27557900000101654,None,0,0,0,0,,,,,1,0,1,0,,,,,31,0,31,0,788.8588628999996,,,,,,,,,,,,,,,,,,,,,,,,,,,,,,,,,,,,,,,,,,,,,,,,,,,,,,,,,Olympia,2.2829,788.8439877999999,788.8445044000009,788.8446131999999,788.8588628999996,791.1422372000006,791.1265635999998,791.1355678999998,791.1422372000006,791.1422372000006,791.1422372000006,791.1422372000006,793.1425346999995,793.1425346999995,793.1425346999995,793.1425346999995,793.1263709999994,3,1.5487990000001446,0.27557900000101654,None,,,,,,,,,,,,,,,,,,5720,1,2025-10-17_16h12.03.769,sm,2024.2.4,59.967138008263554,2025-10-17 16h12.15.988986 +0200,
32,0,32,,,,,,space,1.935981300000094,None,None,3,1.2760349000000133,0.26128349999999045,None,0,0,0,0,,,,,1,0,1,0,,,,,32,0,32,0,793.1425346999995,,,,,,,,,,,,,,,,,,,,,,,,,,,,,,,,,,,,,,,,,,,,,,,,,,,,,,,,,Schlüssel,2.0788,793.1268559999999,793.1274187999998,793.1275245000006,793.1425346999995,795.225136600001,795.2093525999999,795.2129223000002,795.225136600001,795.225136600001,795.225136600001,795.225136600001,797.225364500001,797.225364500001,797.225364500001,797.225364500001,797.209393600001,3,1.2760349000000133,0.26128349999999045,None,,,,,,,,,,,,,,,,,,5720,1,2025-10-17_16h12.03.769,sm,2024.2.4,59.967138008263554,2025-10-17 16h12.15.988986 +0200,
33,0,33,,,,,,space,1.935981300000094,None,None,2,1.2194354000002932,0.16839540000000852,None,0,0,0,0,,,,,1,0,1,0,,,,,33,0,33,0,797.225364500001,,,,,,,,,,,,,,,,,,,,,,,,,,,,,,,,,,,,,,,,,,,,,,,,,,,,,,,,,Präsident,2.3686,797.2098909000006,797.2105254000007,797.2106362000004,797.225364500001,799.6080075,799.5925763000005,799.5964709000009,799.6080075,799.6080075,799.6080075,799.6080075,801.6082572999994,801.6082572999994,801.6082572999994,801.6082572999994,801.5925233999997,2,1.2194354000002932,0.16839540000000852,None,,,,,,,,,,,,,,,,,,5720,1,2025-10-17_16h12.03.769,sm,2024.2.4,59.967138008263554,2025-10-17 16h12.15.988986 +0200,
34,0,34,,,,,,space,1.935981300000094,None,None,3,1.2666962999992393,0.2506487999999081,None,0,0,0,0,,,,,1,0,1,0,,,,,34,0,34,0,801.6082572999994,,,,,,,,,,,,,,,,,,,,,,,,,,,,,,,,,,,,,,,,,,,,,,,,,,,,,,,,,Bluse,2.9566,801.5930283000007,801.5935340999995,801.5936505,801.6082572999994,804.5747474999998,804.5592246000006,804.5631311000006,804.5747474999998,804.5747474999998,804.5747474999998,804.5747474999998,806.5746042000001,806.5746042000001,806.5746042000001,806.5746042000001,806.5590015999996,3,1.2666962999992393,0.2506487999999081,None,,,,,,,,,,,,,,,,,,5720,1,2025-10-17_16h12.03.769,sm,2024.2.4,59.967138008263554,2025-10-17 16h12.15.988986 +0200,
35,0,35,,,,,,space,1.935981300000094,None,None,3,1.0394658999994135,0.2755717000000004,None,0,0,0,0,,,,,1,0,1,0,,,,,35,0,35,0,806.5746042000001,,,,,,,,,,,,,,,,,,,,,,,,,,,,,,,,,,,,,,,,,,,,,,,,,,,,,,,,,Spülung,3.5998,806.5595048000005,806.5601593000001,806.560269300001,806.5746042000001,810.1744633000008,810.158840000001,810.1629008999998,810.1744633000008,810.1744633000008,810.1744633000008,810.1744633000008,812.1742220000006,812.1742220000006,812.1742220000006,812.1742220000006,812.1586374999997,3,1.0394658999994135,0.2755717000000004,None,,,,,,,,,,,,,,,,,,5720,1,2025-10-17_16h12.03.769,sm,2024.2.4,59.967138008263554,2025-10-17 16h12.15.988986 +0200,
36,0,36,,,,,,space,1.935981300000094,None,None,3,1.3014425999990635,0.2364477999999508,None,0,0,0,0,,,,,1,0,1,0,,,,,36,0,36,0,812.1742220000006,,,,,,,,,,,,,,,,,,,,,,,,,,,,,,,,,,,,,,,,,,,,,,,,,,,,,,,,,Zigarette,2.0009,812.1591541999996,812.1598481999999,812.1599555000003,812.1742220000006,814.1740658999997,814.1584515999994,814.1622140000009,814.1740658999997,814.1740658999997,814.1740658999997,814.1740658999997,816.174047200001,816.174047200001,816.174047200001,816.174047200001,816.1584659000009,3,1.3014425999990635,0.2364477999999508,None,,,,,,,,,,,,,,,,,,5720,1,2025-10-17_16h12.03.769,sm,2024.2.4,59.967138008263554,2025-10-17 16h12.15.988986 +0200,
37,0,37,,,,,,space,1.935981300000094,None,None,3,1.2669308000004094,0.20651879999968514,None,0,0,0,0,,,,,1,0,1,0,,,,,37,0,37,0,816.174047200001,,,,,,,,,,,,,,,,,,,,,,,,,,,,,,,,,,,,,,,,,,,,,,,,,,,,,,,,,Geburtstag,3.1117,816.1589663999994,816.1595932000009,816.1597057000008,816.174047200001,819.2902268999997,819.2748421999995,819.2786299000009,819.2902268999997,819.2902268999997,819.2902268999997,819.2902268999997,821.2904184999998,821.2904184999998,821.2904184999998,821.2904184999998,821.2747456000006,3,1.2669308000004094,0.20651879999968514,None,,,,,,,,,,,,,,,,,,5720,1,2025-10-17_16h12.03.769,sm,2024.2.4,59.967138008263554,2025-10-17 16h12.15.988986 +0200,
38,0,38,,,,,,space,1.935981300000094,None,None,3,1.118856400000368,0.24493839999922784,None,0,0,0,0,,,,,1,0,1,0,,,,,38,0,38,0,821.2904184999998,,,,,,,,,,,,,,,,,,,,,,,,,,,,,,,,,,,,,,,,,,,,,,,,,,,,,,,,,Krone,3.3842,821.2752513000005,821.2757852000004,821.2758917000001,821.2904184999998,824.6733321000002,824.657956600001,824.6619299000004,824.6733321000002,824.6733321000002,824.6733321000002,824.6733321000002,826.6742679000008,826.6742679000008,826.6742679000008,826.6742679000008,826.6578180999995,3,1.118856400000368,0.24493839999922784,None,,,,,,,,,,,,,,,,,,5720,1,2025-10-17_16h12.03.769,sm,2024.2.4,59.967138008263554,2025-10-17 16h12.15.988986 +0200,
39,0,39,,,,,,space,1.935981300000094,None,None,3,1.0129435999988345,0.27186930000061693,None,0,0,0,0,,,,,1,0,1,0,,,,,39,0,39,0,826.6742679000008,,,,,,,,,,,,,,,,,,,,,,,,,,,,,,,,,,,,,,,,,,,,,,,,,,,,,,,,,Platz,3.3674,826.6583256000004,826.6589780999993,826.6590834999997,826.6742679000008,830.056558700001,830.0409394000008,830.0448686999998,830.056558700001,830.056558700001,830.056558700001,830.056558700001,832.0564736999995,832.0564736999995,832.0564736999995,832.0564736999995,832.0408262999999,3,1.0129435999988345,0.27186930000061693,None,,,,,,,,,,,,,,,,,,5720,1,2025-10-17_16h12.03.769,sm,2024.2.4,59.967138008263554,2025-10-17 16h12.15.988986 +0200,
40,0,40,,,,,,space,1.935981300000094,None,None,3,0.8745858999991469,0.2912240000005113,None,0,0,0,0,,,,,1,0,1,0,,,,,40,0,40,0,832.0564736999995,,,,,,,,,,,,,,,,,,,,,,,,,,,,,,,,,,,,,,,,,,,,,,,,,,,,,,,,,Anruf,2.5145,832.0413304000003,832.0418963000002,832.0420034000008,832.0564736999995,834.5728864000002,834.5577292000007,834.5619386000008,834.5728864000002,834.5728864000002,834.5728864000002,834.5728864000002,836.5731279000001,836.5731279000001,836.5731279000001,836.5731279000001,836.5572277000001,3,0.8745858999991469,0.2912240000005113,None,,,,,,,,,,,,,,,,,,5720,1,2025-10-17_16h12.03.769,sm,2024.2.4,59.967138008263554,2025-10-17 16h12.15.988986 +0200,
41,0,41,,,,,,space,1.935981300000094,None,None,2,1.3743273000000045,0.19886659999974654,None,0,0,0,0,,,,,1,0,1,0,,,,,41,0,41,0,836.5731279000001,,,,,,,,,,,,,,,,,,,,,,,,,,,,,,,,,,,,,,,,,,,,,,,,,,,,,,,,,Zwerg,2.9545,836.5577390999997,836.5582543999999,836.5583608999996,836.5731279000001,839.5390484999998,839.5239668999993,839.5274565999998,839.5390484999998,839.5390484999998,839.5390484999998,839.5390484999998,841.5390770000004,841.5390770000004,841.5390770000004,841.5390770000004,841.5235693000004,2,1.3743273000000045,0.19886659999974654,None,,,,,,,,,,,,,,,,,,5720,1,2025-10-17_16h12.03.769,sm,2024.2.4,59.967138008263554,2025-10-17 16h12.15.988986 +0200,
42,0,42,,,,,,space,1.935981300000094,None,None,None,,,None,0,0,0,0,,,,,1,0,1,0,,,,,42,0,42,0,841.5390770000004,,,,,,,,,,,,,,,,,,,,,,,,,,,,,,,,,,,,,,,,,,,,,,,,,,,,,,,,,Teller,3.0583,841.5240757000001,841.5245700999994,841.5246770000003,841.5390770000004,844.6057737000001,844.5899789000005,844.5938754999997,844.6057737000001,844.6057737000001,844.6057737000001,844.6057737000001,846.6056674000001,846.6056674000001,846.6056674000001,846.6056674000001,846.5899768999998,None,,,None,,,,,,,,,,,,,,,,,,5720,1,2025-10-17_16h12.03.769,sm,2024.2.4,59.967138008263554,2025-10-17 16h12.15.988986 +0200,
43,0,43,,,,,,space,1.935981300000094,None,None,3,1.2391102999990835,0.25838910000129545,None,0,0,0,0,,,,,1,0,1,0,,,,,43,0,43,0,846.6056674000001,,,,,,,,,,,,,,,,,,,,,,,,,,,,,,,,,,,,,,,,,,,,,,,,,,,,,,,,,Lied,2.1264,846.5904289,846.5909278000008,846.5910333000002,846.6056674000001,848.7388213000004,848.723026300001,848.7266074000008,848.7388213000004,848.7388213000004,848.7388213000004,848.7388213000004,850.7391717,850.7391717,850.7391717,850.7391717,850.7229338999996,3,1.2391102999990835,0.25838910000129545,None,,,,,,,,,,,,,,,,,,5720,1,2025-10-17_16h12.03.769,sm,2024.2.4,59.967138008263554,2025-10-17 16h12.15.988986 +0200,
44,0,44,,,,,,space,1.935981300000094,None,None,3,1.268492299999707,0.25387680000130786,None,0,0,0,0,,,,,1,0,1,0,,,,,44,0,44,0,850.7391717,,,,,,,,,,,,,,,,,,,,,,,,,,,,,,,,,,,,,,,,,,,,,,,,,,,,,,,,,Puppe,3.147,850.7233528999996,850.7238702999994,850.7239574999994,850.7391717,853.8883670999994,853.8726145999999,853.8762484999997,853.8883670999994,853.8883670999994,853.8883670999994,853.8883670999994,855.8886315000009,855.8886315000009,855.8886315000009,855.8886315000009,855.8728335000005,3,1.268492299999707,0.25387680000130786,None,,,,,,,,,,,,,,,,,,5720,1,2025-10-17_16h12.03.769,sm,2024.2.4,59.967138008263554,2025-10-17 16h12.15.988986 +0200,
45,0,45,,,,,,space,1.935981300000094,None,None,3,1.2545356999999058,0.28319530000044324,None,0,0,0,0,,,,,1,0,1,0,,,,,45,0,45,0,855.8886315000009,,,,,,,,,,,,,,,,,,,,,,,,,,,,,,,,,,,,,,,,,,,,,,,,,,,,,,,,,Bild,2.5109,855.8733435999993,855.8738595000004,855.8739701000004,855.8886315000009,858.4047397000004,858.3894188999993,858.3940212999996,858.4047397000004,858.4047397000004,858.4047397000004,858.4047397000004,860.4049772999997,860.4049772999997,860.4049772999997,860.4049772999997,860.3892941999993,3,1.2545356999999058,0.28319530000044324,None,,,,,,,,,,,,,,,,,,5720,1,2025-10-17_16h12.03.769,sm,2024.2.4,59.967138008263554,2025-10-17 16h12.15.988986 +0200,
46,0,46,,,,,,space,1.935981300000094,None,None,2,1.2697766999990563,0.21643030000086583,None,0,0,0,0,,,,,1,0,1,0,,,,,46,0,46,0,860.4049772999997,,,,,,,,,,,,,,,,,,,,,,,,,,,,,,,,,,,,,,,,,,,,,,,,,,,,,,,,,Knöchel,3.3294,860.389799900001,860.3903111000009,860.3904195999994,860.4049772999997,863.7379222000009,863.7222914000004,863.7256086999996,863.7379222000009,863.7379222000009,863.7379222000009,863.7379222000009,865.7378873999996,865.7378873999996,865.7378873999996,865.7378873999996,865.7221457000005,2,1.2697766999990563,0.21643030000086583,None,,,,,,,,,,,,,,,,,,5720,1,2025-10-17_16h12.03.769,sm,2024.2.4,59.967138008263554,2025-10-17 16h12.15.988986 +0200,
47,0,47,,,,,,space,1.935981300000094,None,None,None,,,None,0,0,0,0,,,,,1,0,1,0,,,,,47,0,47,0,865.7378873999996,,,,,,,,,,,,,,,,,,,,,,,,,,,,,,,,,,,,,,,,,,,,,,,,,,,,,,,,,Maske,2.9994,865.722655300001,865.7231468,865.7232630000008,865.7378873999996,868.7374026000007,868.7218435000004,868.7252273999993,868.7374026000007,868.7374026000007,868.7374026000007,868.7374026000007,870.7377117999995,870.7377117999995,870.7377117999995,870.7377117999995,870.7220246000006,None,,,None,,,,,,,,,,,,,,,,,,5720,1,2025-10-17_16h12.03.769,sm,2024.2.4,59.967138008263554,2025-10-17 16h12.15.988986 +0200,
48,0,48,,,,,,space,1.935981300000094,None,None,2,0.8896733999990829,0.20189550000031886,None,0,0,0,0,,,,,1,0,1,0,,,,,48,0,48,0,870.7377117999995,,,,,,,,,,,,,,,,,,,,,,,,,,,,,,,,,,,,,,,,,,,,,,,,,,,,,,,,,Monster,3.1802,870.7224931999999,870.7232333000002,870.7233554000004,870.7377117999995,873.9205704000005,873.9049347999999,873.9083774000001,873.9205704000005,873.9205704000005,873.9205704000005,873.9205704000005,875.9205152000004,875.9205152000004,875.9205152000004,875.9205152000004,875.9049805000004,2,0.8896733999990829,0.20189550000031886,None,,,,,,,,,,,,,,,,,,5720,1,2025-10-17_16h12.03.769,sm,2024.2.4,59.967138008263554,2025-10-17 16h12.15.988986 +0200,
49,0,49,,,,,,space,1.935981300000094,None,None,3,1.0099890000001324,0.21504520000053162,None,0,0,0,0,,,,,1,0,1,0,,,,,49,0,49,0,875.9205152000004,,,,,,,,,,,,,,,,,,,,,,,,,,,,,,,,,,,,,,,,,,,,,,,,,,,,,,,,,Scheidung,2.2605,875.9054900000001,875.9059955000002,875.9061025000001,875.9205152000004,878.1873442000006,878.1715109999996,878.1757872000007,878.1873442000006,878.1873442000006,878.1873442000006,878.1873442000006,880.1871149999997,880.1871149999997,880.1871149999997,880.1871149999997,880.1714459000004,3,1.0099890000001324,0.21504520000053162,None,,,,,,,,,,,,,,,,,,5720,1,2025-10-17_16h12.03.769,sm,2024.2.4,59.967138008263554,2025-10-17 16h12.15.988986 +0200,
50,0,50,,,,,,space,1.935981300000094,None,None,3,0.7599165999999968,0.23139609999998356,None,0,0,0,0,,,,,1,0,1,0,,,,,50,0,50,0,880.1871149999997,,,,,,,,,,,,,,,,,,,,,,,,,,,,,,,,,,,,,,,,,,,,,,,,,,,,,,,,,Humor,2.5275,880.1719524999999,880.1724665000011,880.1725730999997,880.1871149999997,882.7198994,882.7044575999998,882.7077063999996,882.7198994,882.7198994,882.7198994,882.7198994,884.7200146000005,884.7200146000005,884.7200146000005,884.7200146000005,884.7046175999994,3,0.7599165999999968,0.23139609999998356,None,,,,,,,,,,,,,,,,,,5720,1,2025-10-17_16h12.03.769,sm,2024.2.4,59.967138008263554,2025-10-17 16h12.15.988986 +0200,
51,0,51,,,,,,space,1.935981300000094,None,None,3,0.8139264000001276,0.22466520000125456,None,0,0,0,0,,,,,1,0,1,0,,,,,51,0,51,0,884.7200146000005,,,,,,,,,,,,,,,,,,,,,,,,,,,,,,,,,,,,,,,,,,,,,,,,,,,,,,,,,Fahrrad,2.3381,884.7051397000005,884.7056447000004,884.7057582999996,884.7200146000005,887.0698789000007,887.0543948999994,887.0584372000003,887.0698789000007,887.0698789000007,887.0698789000007,887.0698789000007,889.0697307,889.0697307,889.0697307,889.0697307,889.0542242000001,3,0.8139264000001276,0.22466520000125456,None,,,,,,,,,,,,,,,,,,5720,1,2025-10-17_16h12.03.769,sm,2024.2.4,59.967138008263554,2025-10-17 16h12.15.988986 +0200,
52,0,52,,,,,,space,1.935981300000094,None,None,3,0.8793540999995457,0.21049909999965166,None,0,0,0,0,,,,,1,0,1,0,,,,,52,0,52,0,889.0697307,,,,,,,,,,,,,,,,,,,,,,,,,,,,,,,,,,,,,,,,,,,,,,,,,,,,,,,,,Zapfen,3.0725,889.0547302000004,889.0552436999997,889.0553528999999,889.0697307,892.1531091999996,892.1373683000011,892.1419942000002,892.1531091999996,892.1531091999996,892.1531091999996,892.1531091999996,894.1529359999995,894.1529359999995,894.1529359999995,894.1529359999995,894.1376725,3,0.8793540999995457,0.21049909999965166,None,,,,,,,,,,,,,,,,,,5720,1,2025-10-17_16h12.03.769,sm,2024.2.4,59.967138008263554,2025-10-17 16h12.15.988986 +0200,
53,0,53,,,,,,space,1.935981300000094,None,None,3,0.87788780000119,0.22398919999977807,None,0,0,0,0,,,,,1,0,1,0,,,,,53,0,53,0,894.1529359999995,,,,,,,,,,,,,,,,,,,,,,,,,,,,,,,,,,,,,,,,,,,,,,,,,,,,,,,,,Kino,2.3942,894.1382022999996,894.1387149000011,894.1388233999996,894.1529359999995,896.5527647000008,896.5369978000008,896.5404449000007,896.5527647000008,896.5527647000008,896.5527647000008,896.5527647000008,898.5523920000005,898.5523920000005,898.5523920000005,898.5523920000005,898.5373043999998,3,0.87788780000119,0.22398919999977807,None,,,,,,,,,,,,,,,,,,5720,1,2025-10-17_16h12.03.769,sm,2024.2.4,59.967138008263554,2025-10-17 16h12.15.988986 +0200,
54,0,54,,,,,,space,1.935981300000094,None,None,2,1.2418109999998705,0.2028690999995888,None,0,0,0,0,,,,,1,0,1,0,,,,,54,0,54,0,898.5523920000005,,,,,,,,,,,,,,,,,,,,,,,,,,,,,,,,,,,,,,,,,,,,,,,,,,,,,,,,,Gruppe,2.2915,898.5378165000011,898.5383401999998,898.5384457000009,898.5523920000005,900.8525328999995,900.8367741000011,900.8408401000006,900.8525328999995,900.8525328999995,900.8525328999995,900.8525328999995,902.8525099999997,902.8525099999997,902.8525099999997,902.8525099999997,902.8365715999998,2,1.2418109999998705,0.2028690999995888,None,,,,,,,,,,,,,,,,,,5720,1,2025-10-17_16h12.03.769,sm,2024.2.4,59.967138008263554,2025-10-17 16h12.15.988986 +0200,
55,0,55,,,,,,space,1.935981300000094,None,None,2,1.3331049000007624,0.2113772999982757,None,0,0,0,0,,,,,1,0,1,0,,,,,55,0,55,0,902.8525099999997,,,,,,,,,,,,,,,,,,,,,,,,,,,,,,,,,,,,,,,,,,,,,,,,,,,,,,,,,Turnerin,4.0471,902.837148900001,902.837682800001,902.8377977000009,902.8525099999997,906.9019615999996,906.8865758000002,906.8906668000009,906.9019615999996,906.9019615999996,906.9019615999996,906.9019615999996,908.901989500001,908.901989500001,908.901989500001,908.901989500001,908.886482500001,2,1.3331049000007624,0.2113772999982757,None,,,,,,,,,,,,,,,,,,5720,1,2025-10-17_16h12.03.769,sm,2024.2.4,59.967138008263554,2025-10-17 16h12.15.988986 +0200,
56,0,56,,,,,,space,1.935981300000094,None,None,3,1.608040199998868,0.2812861000002158,None,0,0,0,0,,,,,1,0,1,0,,,,,56,0,56,0,908.901989500001,,,,,,,,,,,,,,,,,,,,,,,,,,,,,,,,,,,,,,,,,,,,,,,,,,,,,,,,,Krieg,2.0068,908.8869905000001,908.8875037000007,908.8876121000003,908.901989500001,910.9185148999995,910.9026800000001,910.9060134000001,910.9185148999995,910.9185148999995,910.9185148999995,910.9185148999995,912.9189116999996,912.9189116999996,912.9189116999996,912.9189116999996,912.9028208000009,3,1.608040199998868,0.2812861000002158,None,,,,,,,,,,,,,,,,,,5720,1,2025-10-17_16h12.03.769,sm,2024.2.4,59.967138008263554,2025-10-17 16h12.15.988986 +0200,
57,0,57,,,,,,space,1.935981300000094,None,None,3,0.8798959999985527,0.2772584000013012,None,0,0,0,0,,,,,1,0,1,0,,,,,57,0,57,0,912.9189116999996,,,,,,,,,,,,,,,,,,,,,,,,,,,,,,,,,,,,,,,,,,,,,,,,,,,,,,,,,Kälte,2.1399,912.9033279999994,912.9038269000002,912.9039371000008,912.9189116999996,915.0683328999994,915.0527162000008,915.0560489000009,915.0683328999994,915.0683328999994,915.0683328999994,915.0683328999994,917.0682293,917.0682293,917.0682293,917.0682293,917.0527334999997,3,0.8798959999985527,0.2772584000013012,None,,,,,,,,,,,,,,,,,,5720,1,2025-10-17_16h12.03.769,sm,2024.2.4,59.967138008263554,2025-10-17 16h12.15.988986 +0200,
58,0,58,,,,,,space,1.935981300000094,None,None,3,0.9698167999995349,0.2713177000005089,None,0,0,0,0,,,,,1,0,1,0,,,,,58,0,58,0,917.0682293,,,,,,,,,,,,,,,,,,,,,,,,,,,,,,,,,,,,,,,,,,,,,,,,,,,,,,,,,Mappe,2.0889,917.0532243000007,917.0537429000005,917.0538533999998,917.0682293,919.1680996999994,919.1526213000006,919.1565531000006,919.1680996999994,919.1680996999994,919.1680996999994,919.1680996999994,921.1680588999998,921.1680588999998,921.1680588999998,921.1680588999998,921.1524220000001,3,0.9698167999995349,0.2713177000005089,None,,,,,,,,,,,,,,,,,,5720,1,2025-10-17_16h12.03.769,sm,2024.2.4,59.967138008263554,2025-10-17 16h12.15.988986 +0200,
59,0,59,,,,,,space,1.935981300000094,None,None,2,0.6502825999996276,0.21265739999944344,None,0,0,0,0,,,,,1,0,1,0,,,,,59,0,59,0,921.1680588999998,,,,,,,,,,,,,,,,,,,,,,,,,,,,,,,,,,,,,,,,,,,,,,,,,,,,,,,,,Familie,2.596,921.1528764000004,921.1533633000008,921.1534679000006,921.1680588999998,923.7678380999996,923.7521633999995,923.7566646000005,923.7678380999996,923.7678380999996,923.7678380999996,923.7678380999996,925.7678927999996,925.7678927999996,925.7678927999996,925.7678927999996,925.7521530999993,2,0.6502825999996276,0.21265739999944344,None,,,,,,,,,,,,,,,,,,5720,1,2025-10-17_16h12.03.769,sm,2024.2.4,59.967138008263554,2025-10-17 16h12.15.988986 +0200,
60,0,60,,,,,,space,1.935981300000094,None,None,3,0.7687810000006721,0.2523723999984213,None,0,0,0,0,,,,,1,0,1,0,,,,,60,0,60,0,925.7678927999996,,,,,,,,,,,,,,,,,,,,,,,,,,,,,,,,,,,,,,,,,,,,,,,,,,,,,,,,,Tee,3.4827,925.7526542000005,925.7534126,925.7535317000011,925.7678927999996,929.2516421000009,929.2350940000006,929.2383782999996,929.2516421000009,929.2516421000009,929.2516421000009,929.2516421000009,931.2506985000009,931.2506985000009,931.2506985000009,931.2506985000009,931.2354991000002,3,0.7687810000006721,0.2523723999984213,None,,,,,,,,,,,,,,,,,,5720,1,2025-10-17_16h12.03.769,sm,2024.2.4,59.967138008263554,2025-10-17 16h12.15.988986 +0200,
61,0,61,,,,,,space,1.935981300000094,None,None,3,0.782118499999342,0.24032989999977872,None,0,0,0,0,,,,,1,0,1,0,,,,,61,0,61,0,931.2506985000009,,,,,,,,,,,,,,,,,,,,,,,,,,,,,,,,,,,,,,,,,,,,,,,,,,,,,,,,,Wahrheit,3.5354,931.2360039999994,931.2365180999996,931.2366262999994,931.2506985000009,934.8004059999994,934.7845509000008,934.7879882000007,934.8004059999994,934.8004059999994,934.8004059999994,934.8004059999994,936.8003923999995,936.8003923999995,936.8003923999995,936.8003923999995,936.7847632000003,3,0.782118499999342,0.24032989999977872,None,,,,,,,,,,,,,,,,,,5720,1,2025-10-17_16h12.03.769,sm,2024.2.4,59.967138008263554,2025-10-17 16h12.15.988986 +0200,
62,0,62,,,,,,space,1.935981300000094,None,None,None,,,None,0,0,0,0,,,,,1,0,1,0,,,,,62,0,62,0,936.8003923999995,,,,,,,,,,,,,,,,,,,,,,,,,,,,,,,,,,,,,,,,,,,,,,,,,,,,,,,,,Sterne,2.8387,936.7852656000005,936.7859090000011,936.7860159000002,936.8003923999995,939.650099200001,939.6346540999994,939.6388632999997,939.650099200001,939.650099200001,939.650099200001,939.650099200001,941.6500814000001,941.6500814000001,941.6500814000001,941.6500814000001,941.6345267999995,None,,,None,,,,,,,,,,,,,,,,,,5720,1,2025-10-17_16h12.03.769,sm,2024.2.4,59.967138008263554,2025-10-17 16h12.15.988986 +0200,
63,0,63,,,,,,space,1.935981300000094,None,None,3,0.6951659000005748,0.22204400000009628,None,0,0,0,0,,,,,1,0,1,0,,,,,63,0,63,0,941.6500814000001,,,,,,,,,,,,,,,,,,,,,,,,,,,,,,,,,,,,,,,,,,,,,,,,,,,,,,,,,Vergangenheit,3.2428,941.635014800001,941.6355520999996,941.6356645000005,941.6500814000001,944.8999224999998,944.8843100999993,944.8887807000001,944.8999224999998,944.8999224999998,944.8999224999998,944.8999224999998,946.9000014000003,946.9000014000003,946.9000014000003,946.9000014000003,946.8843879000005,3,0.6951659000005748,0.22204400000009628,None,,,,,,,,,,,,,,,,,,5720,1,2025-10-17_16h12.03.769,sm,2024.2.4,59.967138008263554,2025-10-17 16h12.15.988986 +0200,
