thisN,thisTrialN,thisRepN,Cue,Target,Mediator1,Mediator2,iti,scanner_ready_press.keys,scanner_ready_press.rt,scanner_ready_press.duration,skip_trigger.keys,living_nonliving.keys,living_nonliving.rt,living_nonliving.duration,end_mapping.keys,blocks.thisRepN,blocks.thisTrialN,blocks.thisN,blocks.thisIndex,load_and_shuffle.thisRepN,load_and_shuffle.thisTrialN,load_and_shuffle.thisN,load_and_shuffle.thisIndex,runs.thisRepN,runs.thisTrialN,runs.thisN,runs.thisIndex,iti_loading_loop.thisRepN,iti_loading_loop.thisTrialN,iti_loading_loop.thisN,iti_loading_loop.thisIndex,semantic_mapping_run.thisRepN,semantic_mapping_run.thisTrialN,semantic_mapping_run.thisN,semantic_mapping_run.thisIndex,thisRow.t,notes,welcome.started,welcome_text.started,welcome_text.stopped,welcome.stopped,scout.started,scout_text.started,key_resp.started,scout.stopped,key_resp.keys,key_resp.rt,key_resp.duration,instructions_semantic_mapping1.started,sm_instructions1_text.started,sm_instructions1_key.started,instructions_semantic_mapping1.stopped,sm_instructions1_key.keys,sm_instructions1_key.rt,sm_instructions1_key.duration,instructions_semantic_mapping2.started,sm_instructions2_text.started,sm_instructions2_key.started,instructions_semantic_mapping2.stopped,sm_instructions2_key.keys,sm_instructions2_key.rt,sm_instructions2_key.duration,reset_run.started,reset_run.stopped,shuffle_items.started,shuffle_items.stopped,set_up_runs.started,set_up_runs.stopped,load_iti.started,load_iti.stopped,prep_scanner.started,scanner_ready_press.started,ready_set_text.started,prep_scanner.stopped,runs.scanner_ready_press.keys,runs.scanner_ready_press.rt,runs.scanner_ready_press.duration,wait_for_trigger.started,starting_soon.started,skip_trigger.started,wait_for_trigger.stopped,runs.skip_trigger.keys,blank.started,begin_end_run_cross.started,sound_1.started,sound_1.stopped,sound_2.started,sound_2.stopped,begin_end_run_cross.stopped,blank.stopped,CurrentItem,CurrentITI,set_up_trial.started,set_up_trial.stopped,sm_iti.started,iti_cross.started,iti_cross.stopped,sm_iti.stopped,item.started,living_nonliving.started,end_mapping.started,living_nonliving_text.started,semantic_map_item.started,living_nonliving.stopped,end_mapping.stopped,living_nonliving_text.stopped,semantic_map_item.stopped,item.stopped,semantic_mapping_run.living_nonliving.keys,semantic_mapping_run.living_nonliving.rt,semantic_mapping_run.living_nonliving.duration,semantic_mapping_run.end_mapping.keys,fieldmap.started,fieldmap.stopped,runs.fm_key.keys,task_break.started,feeback_text.started,task_break_text.started,task_break_resp.started,feeback_text.stopped,task_break.stopped,runs.task_break_resp.keys,runs.task_break_resp.rt,runs.task_break_resp.duration,fm_text.started,fm_key.started,runs.fm_key.rt,runs.fm_key.duration,thanks.started,thanks_text.started,thanks_text.stopped,thanks.stopped,PID,MRI,date,expName,psychopyVersion,frameRate,expStart,
,,,,,,,,,,,,,,,,,,,,,,,,,,,,,,,,,,,,,,0.003470099998594378,0.01145369999903778,3.0110139999997045,2.995932799998627,,,,,,,,,,,,,,,,,,,,,,,,,,,,,,,,,,,,,,,,,,,,,,,,,,,,,,,,,,,,,,,,,,,,,,,,,,,,,,,,,,,,,,,,,,,,5613,1,2025-06-04_19h01.43.631,sm,2024.2.4,60.03172076080684,2025-06-04 19h01.58.366524 +0200,
,,,,,,,,,,,,,,,,,,,,,,,,,,,,,,,,,,,,,,,,,,2.9959879999987606,3.0110139999997045,3.0110139999997045,352.7812049999993,space,349.76051430000007,None,,,,,,,,,,,,,,,,,,,,,,,,,,,,,,,,,,,,,,,,,,,,,,,,,,,,,,,,,,,,,,,,,,,,,,,,,,,,,,,,,,,,,5613,1,2025-06-04_19h01.43.631,sm,2024.2.4,60.03172076080684,2025-06-04 19h01.58.366524 +0200,
,,,,,,,,,,,,,,,,,,,,,,,,,,,,,,,,,,,,,,,,,,,,,,,,,352.78129479999916,352.79049829999894,352.79049829999894,367.17408199999954,3,14.370431100000133,None,,,,,,,,,,,,,,,,,,,,,,,,,,,,,,,,,,,,,,,,,,,,,,,,,,,,,,,,,,,,,,,,,,,,,,,,,,,,,,5613,1,2025-06-04_19h01.43.631,sm,2024.2.4,60.03172076080684,2025-06-04 19h01.58.366524 +0200,
,,,,,,,,,,,,,,,,,,,,,,,,,,,,,,,,,,,,,,,,,,,,,,,,,,,,,,,,367.17412739999963,367.1900029999997,367.1900029999997,372.7411541999991,3,5.5389954000002035,None,,,,,,,,,,,,,,,,,,,,,,,,,,,,,,,,,,,,,,,,,,,,,,,,,,,,,,,,,,,,,,,,,,,,,,,5613,1,2025-06-04_19h01.43.631,sm,2024.2.4,60.03172076080684,2025-06-04 19h01.58.366524 +0200,
0,0,0,Schuh,Stiefel,Fuß,Schnürsenkel,4.5524,space,3.2489609999993263,None,None,2,1.2688226999998733,0.23138449999896693,None,0,0,0,0,0,79,79,50,0,0,0,0,0,79,79,10,0,0,0,0,434.2025857999997,,,,,,,,,,,,,,,,,,,,,,,,,,,372.7420177999993,372.74239449999914,372.8051698999989,372.8053326999998,372.8119508999989,372.8121339999998,372.83783479999875,372.8380467999996,372.84700220000013,372.850925499999,372.850925499999,376.10676649999914,space,3.2489609999993263,None,376.1069066,376.12348629999906,376.12348629999906,422.18762009999955,None,422.1926134999994,422.20285049999984,422.2035798666659,423.4203617999992,432.20269416666656,433.2034592,434.2025857999997,434.1861209999988,Garten,4.5524,434.1867302999999,434.18693339999845,434.18833149999955,434.2025857999997,438.7689759999994,438.7527207999992,438.75502830000005,438.7689759999994,438.7689759999994,438.7689759999994,438.7689759999994,440.7685781,440.7685781,440.7685781,440.7685781,440.75234719999935,2,1.2688226999998733,0.23138449999896693,None,,,,,,,,,,,,,,,,,,,,,5613,1,2025-06-04_19h01.43.631,sm,2024.2.4,60.03172076080684,2025-06-04 19h01.58.366524 +0200,
1,0,1,,,,,,space,3.2489609999993263,None,None,3,0.8041245000003983,0.2272726999999577,None,0,0,0,0,,,,,0,0,0,0,,,,,1,0,1,0,440.7685781,,,,,,,,,,,,,,,,,,,,,,,,,,,,,,,,,,,,,,,,,,,,,,,,,,,,,,,Weltraum,2.1697,440.75253519999933,440.7526980999992,440.752736299999,440.7685781,442.95179519999874,442.9357072999992,442.93729209999947,442.95179519999874,442.95179519999874,442.95179519999874,442.95179519999874,444.95160699999906,444.95160699999906,444.95160699999906,444.95160699999906,444.93552420000015,3,0.8041245000003983,0.2272726999999577,None,,,,,,,,,,,,,,,,,,,,,5613,1,2025-06-04_19h01.43.631,sm,2024.2.4,60.03172076080684,2025-06-04 19h01.58.366524 +0200,
2,0,2,,,,,,space,3.2489609999993263,None,None,3,0.7522740000003978,0.24233490000005986,None,0,0,0,0,,,,,0,0,0,0,,,,,2,0,2,0,444.95160699999906,,,,,,,,,,,,,,,,,,,,,,,,,,,,,,,,,,,,,,,,,,,,,,,,,,,,,,,Maske,2.83,444.93571669999983,444.9359341999989,444.93598219999876,444.95160699999906,447.7847865999993,447.7684974999993,447.7703215999991,447.7847865999993,447.7847865999993,447.7847865999993,447.7847865999993,,,,,449.7691049999994,3,0.7522740000003978,0.24233490000005986,None,,,,,,,,,,,,,,,,,,,,,5613,1,2025-06-04_19h01.43.631,sm,2024.2.4,60.03172076080684,2025-06-04 19h01.58.366524 +0200,
3,0,3,,,,,,space,3.2489609999993263,None,None,3,0.9632585999988805,0.28729850000127044,None,0,0,0,0,,,,,0,0,0,0,,,,,3,0,3,0,449.78581379999923,,,,,,,,,,,,,,,,,,,,,,,,,,,,,,,,,,,,,,,,,,,,,,,,,,,,,,,Ostern,3.6564,449.7696406999985,449.77006280000023,449.77015989999927,449.78581379999923,453.4526533999997,453.43608010000025,453.4429154999998,453.4526533999997,453.4526533999997,453.4526533999997,453.4526533999997,455.45196119999855,455.45196119999855,455.45196119999855,455.45196119999855,455.43631300000015,3,0.9632585999988805,0.28729850000127044,None,,,,,,,,,,,,,,,,,,,,,5613,1,2025-06-04_19h01.43.631,sm,2024.2.4,60.03172076080684,2025-06-04 19h01.58.366524 +0200,
4,0,4,,,,,,space,3.2489609999993263,None,None,3,1.0322400000004563,0.2473840000002383,None,0,0,0,0,,,,,0,0,0,0,,,,,4,0,4,0,455.45196119999855,,,,,,,,,,,,,,,,,,,,,,,,,,,,,,,,,,,,,,,,,,,,,,,,,,,,,,,Foto,2.0842,455.4367893999988,455.4371476999986,455.4372442999993,455.45196119999855,457.5509425,457.5348428999987,457.53720219999923,457.5509425,457.5509425,457.5509425,457.5509425,,,,,459.5351297999987,3,1.0322400000004563,0.2473840000002383,None,,,,,,,,,,,,,,,,,,,,,5613,1,2025-06-04_19h01.43.631,sm,2024.2.4,60.03172076080684,2025-06-04 19h01.58.366524 +0200,
5,0,5,,,,,,space,3.2489609999993263,None,None,3,0.9079500999996526,0.25215320000097563,None,0,0,0,0,,,,,0,0,0,0,,,,,5,0,5,0,459.55144299999847,,,,,,,,,,,,,,,,,,,,,,,,,,,,,,,,,,,,,,,,,,,,,,,,,,,,,,,Geheimnis,2.3419,459.5356649999994,459.5362925999998,459.5363935999994,459.55144299999847,461.90108019999934,461.8852737999987,461.8891004999987,461.90108019999934,461.90108019999934,461.90108019999934,461.90108019999934,463.9020514999993,463.9020514999993,463.9020514999993,463.9020514999993,463.8856390000001,3,0.9079500999996526,0.25215320000097563,None,,,,,,,,,,,,,,,,,,,,,5613,1,2025-06-04_19h01.43.631,sm,2024.2.4,60.03172076080684,2025-06-04 19h01.58.366524 +0200,
6,0,6,,,,,,space,3.2489609999993263,None,None,3,0.8749521999998251,0.25031549999948766,None,0,0,0,0,,,,,0,0,0,0,,,,,6,0,6,0,463.9020514999993,,,,,,,,,,,,,,,,,,,,,,,,,,,,,,,,,,,,,,,,,,,,,,,,,,,,,,,Lernen,2.7378,463.88595689999966,463.88642789999903,463.8864959000002,463.9020514999993,466.6503593999987,466.6341126999996,466.6357011,466.6503593999987,466.6503593999987,466.6503593999987,466.6503593999987,,,,,468.6350539999985,3,0.8749521999998251,0.25031549999948766,None,,,,,,,,,,,,,,,,,,,,,5613,1,2025-06-04_19h01.43.631,sm,2024.2.4,60.03172076080684,2025-06-04 19h01.58.366524 +0200,
7,0,7,,,,,,space,3.2489609999993263,None,None,3,1.0300989000006666,0.23140190000049188,None,0,0,0,0,,,,,0,0,0,0,,,,,7,0,7,0,468.651490799999,,,,,,,,,,,,,,,,,,,,,,,,,,,,,,,,,,,,,,,,,,,,,,,,,,,,,,,Dunkelheit,3.2825,468.6357387999997,468.63626589999876,468.636366499999,468.651490799999,471.9336452999996,471.91823639999893,471.9222957999991,471.9336452999996,471.9336452999996,471.9336452999996,471.9336452999996,473.93427939999856,473.93427939999856,473.93427939999856,473.93427939999856,473.91846069999883,3,1.0300989000006666,0.23140190000049188,None,,,,,,,,,,,,,,,,,,,,,5613,1,2025-06-04_19h01.43.631,sm,2024.2.4,60.03172076080684,2025-06-04 19h01.58.366524 +0200,
8,0,8,,,,,,space,3.2489609999993263,None,None,2,0.7503338999995322,0.21344320000025618,None,0,0,0,0,,,,,0,0,0,0,,,,,8,0,8,0,473.93427939999856,,,,,,,,,,,,,,,,,,,,,,,,,,,,,,,,,,,,,,,,,,,,,,,,,,,,,,,Schaf,4.4429,473.9189824999994,473.9193188999998,473.91942500000005,473.93427939999856,478.3830263999989,478.3670239999992,478.36886479999885,478.3830263999989,478.3830263999989,478.3830263999989,478.3830263999989,,,,,480.3673891999988,2,0.7503338999995322,0.21344320000025618,None,,,,,,,,,,,,,,,,,,,,,5613,1,2025-06-04_19h01.43.631,sm,2024.2.4,60.03172076080684,2025-06-04 19h01.58.366524 +0200,
9,0,9,,,,,,space,3.2489609999993263,None,None,2,1.1250166000008903,0.22041729999909876,None,0,0,0,0,,,,,0,0,0,0,,,,,9,0,9,0,480.38386589999936,,,,,,,,,,,,,,,,,,,,,,,,,,,,,,,,,,,,,,,,,,,,,,,,,,,,,,,Vampir,3.8592,480.36785880000025,480.36826909999945,480.3683726999989,480.38386589999936,484.2503765999991,484.2345250999988,484.2406093999998,484.2503765999991,484.2503765999991,484.2503765999991,484.2503765999991,486.2498448999995,486.2498448999995,486.2498448999995,486.2498448999995,486.2335707000002,2,1.1250166000008903,0.22041729999909876,None,,,,,,,,,,,,,,,,,,,,,5613,1,2025-06-04_19h01.43.631,sm,2024.2.4,60.03172076080684,2025-06-04 19h01.58.366524 +0200,
10,0,10,,,,,,space,3.2489609999993263,None,None,2,1.1835399999999936,0.19049570000061067,None,0,0,0,0,,,,,0,0,0,0,,,,,10,0,10,0,486.2498448999995,,,,,,,,,,,,,,,,,,,,,,,,,,,,,,,,,,,,,,,,,,,,,,,,,,,,,,,Weinen,2.9109,486.2339592999997,486.2342074999997,486.2342592999994,486.2498448999995,489.16657339999983,489.1509111999985,489.15475890000016,489.16657339999983,489.16657339999983,489.16657339999983,489.16657339999983,491.1657424999994,491.1657424999994,491.1657424999994,491.1657424999994,491.14972169999965,2,1.1835399999999936,0.19049570000061067,None,,,,,,,,,,,,,,,,,,,,,5613,1,2025-06-04_19h01.43.631,sm,2024.2.4,60.03172076080684,2025-06-04 19h01.58.366524 +0200,
11,0,11,,,,,,space,3.2489609999993263,None,None,3,1.6888779000000795,0.20055820000015956,None,0,0,0,0,,,,,0,0,0,0,,,,,11,0,11,0,491.1657424999994,,,,,,,,,,,,,,,,,,,,,,,,,,,,,,,,,,,,,,,,,,,,,,,,,,,,,,,Büro,4.5959,491.14990359999865,491.1500656999997,491.15010540000003,491.1657424999994,495.76545709999846,495.7491355000002,495.75051969999913,495.76545709999846,495.76545709999846,495.76545709999846,495.76545709999846,497.76569310000014,497.76569310000014,497.76569310000014,497.76569310000014,497.74935959999857,3,1.6888779000000795,0.20055820000015956,None,,,,,,,,,,,,,,,,,,,,,5613,1,2025-06-04_19h01.43.631,sm,2024.2.4,60.03172076080684,2025-06-04 19h01.58.366524 +0200,
12,0,12,,,,,,space,3.2489609999993263,None,None,3,1.2113016999992396,0.21934980000150972,None,0,0,0,0,,,,,0,0,0,0,,,,,12,0,12,0,497.76569310000014,,,,,,,,,,,,,,,,,,,,,,,,,,,,,,,,,,,,,,,,,,,,,,,,,,,,,,,Kaffee,2.4167,497.7496222999998,497.7498464,497.74990199999957,497.76569310000014,500.1832376000002,500.1672483000002,500.17353339999863,500.1832376000002,500.1832376000002,500.1832376000002,500.1832376000002,,,,,502.18215149999924,3,1.2113016999992396,0.21934980000150972,None,,,,,,,,,,,,,,,,,,,,,5613,1,2025-06-04_19h01.43.631,sm,2024.2.4,60.03172076080684,2025-06-04 19h01.58.366524 +0200,
13,0,13,,,,,,space,3.2489609999993263,None,None,2,0.9326925999994273,0.19856890000119165,None,0,0,0,0,,,,,0,0,0,0,,,,,13,0,13,0,502.1985578999993,,,,,,,,,,,,,,,,,,,,,,,,,,,,,,,,,,,,,,,,,,,,,,,,,,,,,,,Dorn,2.1413,502.182337799999,502.18261600000005,502.1826607999992,502.1985578999993,504.3493063999995,504.3336825999995,504.3371279999992,504.3493063999995,504.3493063999995,504.3493063999995,504.3493063999995,506.3492499999993,506.3492499999993,506.3492499999993,506.3492499999993,506.3333595999993,2,0.9326925999994273,0.19856890000119165,None,,,,,,,,,,,,,,,,,,,,,5613,1,2025-06-04_19h01.43.631,sm,2024.2.4,60.03172076080684,2025-06-04 19h01.58.366524 +0200,
14,0,14,,,,,,space,3.2489609999993263,None,None,3,0.9607160999985354,0.2523608999999851,None,0,0,0,0,,,,,0,0,0,0,,,,,14,0,14,0,506.3492499999993,,,,,,,,,,,,,,,,,,,,,,,,,,,,,,,,,,,,,,,,,,,,,,,,,,,,,,,Fahrrad,2.7992,506.33385819999967,506.3342868999989,506.33438659999956,506.3492499999993,509.148554899999,509.1319703999998,509.1338664999985,509.148554899999,509.148554899999,509.148554899999,509.148554899999,,,,,511.132445199999,3,0.9607160999985354,0.2523608999999851,None,,,,,,,,,,,,,,,,,,,,,5613,1,2025-06-04_19h01.43.631,sm,2024.2.4,60.03172076080684,2025-06-04 19h01.58.366524 +0200,
15,0,15,,,,,,space,3.2489609999993263,None,None,3,1.0864214000011998,0.2034334999989369,None,0,0,0,0,,,,,0,0,0,0,,,,,15,0,15,0,511.14859179999985,,,,,,,,,,,,,,,,,,,,,,,,,,,,,,,,,,,,,,,,,,,,,,,,,,,,,,,Atem,2.7584,511.1329268999998,511.13331579999976,511.13341690000016,511.14859179999985,513.9149197999996,513.8986585000002,513.9000102999998,513.9149197999996,513.9149197999996,513.9149197999996,513.9149197999996,,,,,515.8993463999996,3,1.0864214000011998,0.2034334999989369,None,,,,,,,,,,,,,,,,,,,,,5613,1,2025-06-04_19h01.43.631,sm,2024.2.4,60.03172076080684,2025-06-04 19h01.58.366524 +0200,
16,0,16,,,,,,space,3.2489609999993263,None,None,2,0.7589213000010204,0.21151060000011057,None,0,0,0,0,,,,,0,0,0,0,,,,,16,0,16,0,515.9147481,,,,,,,,,,,,,,,,,,,,,,,,,,,,,,,,,,,,,,,,,,,,,,,,,,,,,,,Handwerker,5.1698,515.8998089999986,515.9002178999999,515.9003182999986,515.9147481,521.0978822999987,521.081271699999,521.0837514999985,521.0978822999987,521.0978822999987,521.0978822999987,521.0978822999987,523.0982054999986,523.0982054999986,523.0982054999986,523.0982054999986,523.0815516999992,2,0.7589213000010204,0.21151060000011057,None,,,,,,,,,,,,,,,,,,,,,5613,1,2025-06-04_19h01.43.631,sm,2024.2.4,60.03172076080684,2025-06-04 19h01.58.366524 +0200,
17,0,17,,,,,,space,3.2489609999993263,None,None,2,0.7169254000000365,0.19336219999968307,None,0,0,0,0,,,,,0,0,0,0,,,,,17,0,17,0,523.0982054999986,,,,,,,,,,,,,,,,,,,,,,,,,,,,,,,,,,,,,,,,,,,,,,,,,,,,,,,Fuß,2.9036,523.0817396999992,523.0819536999988,523.0820151999997,523.0982054999986,526.0141893999989,525.9986853999999,526.0000947999997,526.0141893999989,526.0141893999989,526.0141893999989,526.0141893999989,528.0147585999985,528.0147585999985,528.0147585999985,528.0147585999985,527.9981539,2,0.7169254000000365,0.19336219999968307,None,,,,,,,,,,,,,,,,,,,,,5613,1,2025-06-04_19h01.43.631,sm,2024.2.4,60.03172076080684,2025-06-04 19h01.58.366524 +0200,
18,0,18,,,,,,space,3.2489609999993263,None,None,2,0.6871395999987726,0.1695454000000609,None,0,0,0,0,,,,,0,0,0,0,,,,,18,0,18,0,528.0147585999985,,,,,,,,,,,,,,,,,,,,,,,,,,,,,,,,,,,,,,,,,,,,,,,,,,,,,,,Hai,2.5519,527.9986486999987,527.9990839000002,527.9991931999994,528.0147585999985,530.5806225999986,530.5647835999989,530.5679676999989,530.5806225999986,530.5806225999986,530.5806225999986,530.5806225999986,532.5810692999985,532.5810692999985,532.5810692999985,532.5810692999985,532.5651861999995,2,0.6871395999987726,0.1695454000000609,None,,,,,,,,,,,,,,,,,,,,,5613,1,2025-06-04_19h01.43.631,sm,2024.2.4,60.03172076080684,2025-06-04 19h01.58.366524 +0200,
19,0,19,,,,,,space,3.2489609999993263,None,None,3,0.7655933999994886,0.21251160000065283,None,0,0,0,0,,,,,0,0,0,0,,,,,19,0,19,0,532.5810692999985,,,,,,,,,,,,,,,,,,,,,,,,,,,,,,,,,,,,,,,,,,,,,,,,,,,,,,,Mäher,2.3229,532.5656732999996,532.5662025000001,532.5663083999989,532.5810692999985,534.9134085999995,534.8971744999999,534.8995849999992,534.9134085999995,534.9134085999995,534.9134085999995,534.9134085999995,,,,,536.8973183999988,3,0.7655933999994886,0.21251160000065283,None,,,,,,,,,,,,,,,,,,,,,5613,1,2025-06-04_19h01.43.631,sm,2024.2.4,60.03172076080684,2025-06-04 19h01.58.366524 +0200,
20,0,20,,,,,,space,3.2489609999993263,None,None,2,1.0309433000002173,0.17548429999988002,None,0,0,0,0,,,,,0,0,0,0,,,,,20,0,20,0,536.9138227999993,,,,,,,,,,,,,,,,,,,,,,,,,,,,,,,,,,,,,,,,,,,,,,,,,,,,,,,Team,2.9645,536.8977720000003,536.8981709999989,536.8982716999999,536.9138227999993,539.8800728999995,539.8642728999985,539.8683614999991,539.8800728999995,539.8800728999995,539.8800728999995,539.8800728999995,541.8805673999996,541.8805673999996,541.8805673999996,541.8805673999996,541.8638586999987,2,1.0309433000002173,0.17548429999988002,None,,,,,,,,,,,,,,,,,,,,,5613,1,2025-06-04_19h01.43.631,sm,2024.2.4,60.03172076080684,2025-06-04 19h01.58.366524 +0200,
21,0,21,,,,,,space,3.2489609999993263,None,None,3,0.6733827000007295,0.2233859999996639,None,0,0,0,0,,,,,0,0,0,0,,,,,21,0,21,0,541.8805673999996,,,,,,,,,,,,,,,,,,,,,,,,,,,,,,,,,,,,,,,,,,,,,,,,,,,,,,,Wohnung,2.8516,541.8641377999993,541.864419399999,541.8644735999987,541.8805673999996,544.7475995999994,544.7315488999993,544.7343113999996,544.7475995999994,544.7475995999994,544.7475995999994,544.7475995999994,,,,,546.7471114999989,3,0.6733827000007295,0.2233859999996639,None,,,,,,,,,,,,,,,,,,,,,5613,1,2025-06-04_19h01.43.631,sm,2024.2.4,60.03172076080684,2025-06-04 19h01.58.366524 +0200,
22,0,22,,,,,,space,3.2489609999993263,None,None,2,0.7876779999987775,0.1775383000003785,None,0,0,0,0,,,,,0,0,0,0,,,,,22,0,22,0,546.763626599999,,,,,,,,,,,,,,,,,,,,,,,,,,,,,,,,,,,,,,,,,,,,,,,,,,,,,,,Zunge,2.1949,546.7473840000002,546.7478095999995,546.7478773999992,546.763626599999,548.9635539999999,548.9472236000001,548.9530340000001,548.9635539999999,548.9635539999999,548.9635539999999,548.9635539999999,,,,,550.9624401000001,2,0.7876779999987775,0.1775383000003785,None,,,,,,,,,,,,,,,,,,,,,5613,1,2025-06-04_19h01.43.631,sm,2024.2.4,60.03172076080684,2025-06-04 19h01.58.366524 +0200,
23,0,23,,,,,,space,3.2489609999993263,None,None,3,0.7105711000003794,0.2264842000004137,None,0,0,0,0,,,,,0,0,0,0,,,,,23,0,23,0,550.9790347999988,,,,,,,,,,,,,,,,,,,,,,,,,,,,,,,,,,,,,,,,,,,,,,,,,,,,,,,Nacht,3.0127,550.9628134999984,550.9631097000001,550.9631809000002,550.9790347999988,553.9961223999999,553.9807788999988,553.9832938999989,553.9961223999999,553.9961223999999,553.9961223999999,553.9961223999999,555.9960452999985,555.9960452999985,555.9960452999985,555.9960452999985,555.980344399999,3,0.7105711000003794,0.2264842000004137,None,,,,,,,,,,,,,,,,,,,,,5613,1,2025-06-04_19h01.43.631,sm,2024.2.4,60.03172076080684,2025-06-04 19h01.58.366524 +0200,
24,0,24,,,,,,space,3.2489609999993263,None,None,2,0.9441374000016367,0.18259349999971164,None,0,0,0,0,,,,,0,0,0,0,,,,,24,0,24,0,555.9960452999985,,,,,,,,,,,,,,,,,,,,,,,,,,,,,,,,,,,,,,,,,,,,,,,,,,,,,,,Anwalt,4.7208,555.9808268999986,555.9812820999996,555.9813794000002,555.9960452999985,560.7290099999991,560.7131559999998,560.7146653999989,560.7290099999991,560.7290099999991,560.7290099999991,560.7290099999991,562.7290373999986,562.7290373999986,562.7290373999986,562.7290373999986,562.713117199999,2,0.9441374000016367,0.18259349999971164,None,,,,,,,,,,,,,,,,,,,,,5613,1,2025-06-04_19h01.43.631,sm,2024.2.4,60.03172076080684,2025-06-04 19h01.58.366524 +0200,
25,0,25,,,,,,space,3.2489609999993263,None,None,3,1.1133176000003004,0.2134200000000419,None,0,0,0,0,,,,,0,0,0,0,,,,,25,0,25,0,562.7290373999986,,,,,,,,,,,,,,,,,,,,,,,,,,,,,,,,,,,,,,,,,,,,,,,,,,,,,,,Skizze,2.4916,562.7136137999987,562.7140878999999,562.7141861,562.7290373999986,565.2282748999987,565.2119321999999,565.2136523999998,565.2282748999987,565.2282748999987,565.2282748999987,565.2282748999987,567.2279712999989,567.2279712999989,567.2279712999989,567.2279712999989,567.2116736999997,3,1.1133176000003004,0.2134200000000419,None,,,,,,,,,,,,,,,,,,,,,5613,1,2025-06-04_19h01.43.631,sm,2024.2.4,60.03172076080684,2025-06-04 19h01.58.366524 +0200,
26,0,26,,,,,,space,3.2489609999993263,None,None,3,0.965652200000477,0.23539189999974042,None,0,0,0,0,,,,,0,0,0,0,,,,,26,0,26,0,567.2279712999989,,,,,,,,,,,,,,,,,,,,,,,,,,,,,,,,,,,,,,,,,,,,,,,,,,,,,,,Erbe,3.6723,567.2118690999996,567.2120653000002,567.2121127999999,567.2279712999989,570.9120051999998,570.8962670000001,570.9008109999995,570.9120051999998,570.9120051999998,570.9120051999998,570.9120051999998,572.9125982999994,572.9125982999994,572.9125982999994,572.9125982999994,572.8958957999985,3,0.965652200000477,0.23539189999974042,None,,,,,,,,,,,,,,,,,,,,,5613,1,2025-06-04_19h01.43.631,sm,2024.2.4,60.03172076080684,2025-06-04 19h01.58.366524 +0200,
27,0,27,,,,,,space,3.2489609999993263,None,None,3,0.9101066999992327,0.251308799999606,None,0,0,0,0,,,,,0,0,0,0,,,,,27,0,27,0,572.9125982999994,,,,,,,,,,,,,,,,,,,,,,,,,,,,,,,,,,,,,,,,,,,,,,,,,,,,,,,Schlamm,2.3006,572.8962914999993,572.8967089999987,572.8967950999995,572.9125982999994,575.2274579999994,575.2130034999991,575.2173272,575.2274579999994,575.2274579999994,575.2274579999994,575.2274579999994,577.2279050999987,577.2279050999987,577.2279050999987,577.2279050999987,577.2119091999994,3,0.9101066999992327,0.251308799999606,None,,,,,,,,,,,,,,,,,,,,,5613,1,2025-06-04_19h01.43.631,sm,2024.2.4,60.03172076080684,2025-06-04 19h01.58.366524 +0200,
28,0,28,,,,,,space,3.2489609999993263,None,None,3,0.9170212000008178,0.229374699998516,None,0,0,0,0,,,,,0,0,0,0,,,,,28,0,28,0,577.2279050999987,,,,,,,,,,,,,,,,,,,,,,,,,,,,,,,,,,,,,,,,,,,,,,,,,,,,,,,Nummer,5.3463,577.2121148999995,577.2123433999986,577.212424899999,577.2279050999987,582.5775548000001,582.5618746,582.5653846999994,582.5775548000001,582.5775548000001,582.5775548000001,582.5775548000001,584.5769836,584.5769836,584.5769836,584.5769836,584.5618345000003,3,0.9170212000008178,0.229374699998516,None,,,,,,,,,,,,,,,,,,,,,5613,1,2025-06-04_19h01.43.631,sm,2024.2.4,60.03172076080684,2025-06-04 19h01.58.366524 +0200,
29,0,29,,,,,,space,3.2489609999993263,None,None,2,0.6826995999999781,0.22040750000087428,None,0,0,0,0,,,,,0,0,0,0,,,,,29,0,29,0,584.5769836,,,,,,,,,,,,,,,,,,,,,,,,,,,,,,,,,,,,,,,,,,,,,,,,,,,,,,,Freund,2.3362,584.5624043999997,584.562914099999,584.5630141000001,584.5769836,586.9270925000001,586.9115282999992,586.9142453999993,586.9270925000001,586.9270925000001,586.9270925000001,586.9270925000001,588.9277662999993,588.9277662999993,588.9277662999993,588.9277662999993,588.9115122999992,2,0.6826995999999781,0.22040750000087428,None,,,,,,,,,,,,,,,,,,,,,5613,1,2025-06-04_19h01.43.631,sm,2024.2.4,60.03172076080684,2025-06-04 19h01.58.366524 +0200,
30,0,30,,,,,,space,3.2489609999993263,None,None,3,0.8556145000002289,0.23138269999981276,None,0,0,0,0,,,,,0,0,0,0,,,,,30,0,30,0,588.9277662999993,,,,,,,,,,,,,,,,,,,,,,,,,,,,,,,,,,,,,,,,,,,,,,,,,,,,,,,Kapitel,4.3942,588.9119914999992,588.9124290999989,588.912531,588.9277662999993,593.327328899999,593.3115923999994,593.3152359999985,593.327328899999,593.327328899999,593.327328899999,593.327328899999,595.3268085999989,595.3268085999989,595.3268085999989,595.3268085999989,595.3107046999994,3,0.8556145000002289,0.23138269999981276,None,,,,,,,,,,,,,,,,,,,,,5613,1,2025-06-04_19h01.43.631,sm,2024.2.4,60.03172076080684,2025-06-04 19h01.58.366524 +0200,
31,0,31,,,,,,space,3.2489609999993263,None,None,3,0.6957978000009462,0.22437619999982417,None,0,0,0,0,,,,,0,0,0,0,,,,,31,0,31,0,595.3268085999989,,,,,,,,,,,,,,,,,,,,,,,,,,,,,,,,,,,,,,,,,,,,,,,,,,,,,,,Datei,2.2129,595.3110462999994,595.3112664,595.3113228000002,595.3268085999989,597.5435547999987,597.5271752999997,597.5287257,597.5435547999987,597.5435547999987,597.5435547999987,597.5435547999987,599.5439066999988,599.5439066999988,599.5439066999988,599.5439066999988,599.5275758999996,3,0.6957978000009462,0.22437619999982417,None,,,,,,,,,,,,,,,,,,,,,5613,1,2025-06-04_19h01.43.631,sm,2024.2.4,60.03172076080684,2025-06-04 19h01.58.366524 +0200,
32,0,32,,,,,,space,3.2489609999993263,None,None,3,0.7844066999987263,0.2382781000014802,None,0,0,0,0,,,,,0,0,0,0,,,,,32,0,32,0,599.5439066999988,,,,,,,,,,,,,,,,,,,,,,,,,,,,,,,,,,,,,,,,,,,,,,,,,,,,,,,Seife,2.1831,599.5280161999999,599.5284010999985,599.5284807999997,599.5439066999988,601.7265646999986,601.7103885999986,601.7121353000002,601.7265646999986,601.7265646999986,601.7265646999986,601.7265646999986,603.726678699999,603.726678699999,603.726678699999,603.726678699999,603.7105844999987,3,0.7844066999987263,0.2382781000014802,None,,,,,,,,,,,,,,,,,,,,,5613,1,2025-06-04_19h01.43.631,sm,2024.2.4,60.03172076080684,2025-06-04 19h01.58.366524 +0200,
33,0,33,,,,,,space,3.2489609999993263,None,None,3,0.7126952999988134,0.23945290000119712,None,0,0,0,0,,,,,0,0,0,0,,,,,33,0,33,0,603.726678699999,,,,,,,,,,,,,,,,,,,,,,,,,,,,,,,,,,,,,,,,,,,,,,,,,,,,,,,Fiktion,4.4767,603.7107836999985,603.7111417999986,603.7111819000002,603.726678699999,608.2097025999992,608.1936306999996,608.1977680999989,608.2097025999992,608.2097025999992,608.2097025999992,608.2097025999992,610.2090794999986,610.2090794999986,610.2090794999986,610.2090794999986,610.1931788999991,3,0.7126952999988134,0.23945290000119712,None,,,,,,,,,,,,,,,,,,,,,5613,1,2025-06-04_19h01.43.631,sm,2024.2.4,60.03172076080684,2025-06-04 19h01.58.366524 +0200,
34,0,34,,,,,,space,3.2489609999993263,None,None,3,0.8431242000006023,0.22730400000000373,None,0,0,0,0,,,,,0,0,0,0,,,,,34,0,34,0,610.2090794999986,,,,,,,,,,,,,,,,,,,,,,,,,,,,,,,,,,,,,,,,,,,,,,,,,,,,,,,Auto,3.6297,610.1933921,610.1936427,610.1937011999999,610.2090794999986,613.8422847000002,613.826126599999,613.8277844999993,613.8422847000002,613.8422847000002,613.8422847000002,613.8422847000002,,,,,615.8263527999989,3,0.8431242000006023,0.22730400000000373,None,,,,,,,,,,,,,,,,,,,,,5613,1,2025-06-04_19h01.43.631,sm,2024.2.4,60.03172076080684,2025-06-04 19h01.58.366524 +0200,
35,0,35,,,,,,space,3.2489609999993263,None,None,3,1.018200300000899,0.24031009999998787,None,0,0,0,0,,,,,0,0,0,0,,,,,35,0,35,0,615.8433764999991,,,,,,,,,,,,,,,,,,,,,,,,,,,,,,,,,,,,,,,,,,,,,,,,,,,,,,,Dip,2.8901,615.8268025999987,615.8272514,615.8273164000002,615.8433764999991,618.7424095999995,618.7266063999996,618.7295889999987,618.7424095999995,618.7424095999995,618.7424095999995,618.7424095999995,620.7431935999994,620.7431935999994,620.7431935999994,620.7431935999994,620.7273456999992,3,1.018200300000899,0.24031009999998787,None,,,,,,,,,,,,,,,,,,,,,5613,1,2025-06-04_19h01.43.631,sm,2024.2.4,60.03172076080684,2025-06-04 19h01.58.366524 +0200,
36,0,36,,,,,,space,3.2489609999993263,None,None,3,0.8099463999988075,0.23237429999971937,None,0,0,0,0,,,,,0,0,0,0,,,,,36,0,36,0,620.7431935999994,,,,,,,,,,,,,,,,,,,,,,,,,,,,,,,,,,,,,,,,,,,,,,,,,,,,,,,Kante,3.6438,620.7278468999993,620.7283275999998,620.7284244999992,620.7431935999994,624.3922114999987,624.3761601999995,624.3804633,624.3922114999987,624.3922114999987,624.3922114999987,624.3922114999987,626.3915043999987,626.3915043999987,626.3915043999987,626.3915043999987,626.3753572999995,3,0.8099463999988075,0.23237429999971937,None,,,,,,,,,,,,,,,,,,,,,5613,1,2025-06-04_19h01.43.631,sm,2024.2.4,60.03172076080684,2025-06-04 19h01.58.366524 +0200,
37,0,37,,,,,,space,3.2489609999993263,None,None,3,0.7662801999995281,0.27431719999913184,None,0,0,0,0,,,,,0,0,0,0,,,,,37,0,37,0,626.3915043999987,,,,,,,,,,,,,,,,,,,,,,,,,,,,,,,,,,,,,,,,,,,,,,,,,,,,,,,Gegenwart,3.4445,626.3755481999997,626.3757456999992,626.3757828999987,626.3915043999987,629.8411197999994,629.8247483999985,629.8262990999992,629.8411197999994,629.8411197999994,629.8411197999994,629.8411197999994,,,,,631.8255363999997,3,0.7662801999995281,0.27431719999913184,None,,,,,,,,,,,,,,,,,,,,,5613,1,2025-06-04_19h01.43.631,sm,2024.2.4,60.03172076080684,2025-06-04 19h01.58.366524 +0200,
38,0,38,,,,,,space,3.2489609999993263,None,None,2,0.9636172000009537,0.2204158999993524,None,0,0,0,0,,,,,0,0,0,0,,,,,38,0,38,0,631.8420064000002,,,,,,,,,,,,,,,,,,,,,,,,,,,,,,,,,,,,,,,,,,,,,,,,,,,,,,,Publikum,2.8863,631.825992099999,631.8266433999997,631.8267642999999,631.8420064000002,634.7419652999997,634.7265809,634.7343057999988,634.7419652999997,634.7419652999997,634.7419652999997,634.7419652999997,636.7414988,636.7414988,636.7414988,636.7414988,636.7252853999998,2,0.9636172000009537,0.2204158999993524,None,,,,,,,,,,,,,,,,,,,,,5613,1,2025-06-04_19h01.43.631,sm,2024.2.4,60.03172076080684,2025-06-04 19h01.58.366524 +0200,
39,0,39,,,,,,space,3.2489609999993263,None,None,3,0.7038059000005887,0.24733199999900535,None,0,0,0,0,,,,,0,0,0,0,,,,,39,0,39,0,636.7414988,,,,,,,,,,,,,,,,,,,,,,,,,,,,,,,,,,,,,,,,,,,,,,,,,,,,,,,Zimt,2.0031,636.7256711999999,636.7261192999995,636.7261999999992,636.7414988,638.7577913999994,638.741363699999,638.7437021999995,638.7577913999994,638.7577913999994,638.7577913999994,638.7577913999994,640.7581945000002,640.7581945000002,640.7581945000002,640.7581945000002,640.741494599999,3,0.7038059000005887,0.24733199999900535,None,,,,,,,,,,,,,,,,,,,,,5613,1,2025-06-04_19h01.43.631,sm,2024.2.4,60.03172076080684,2025-06-04 19h01.58.366524 +0200,
40,0,40,,,,,,space,3.2489609999993263,None,None,3,0.7983002000000852,0.25935349999963364,None,0,0,0,0,,,,,0,0,0,0,,,,,40,0,40,0,640.7581945000002,,,,,,,,,,,,,,,,,,,,,,,,,,,,,,,,,,,,,,,,,,,,,,,,,,,,,,,Gleis,3.6615,640.7420216999999,640.7423610999995,640.7424922999999,640.7581945000002,644.4247667999989,644.4082214999999,644.4114909999989,644.4247667999989,644.4247667999989,644.4247667999989,644.4247667999989,,,,,646.4084506999989,3,0.7983002000000852,0.25935349999963364,None,,,,,,,,,,,,,,,,,,,,,5613,1,2025-06-04_19h01.43.631,sm,2024.2.4,60.03172076080684,2025-06-04 19h01.58.366524 +0200,
41,0,41,,,,,,space,3.2489609999993263,None,None,2,0.7880399000005127,0.18554049999875133,None,0,0,0,0,,,,,0,0,0,0,,,,,41,0,41,0,646.4246936999989,,,,,,,,,,,,,,,,,,,,,,,,,,,,,,,,,,,,,,,,,,,,,,,,,,,,,,,Lehrer,2.1961,646.4090204999993,646.4095864999999,646.4097069,646.4246936999989,648.6240048,648.6089620000002,648.6131047999988,648.6240048,648.6240048,648.6240048,648.6240048,650.6234066999987,650.6234066999987,650.6234066999987,650.6234066999987,650.6082545999998,2,0.7880399000005127,0.18554049999875133,None,,,,,,,,,,,,,,,,,,,,,5613,1,2025-06-04_19h01.43.631,sm,2024.2.4,60.03172076080684,2025-06-04 19h01.58.366524 +0200,
42,0,42,,,,,,space,3.2489609999993263,None,None,2,0.824565299999449,0.1895755999994435,None,0,0,0,0,,,,,0,0,0,0,,,,,42,0,42,0,650.6234066999987,,,,,,,,,,,,,,,,,,,,,,,,,,,,,,,,,,,,,,,,,,,,,,,,,,,,,,,Zapfen,2.7357,650.6088048000001,650.6091603999994,650.6092692999991,650.6234066999987,653.3745060000001,653.3584338000001,653.3618396999991,653.3745060000001,653.3745060000001,653.3745060000001,653.3745060000001,655.3736578999997,655.3736578999997,655.3736578999997,655.3736578999997,655.3579304999985,2,0.824565299999449,0.1895755999994435,None,,,,,,,,,,,,,,,,,,,,,5613,1,2025-06-04_19h01.43.631,sm,2024.2.4,60.03172076080684,2025-06-04 19h01.58.366524 +0200,
43,0,43,,,,,,space,3.2489609999993263,None,None,3,0.7323711999997613,0.22142270000040298,None,0,0,0,0,,,,,0,0,0,0,,,,,43,0,43,0,655.3736578999997,,,,,,,,,,,,,,,,,,,,,,,,,,,,,,,,,,,,,,,,,,,,,,,,,,,,,,,Statue,2.3916,655.3584003999986,655.3588646999997,655.3589617999987,655.3736578999997,657.7733653999985,657.7570632999996,657.7587126999988,657.7733653999985,657.7733653999985,657.7733653999985,657.7733653999985,659.7739344999991,659.7739344999991,659.7739344999991,659.7739344999991,659.7574464999998,3,0.7323711999997613,0.22142270000040298,None,,,,,,,,,,,,,,,,,,,,,5613,1,2025-06-04_19h01.43.631,sm,2024.2.4,60.03172076080684,2025-06-04 19h01.58.366524 +0200,
44,0,44,,,,,,space,3.2489609999993263,None,None,3,1.045031099998596,0.2353757000000769,None,0,0,0,0,,,,,0,0,0,0,,,,,44,0,44,0,659.7739344999991,,,,,,,,,,,,,,,,,,,,,,,,,,,,,,,,,,,,,,,,,,,,,,,,,,,,,,,Saft,2.3599,659.7578218999988,659.758187899999,659.7582653999998,659.7739344999991,662.1392502999988,662.1228376999989,662.1242683,662.1392502999988,662.1392502999988,662.1392502999988,662.1392502999988,664.1394182999993,664.1394182999993,664.1394182999993,664.1394182999993,664.123218499999,3,1.045031099998596,0.2353757000000769,None,,,,,,,,,,,,,,,,,,,,,5613,1,2025-06-04_19h01.43.631,sm,2024.2.4,60.03172076080684,2025-06-04 19h01.58.366524 +0200,
45,0,45,,,,,,space,3.2489609999993263,None,None,3,0.6910339999994903,0.2623191999991832,None,0,0,0,0,,,,,0,0,0,0,,,,,45,0,45,0,664.1394182999993,,,,,,,,,,,,,,,,,,,,,,,,,,,,,,,,,,,,,,,,,,,,,,,,,,,,,,,Hemd,2.5169,664.1234829999994,664.1236927999998,664.1237462999998,664.1394182999993,666.6565777999986,666.6403517999988,666.6433928999995,666.6565777999986,666.6565777999986,666.6565777999986,666.6565777999986,,,,,668.6406781999995,3,0.6910339999994903,0.2623191999991832,None,,,,,,,,,,,,,,,,,,,,,5613,1,2025-06-04_19h01.43.631,sm,2024.2.4,60.03172076080684,2025-06-04 19h01.58.366524 +0200,
46,0,46,,,,,,space,3.2489609999993263,None,None,3,0.6907159000002139,0.24831869999979972,None,0,0,0,0,,,,,0,0,0,0,,,,,46,0,46,0,668.6568800999994,,,,,,,,,,,,,,,,,,,,,,,,,,,,,,,,,,,,,,,,,,,,,,,,,,,,,,,Schloss,2.0052,668.6411613,668.6416888999993,668.6417872999991,668.6568800999994,670.6726381999997,670.657122999999,670.6590080999995,670.6726381999997,670.6726381999997,670.6726381999997,670.6726381999997,672.6725392999997,672.6725392999997,672.6725392999997,672.6725392999997,672.6564758999994,3,0.6907159000002139,0.24831869999979972,None,,,,,,,,,,,,,,,,,,,,,5613,1,2025-06-04_19h01.43.631,sm,2024.2.4,60.03172076080684,2025-06-04 19h01.58.366524 +0200,
47,0,47,,,,,,space,3.2489609999993263,None,None,3,0.9789184000001114,0.2632893999998487,None,0,0,0,0,,,,,0,0,0,0,,,,,47,0,47,0,672.6725392999997,,,,,,,,,,,,,,,,,,,,,,,,,,,,,,,,,,,,,,,,,,,,,,,,,,,,,,,Ausbruch,2.5982,672.6566624999996,672.6570190999992,672.6570674999984,672.6725392999997,675.2723713999985,675.256544599999,675.2613292999995,675.2723713999985,675.2723713999985,675.2723713999985,675.2723713999985,677.2722376000002,677.2722376000002,677.2722376000002,677.2722376000002,677.2570804999996,3,0.9789184000001114,0.2632893999998487,None,,,,,,,,,,,,,,,,,,,,,5613,1,2025-06-04_19h01.43.631,sm,2024.2.4,60.03172076080684,2025-06-04 19h01.58.366524 +0200,
48,0,48,,,,,,space,3.2489609999993263,None,None,3,1.2102813000001333,0.2602434999989782,None,0,0,0,0,,,,,0,0,0,0,,,,,48,0,48,0,677.2722376000002,,,,,,,,,,,,,,,,,,,,,,,,,,,,,,,,,,,,,,,,,,,,,,,,,,,,,,,Wüste,2.0946,677.2575215999987,677.2579381999985,677.2580194999991,677.2722376000002,679.3723673999993,679.3563833999997,679.3590327000002,679.3723673999993,679.3723673999993,679.3723673999993,679.3723673999993,681.3726483999999,681.3726483999999,681.3726483999999,681.3726483999999,681.3570328999995,3,1.2102813000001333,0.2602434999989782,None,,,,,,,,,,,,,,,,,,,,,5613,1,2025-06-04_19h01.43.631,sm,2024.2.4,60.03172076080684,2025-06-04 19h01.58.366524 +0200,
49,0,49,,,,,,space,3.2489609999993263,None,None,3,1.6641507000003912,0.27329310000095575,None,0,0,0,0,,,,,0,0,0,0,,,,,49,0,49,0,681.3726483999999,,,,,,,,,,,,,,,,,,,,,,,,,,,,,,,,,,,,,,,,,,,,,,,,,,,,,,,Nachricht,2.6446,681.3575005999992,681.3579959999988,681.3580918999996,681.3726483999999,684.0217607999984,684.0058050999996,684.0091156999988,684.0217607999984,684.0217607999984,684.0217607999984,684.0217607999984,686.0217837,686.0217837,686.0217837,686.0217837,686.0049786,3,1.6641507000003912,0.27329310000095575,None,,,,,,,,,,,,,,,,,,,,,5613,1,2025-06-04_19h01.43.631,sm,2024.2.4,60.03172076080684,2025-06-04 19h01.58.366524 +0200,
50,0,50,,,,,,space,3.2489609999993263,None,None,3,0.9010623000012856,0.2643542999994679,None,0,0,0,0,,,,,0,0,0,0,,,,,50,0,50,0,686.0217837,,,,,,,,,,,,,,,,,,,,,,,,,,,,,,,,,,,,,,,,,,,,,,,,,,,,,,,Wanne,3.9589,686.0051889999995,686.0054885999998,686.005534599999,686.0217837,689.9878712999998,689.9719172999994,689.9734420999994,689.9878712999998,689.9878712999998,689.9878712999998,689.9878712999998,691.9880711999995,691.9880711999995,691.9880711999995,691.9880711999995,691.9715890999996,3,0.9010623000012856,0.2643542999994679,None,,,,,,,,,,,,,,,,,,,,,5613,1,2025-06-04_19h01.43.631,sm,2024.2.4,60.03172076080684,2025-06-04 19h01.58.366524 +0200,
51,0,51,,,,,,space,3.2489609999993263,None,None,3,0.9843756999998732,0.22241109999959008,None,0,0,0,0,,,,,0,0,0,0,,,,,51,0,51,0,691.9880711999995,,,,,,,,,,,,,,,,,,,,,,,,,,,,,,,,,,,,,,,,,,,,,,,,,,,,,,,Komödie,4.0852,691.9719349999996,691.972151599999,691.9722100999988,691.9880711999995,696.0881319,696.0721593999988,696.0763814999991,696.0881319,696.0881319,696.0881319,696.0881319,698.0873350000002,698.0873350000002,698.0873350000002,698.0873350000002,698.0709415999991,3,0.9843756999998732,0.22241109999959008,None,,,,,,,,,,,,,,,,,,,,,5613,1,2025-06-04_19h01.43.631,sm,2024.2.4,60.03172076080684,2025-06-04 19h01.58.366524 +0200,
52,0,52,,,,,,space,3.2489609999993263,None,None,3,1.2934907999988354,0.2703287000003911,None,0,0,0,0,,,,,0,0,0,0,,,,,52,0,52,0,698.0873350000002,,,,,,,,,,,,,,,,,,,,,,,,,,,,,,,,,,,,,,,,,,,,,,,,,,,,,,,Hilfe,4.3756,698.0711476999986,698.0713230999991,698.0713641999992,698.0873350000002,702.4719697,702.4549587000001,702.4580209999986,702.4719697,702.4719697,702.4719697,702.4719697,704.4713080000001,704.4713080000001,704.4713080000001,704.4713080000001,704.4552890999985,3,1.2934907999988354,0.2703287000003911,None,,,,,,,,,,,,,,,,,,,,,5613,1,2025-06-04_19h01.43.631,sm,2024.2.4,60.03172076080684,2025-06-04 19h01.58.366524 +0200,
53,0,53,,,,,,space,3.2489609999993263,None,None,3,1.0924787999992986,0.26136589999987336,None,0,0,0,0,,,,,0,0,0,0,,,,,53,0,53,0,704.4713080000001,,,,,,,,,,,,,,,,,,,,,,,,,,,,,,,,,,,,,,,,,,,,,,,,,,,,,,,Brise,2.2639,704.455668999999,704.4560868999997,704.4561647999999,704.4713080000001,706.7372367999997,706.721763399999,706.7293571999999,706.7372367999997,706.7372367999997,706.7372367999997,706.7372367999997,708.7369081999987,708.7369081999987,708.7369081999987,708.7369081999987,708.7206473999995,3,1.0924787999992986,0.26136589999987336,None,,,,,,,,,,,,,,,,,,,,,5613,1,2025-06-04_19h01.43.631,sm,2024.2.4,60.03172076080684,2025-06-04 19h01.58.366524 +0200,
54,0,54,,,,,,space,3.2489609999993263,None,None,2,1.1998769999991055,0.2483501000006072,None,0,0,0,0,,,,,0,0,0,0,,,,,54,0,54,0,708.7369081999987,,,,,,,,,,,,,,,,,,,,,,,,,,,,,,,,,,,,,,,,,,,,,,,,,,,,,,,Party,3.189,708.7209342999995,708.7211554999994,708.7212135999998,708.7369081999987,711.9367696999998,711.9204715999986,711.9243741999999,711.9367696999998,711.9367696999998,711.9367696999998,711.9367696999998,,,,,713.921285299999,2,1.1998769999991055,0.2483501000006072,None,,,,,,,,,,,,,,,,,,,,,5613,1,2025-06-04_19h01.43.631,sm,2024.2.4,60.03172076080684,2025-06-04 19h01.58.366524 +0200,
55,0,55,,,,,,space,3.2489609999993263,None,None,2,1.6493571999999403,0.2144523000006302,None,0,0,0,0,,,,,0,0,0,0,,,,,55,0,55,0,713.9370239,,,,,,,,,,,,,,,,,,,,,,,,,,,,,,,,,,,,,,,,,,,,,,,,,,,,,,,Essen,2.9443,713.9216230999991,713.9219514999986,713.9220251999996,713.9370239,716.8867442999999,716.8707703,716.874407199999,716.8867442999999,716.8867442999999,716.8867442999999,716.8867442999999,,,,,718.8709303999985,2,1.6493571999999403,0.2144523000006302,None,,,,,,,,,,,,,,,,,,,,,5613,1,2025-06-04_19h01.43.631,sm,2024.2.4,60.03172076080684,2025-06-04 19h01.58.366524 +0200,
56,0,56,,,,,,space,3.2489609999993263,None,None,3,0.8671336000006704,0.23438979999991716,None,0,0,0,0,,,,,0,0,0,0,,,,,56,0,56,0,718.8873518,,,,,,,,,,,,,,,,,,,,,,,,,,,,,,,,,,,,,,,,,,,,,,,,,,,,,,,Soße,2.6312,718.8713836999996,718.8719898999989,718.8720889999986,718.8873518,721.5197512999985,721.5035544000002,721.5065854999993,721.5197512999985,721.5197512999985,721.5197512999985,721.5197512999985,723.5203610999997,723.5203610999997,723.5203610999997,723.5203610999997,723.5040364999986,3,0.8671336000006704,0.23438979999991716,None,,,,,,,,,,,,,,,,,,,,,5613,1,2025-06-04_19h01.43.631,sm,2024.2.4,60.03172076080684,2025-06-04 19h01.58.366524 +0200,
57,0,57,,,,,,space,3.2489609999993263,None,None,3,1.1352704999990237,0.22437580000041635,None,0,0,0,0,,,,,0,0,0,0,,,,,57,0,57,0,723.5203610999997,,,,,,,,,,,,,,,,,,,,,,,,,,,,,,,,,,,,,,,,,,,,,,,,,,,,,,,Radio,2.021,723.5044820999992,723.5048064000002,723.5049030999999,723.5203610999997,725.5529552999997,725.5372145000001,725.5407728999999,725.5529552999997,725.5529552999997,725.5529552999997,725.5529552999997,727.5525576999989,727.5525576999989,727.5525576999989,727.5525576999989,727.5359743999998,3,1.1352704999990237,0.22437580000041635,None,,,,,,,,,,,,,,,,,,,,,5613,1,2025-06-04_19h01.43.631,sm,2024.2.4,60.03172076080684,2025-06-04 19h01.58.366524 +0200,
58,0,58,,,,,,space,3.2489609999993263,None,None,3,0.76073069999984,0.20155500000146276,None,0,0,0,0,,,,,0,0,0,0,,,,,58,0,58,0,727.5525576999989,,,,,,,,,,,,,,,,,,,,,,,,,,,,,,,,,,,,,,,,,,,,,,,,,,,,,,,Juwel,2.5377,727.5361560999991,727.5363218000002,727.5363598999993,727.5525576999989,730.1025632000001,730.0860833999996,730.0884318999997,730.1025632000001,730.1025632000001,730.1025632000001,730.1025632000001,,,,,732.0862434999999,3,0.76073069999984,0.20155500000146276,None,,,,,,,,,,,,,,,,,,,,,5613,1,2025-06-04_19h01.43.631,sm,2024.2.4,60.03172076080684,2025-06-04 19h01.58.366524 +0200,
59,0,59,,,,,,space,3.2489609999993263,None,None,2,1.438563099998646,0.1884810000010475,None,0,0,0,0,,,,,0,0,0,0,,,,,59,0,59,0,732.1029471999991,,,,,,,,,,,,,,,,,,,,,,,,,,,,,,,,,,,,,,,,,,,,,,,,,,,,,,,Safari,3.6005,732.0868695999998,732.0872757999987,732.087377599999,732.1029471999991,735.7188765999999,735.7024987999994,735.7064672999986,735.7188765999999,735.7188765999999,735.7188765999999,735.7188765999999,,,,,737.7028221,2,1.438563099998646,0.1884810000010475,None,,,,,,,,,,,,,,,,,,,,,5613,1,2025-06-04_19h01.43.631,sm,2024.2.4,60.03172076080684,2025-06-04 19h01.58.366524 +0200,
60,0,60,,,,,,space,3.2489609999993263,None,None,3,1.1333785999995598,0.26137829999970563,None,0,0,0,0,,,,,0,0,0,0,,,,,60,0,60,0,737.7190762999999,,,,,,,,,,,,,,,,,,,,,,,,,,,,,,,,,,,,,,,,,,,,,,,,,,,,,,,Berg,2.1743,737.7033378999986,737.7039547999993,737.7040668999998,737.7190762999999,739.9017242999998,739.8857424999987,739.8871216999996,739.9017242999998,739.9017242999998,739.9017242999998,739.9017242999998,741.9015229999986,741.9015229999986,741.9015229999986,741.9015229999986,741.8852551999989,3,1.1333785999995598,0.26137829999970563,None,,,,,,,,,,,,,,,,,,,,,5613,1,2025-06-04_19h01.43.631,sm,2024.2.4,60.03172076080684,2025-06-04 19h01.58.366524 +0200,
61,0,61,,,,,,space,3.2489609999993263,None,None,3,1.411666600000899,0.2643525999992562,None,0,0,0,0,,,,,0,0,0,0,,,,,61,0,61,0,741.9015229999986,,,,,,,,,,,,,,,,,,,,,,,,,,,,,,,,,,,,,,,,,,,,,,,,,,,,,,,Theater,2.3843,741.8854379999993,741.8856419999993,741.8856832999991,741.9015229999986,744.2856935999989,744.2699543999988,744.2738996999997,744.2856935999989,744.2856935999989,744.2856935999989,744.2856935999989,746.2858756999995,746.2858756999995,746.2858756999995,746.2858756999995,746.2699073999993,3,1.411666600000899,0.2643525999992562,None,,,,,,,,,,,,,,,,,,,,,5613,1,2025-06-04_19h01.43.631,sm,2024.2.4,60.03172076080684,2025-06-04 19h01.58.366524 +0200,
62,0,62,,,,,,space,3.2489609999993263,None,None,2,0.8410749000013311,0.21442240000033053,None,0,0,0,0,,,,,0,0,0,0,,,,,62,0,62,0,746.2858756999995,,,,,,,,,,,,,,,,,,,,,,,,,,,,,,,,,,,,,,,,,,,,,,,,,,,,,,,Knie,3.2059,746.2703707000001,746.2708236999988,746.2709152999996,746.2858756999995,749.5019832999988,749.4857460999992,749.4881132999999,749.5019832999988,749.5019832999988,749.5019832999988,749.5019832999988,751.5015460999984,751.5015460999984,751.5015460999984,751.5015460999984,751.4849161999991,2,0.8410749000013311,0.21442240000033053,None,,,,,,,,,,,,,,,,,,,,,5613,1,2025-06-04_19h01.43.631,sm,2024.2.4,60.03172076080684,2025-06-04 19h01.58.366524 +0200,
63,0,63,,,,,,space,3.2489609999993263,None,None,3,0.8301090999993903,0.26135360000080254,None,0,0,0,0,,,,,0,0,0,0,,,,,63,0,63,0,751.5015460999984,,,,,,,,,,,,,,,,,,,,,,,,,,,,,,,,,,,,,,,,,,,,,,,,,,,,,,,Weiß,2.1186,751.485233899999,751.4854985000002,751.4855618000001,751.5015460999984,753.6349722999985,753.6192163999985,753.6228766999993,753.6349722999985,753.6349722999985,753.6349722999985,753.6349722999985,755.6347635000002,755.6347635000002,755.6347635000002,755.6347635000002,755.6182286999992,3,0.8301090999993903,0.26135360000080254,None,,,,,,,,,,,,,,,,,,,,,5613,1,2025-06-04_19h01.43.631,sm,2024.2.4,60.03172076080684,2025-06-04 19h01.58.366524 +0200,
64,0,64,,,,,,space,3.2489609999993263,None,None,3,0.9769690000011906,0.2642882999989524,None,0,0,0,0,,,,,0,0,0,0,,,,,64,0,64,0,755.6347635000002,,,,,,,,,,,,,,,,,,,,,,,,,,,,,,,,,,,,,,,,,,,,,,,,,,,,,,,Gel,2.9832,755.6186046000003,755.6190374999987,755.6191031999988,755.6347635000002,758.6174310999995,758.6011093999987,758.6026373999994,758.6174310999995,758.6174310999995,758.6174310999995,758.6174310999995,760.6170375000002,760.6170375000002,760.6170375000002,760.6170375000002,760.6015458999991,3,0.9769690000011906,0.2642882999989524,None,,,,,,,,,,,,,,,,,,,,,5613,1,2025-06-04_19h01.43.631,sm,2024.2.4,60.03172076080684,2025-06-04 19h01.58.366524 +0200,
65,0,65,,,,,,space,3.2489609999993263,None,None,3,0.8114318999996613,0.2452885000002425,None,0,0,0,0,,,,,0,0,0,0,,,,,65,0,65,0,760.6170375000002,,,,,,,,,,,,,,,,,,,,,,,,,,,,,,,,,,,,,,,,,,,,,,,,,,,,,,,Schwung,2.4137,760.6017400000001,760.6019183999997,760.6019631999989,760.6170375000002,763.0343331999993,763.0180458999985,763.0222100999999,763.0343331999993,763.0343331999993,763.0343331999993,763.0343331999993,765.0344767999995,765.0344767999995,765.0344767999995,765.0344767999995,765.0174394999995,3,0.8114318999996613,0.2452885000002425,None,,,,,,,,,,,,,,,,,,,,,5613,1,2025-06-04_19h01.43.631,sm,2024.2.4,60.03172076080684,2025-06-04 19h01.58.366524 +0200,
66,0,66,,,,,,space,3.2489609999993263,None,None,3,0.7520306999995228,0.23635270000158926,None,0,0,0,0,,,,,0,0,0,0,,,,,66,0,66,0,765.0344767999995,,,,,,,,,,,,,,,,,,,,,,,,,,,,,,,,,,,,,,,,,,,,,,,,,,,,,,,Herbst,2.0934,765.017979799999,765.0183545999989,765.0184549999994,765.0344767999995,767.1340984999988,767.1176251999987,767.122624399999,767.1340984999988,767.1340984999988,767.1340984999988,767.1340984999988,769.1341410999994,769.1341410999994,769.1341410999994,769.1341410999994,769.1180991000001,3,0.7520306999995228,0.23635270000158926,None,,,,,,,,,,,,,,,,,,,,,5613,1,2025-06-04_19h01.43.631,sm,2024.2.4,60.03172076080684,2025-06-04 19h01.58.366524 +0200,
67,0,67,,,,,,space,3.2489609999993263,None,None,3,1.8003562000012607,None,None,0,0,0,0,,,,,0,0,0,0,,,,,67,0,67,0,769.1341410999994,,,,,,,,,,,,,,,,,,,,,,,,,,,,,,,,,,,,,,,,,,,,,,,,,,,,,,,Schleim,2.4521,769.1186338999996,769.1189693999986,769.1190674999998,769.1341410999994,771.6000998999989,771.583684199999,771.5862474999994,771.6000998999989,771.6000998999989,771.6000998999989,771.6000998999989,773.600249699999,773.600249699999,773.600249699999,773.600249699999,773.5841719,3,1.8003562000012607,None,None,,,,,,,,,,,,,,,,,,,,,5613,1,2025-06-04_19h01.43.631,sm,2024.2.4,60.03172076080684,2025-06-04 19h01.58.366524 +0200,
68,0,68,,,,,,space,3.2489609999993263,None,None,3,0.9514681000000564,0.241400099999737,None,0,0,0,0,,,,,0,0,0,0,,,,,68,0,68,0,773.600249699999,,,,,,,,,,,,,,,,,,,,,,,,,,,,,,,,,,,,,,,,,,,,,,,,,,,,,,,Feuer,2.0589,773.5846090999985,773.5849561999985,773.5850472999991,773.600249699999,775.6663787999987,775.6508278999991,775.6554569999989,775.6663787999987,775.6663787999987,775.6663787999987,775.6663787999987,777.6666306999996,777.6666306999996,777.6666306999996,777.6666306999996,777.6505594999999,3,0.9514681000000564,0.241400099999737,None,,,,,,,,,,,,,,,,,,,,,5613,1,2025-06-04_19h01.43.631,sm,2024.2.4,60.03172076080684,2025-06-04 19h01.58.366524 +0200,
69,0,69,,,,,,space,3.2489609999993263,None,None,3,1.123825200000283,0.2573620999992272,None,0,0,0,0,,,,,0,0,0,0,,,,,69,0,69,0,777.6666306999996,,,,,,,,,,,,,,,,,,,,,,,,,,,,,,,,,,,,,,,,,,,,,,,,,,,,,,,Puppe,2.2385,777.6509057999992,777.6512375000002,777.6513075999992,777.6666306999996,779.9161592,779.8998978999989,779.9014988999988,779.9161592,779.9161592,779.9161592,779.9161592,,,,,781.9002605999995,3,1.123825200000283,0.2573620999992272,None,,,,,,,,,,,,,,,,,,,,,5613,1,2025-06-04_19h01.43.631,sm,2024.2.4,60.03172076080684,2025-06-04 19h01.58.366524 +0200,
70,0,70,,,,,,space,3.2489609999993263,None,None,2,1.1580981000006432,0.2045431999995344,None,0,0,0,0,,,,,0,0,0,0,,,,,70,0,70,0,781.9166974999989,,,,,,,,,,,,,,,,,,,,,,,,,,,,,,,,,,,,,,,,,,,,,,,,,,,,,,,Zirkus,3.0547,781.9009079999996,781.9014907000001,781.9015942999995,781.9166974999989,784.9822896999995,784.9660535999992,784.9677094999988,784.9822896999995,784.9822896999995,784.9822896999995,784.9822896999995,786.9824289999997,786.9824289999997,786.9824289999997,786.9824289999997,786.9661070999991,2,1.1580981000006432,0.2045431999995344,None,,,,,,,,,,,,,,,,,,,,,5613,1,2025-06-04_19h01.43.631,sm,2024.2.4,60.03172076080684,2025-06-04 19h01.58.366524 +0200,
71,0,71,,,,,,space,3.2489609999993263,None,None,3,0.7689252999989549,0.23027170000023034,None,0,0,0,0,,,,,0,0,0,0,,,,,71,0,71,0,786.9824289999997,,,,,,,,,,,,,,,,,,,,,,,,,,,,,,,,,,,,,,,,,,,,,,,,,,,,,,,Beutel,2.0168,786.9662926000001,786.9664723999995,786.9665117999994,786.9824289999997,788.9989679999999,788.9824637999991,788.9840917000001,788.9989679999999,788.9989679999999,788.9989679999999,788.9989679999999,,,,,790.9834546999991,3,0.7689252999989549,0.23027170000023034,None,,,,,,,,,,,,,,,,,,,,,5613,1,2025-06-04_19h01.43.631,sm,2024.2.4,60.03172076080684,2025-06-04 19h01.58.366524 +0200,
72,0,72,,,,,,space,3.2489609999993263,None,None,3,1.0003386000007595,0.2642742999996699,None,0,0,0,0,,,,,0,0,0,0,,,,,72,0,72,0,790.9991296999997,,,,,,,,,,,,,,,,,,,,,,,,,,,,,,,,,,,,,,,,,,,,,,,,,,,,,,,Sport,2.9061,790.9839897000002,790.9845437999993,790.9846455999996,790.9991296999997,793.9155976000002,793.8997278999996,793.9023159999997,793.9155976000002,793.9155976000002,793.9155976000002,793.9155976000002,795.915731699999,795.915731699999,795.915731699999,795.915731699999,795.8999532999987,3,1.0003386000007595,0.2642742999996699,None,,,,,,,,,,,,,,,,,,,,,5613,1,2025-06-04_19h01.43.631,sm,2024.2.4,60.03172076080684,2025-06-04 19h01.58.366524 +0200,
73,0,73,,,,,,space,3.2489609999993263,None,None,3,1.7742190000008122,None,None,0,0,0,0,,,,,0,0,0,0,,,,,73,0,73,0,795.915731699999,,,,,,,,,,,,,,,,,,,,,,,,,,,,,,,,,,,,,,,,,,,,,,,,,,,,,,,Harmonie,2.3861,795.9004046999999,795.9009934999995,795.9010897999997,795.915731699999,798.3149791999986,798.2986045999987,798.3005225999987,798.3149791999986,798.3149791999986,798.3149791999986,798.3149791999986,,,,,800.2995508999993,3,1.7742190000008122,None,None,,,,,,,,,,,,,,,,,,,,,5613,1,2025-06-04_19h01.43.631,sm,2024.2.4,60.03172076080684,2025-06-04 19h01.58.366524 +0200,
74,0,74,,,,,,space,3.2489609999993263,None,None,2,1.3205901000001177,0.23227589999987686,None,0,0,0,0,,,,,0,0,0,0,,,,,74,0,74,0,800.315458699999,,,,,,,,,,,,,,,,,,,,,,,,,,,,,,,,,,,,,,,,,,,,,,,,,,,,,,,Geschwister,2.6097,800.3001667999997,800.3007543999993,800.3008678999995,800.315458699999,802.931467299999,802.9151241,802.9174122999993,802.931467299999,802.931467299999,802.931467299999,802.931467299999,804.9324065000001,804.9324065000001,804.9324065000001,804.9324065000001,804.9153642000001,2,1.3205901000001177,0.23227589999987686,None,,,,,,,,,,,,,,,,,,,,,5613,1,2025-06-04_19h01.43.631,sm,2024.2.4,60.03172076080684,2025-06-04 19h01.58.366524 +0200,
75,0,75,,,,,,space,3.2489609999993263,None,None,3,0.6894439000006969,0.24037649999991118,None,0,0,0,0,,,,,0,0,0,0,,,,,75,0,75,0,804.9324065000001,,,,,,,,,,,,,,,,,,,,,,,,,,,,,,,,,,,,,,,,,,,,,,,,,,,,,,,Schwarz,3.1264,804.9159402999994,804.9163392999999,804.9164489999985,804.9324065000001,808.0653821999986,808.0486274999985,808.0501494,808.0653821999986,808.0653821999986,808.0653821999986,808.0653821999986,,,,,810.064493599999,3,0.6894439000006969,0.24037649999991118,None,,,,,,,,,,,,,,,,,,,,,5613,1,2025-06-04_19h01.43.631,sm,2024.2.4,60.03172076080684,2025-06-04 19h01.58.366524 +0200,
76,0,76,,,,,,space,3.2489609999993263,None,None,3,1.211009799999374,0.24120980000043346,None,0,0,0,0,,,,,0,0,0,0,,,,,76,0,76,0,810.0811092999993,,,,,,,,,,,,,,,,,,,,,,,,,,,,,,,,,,,,,,,,,,,,,,,,,,,,,,,Küche,3.039,810.0647926999991,810.0650822999996,810.0651486999996,810.0811092999993,813.1308994999999,813.1148773999994,813.117129799999,813.1308994999999,813.1308994999999,813.1308994999999,813.1308994999999,,,,,815.1153104999994,3,1.211009799999374,0.24120980000043346,None,,,,,,,,,,,,,,,,,,,,,5613,1,2025-06-04_19h01.43.631,sm,2024.2.4,60.03172076080684,2025-06-04 19h01.58.366524 +0200,
77,0,77,,,,,,space,3.2489609999993263,None,None,3,0.9529853999993065,0.2055385000003298,None,0,0,0,0,,,,,0,0,0,0,,,,,77,0,77,0,815.1314509999993,,,,,,,,,,,,,,,,,,,,,,,,,,,,,,,,,,,,,,,,,,,,,,,,,,,,,,,Kuchen ,2.2074,815.1162632999985,815.1168839000002,815.1170103999993,815.1314509999993,817.3480897999998,817.3327071999993,817.3365804999994,817.3480897999998,817.3480897999998,817.3480897999998,817.3480897999998,819.3482535999992,819.3482535999992,819.3482535999992,819.3482535999992,819.3320544999988,3,0.9529853999993065,0.2055385000003298,None,,,,,,,,,,,,,,,,,,,,,5613,1,2025-06-04_19h01.43.631,sm,2024.2.4,60.03172076080684,2025-06-04 19h01.58.366524 +0200,
78,0,78,,,,,,space,3.2489609999993263,None,None,3,0.6975531000007322,0.24420889999964857,None,0,0,0,0,,,,,0,0,0,0,,,,,78,0,78,0,819.3482535999992,,,,,,,,,,,,,,,,,,,,,,,,,,,,,,,,,,,,,,,,,,,,,,,,,,,,,,,Zeitung,4.3424,819.3324200999996,819.3328223999997,819.3329041999987,819.3482535999992,823.6967845999989,823.6805360999988,823.6820693999998,823.6967845999989,823.6967845999989,823.6967845999989,823.6967845999989,,,,,825.6809431000001,3,0.6975531000007322,0.24420889999964857,None,,,,,,,,,,,,,,,,,,,,,5613,1,2025-06-04_19h01.43.631,sm,2024.2.4,60.03172076080684,2025-06-04 19h01.58.366524 +0200,
79,0,79,,,,,,space,3.2489609999993263,None,None,2,0.9888955999995233,0.19460919999983162,None,0,0,0,0,,,,,0,0,0,0,,,,,79,0,79,0,825.6974513999994,,,,,,,,,,,,,,,,,,,,,,,,,,,,,,,,,,,,,,,,,,,,,,,,,,,,,,,Feld,5.3655,825.6814655999988,825.6818692999987,825.6820127999999,825.6974513999994,831.0634843999997,831.0482066999994,831.0525202999997,831.0634843999997,831.0634843999997,831.0634843999997,831.0634843999997,833.0647357999987,833.0647357999987,833.0647357999987,833.0647357999987,833.046749699999,2,0.9888955999995233,0.19460919999983162,None,,,,,,,,,,,,,,,,,,,,,5613,1,2025-06-04_19h01.43.631,sm,2024.2.4,60.03172076080684,2025-06-04 19h01.58.366524 +0200,
0,0,0,,,,,3.189,space,3.1074950999991415,None,None,3,0.8832315999970888,0.2603376000006392,None,0,0,0,0,,,,,1,0,1,0,0,79,79,19,0,0,0,0,878.627563,,,,,,,,,,,,,,,,,,,,,,,,,,,,,,,,,850.8532462999992,850.8534029000002,850.8610893999994,850.8643291999997,850.8643291999997,853.9782684000002,space,3.1074950999991415,None,853.9783277999995,853.9949430999986,853.9949430999986,866.6123502999999,None,866.6165485999991,866.6285962999991,866.6283960666663,867.8310439999987,876.6116011666657,877.6133686999983,878.627563,878.6120043999999,Schlüssel,3.189,878.613834400001,878.6143307000002,878.6144326999984,878.627563,881.8271344000004,881.8114225000008,881.8154773999977,881.8271344000004,881.8271344000004,881.8271344000004,881.8271344000004,883.8273969999991,883.8273969999991,883.8273969999991,883.8273969999991,883.8113538999987,3,0.8832315999970888,0.2603376000006392,None,845.0633254999993,845.0634214000002,None,845.0714683999995,845.0789355999987,849.0784985999999,849.0784985999999,849.0784985999999,850.829617899999,3,1.7368507999999565,None,,,,,,,,,5613,1,2025-06-04_19h01.43.631,sm,2024.2.4,60.03172076080684,2025-06-04 19h01.58.366524 +0200,
1,0,1,,,,,,space,3.1074950999991415,None,None,3,1.2132701000009547,0.2743765000013809,None,0,0,0,0,,,,,1,0,1,0,,,,,1,0,1,0,883.8273969999991,,,,,,,,,,,,,,,,,,,,,,,,,,,,,,,,,,,,,,,,,,,,,,,,,,,,,,,Beugen,5.3463,883.8118288999995,883.8122824000002,883.8123823999977,883.8273969999991,889.1774230999999,889.1613086999987,889.1654083999983,889.1774230999999,889.1774230999999,889.1774230999999,889.1774230999999,891.1767423000001,891.1767423000001,891.1767423000001,891.1767423000001,891.160498700001,3,1.2132701000009547,0.2743765000013809,None,,,,,,,,,,,,,,,,,,,,,5613,1,2025-06-04_19h01.43.631,sm,2024.2.4,60.03172076080684,2025-06-04 19h01.58.366524 +0200,
2,0,2,,,,,,space,3.1074950999991415,None,None,3,1.0824810000012803,0.22935879999931785,None,0,0,0,0,,,,,1,0,1,0,,,,,2,0,2,0,891.1767423000001,,,,,,,,,,,,,,,,,,,,,,,,,,,,,,,,,,,,,,,,,,,,,,,,,,,,,,,Kino,2.0842,891.160688599999,891.1608851000001,891.1609279999993,891.1767423000001,893.2599062999998,893.2443249000007,893.2481319999988,893.2599062999998,893.2599062999998,893.2599062999998,893.2599062999998,895.2594509999999,895.2594509999999,895.2594509999999,895.2594509999999,895.2432284999977,3,1.0824810000012803,0.22935879999931785,None,,,,,,,,,,,,,,,,,,,,,5613,1,2025-06-04_19h01.43.631,sm,2024.2.4,60.03172076080684,2025-06-04 19h01.58.366524 +0200,
3,0,3,,,,,,space,3.1074950999991415,None,None,3,0.9159075999996276,0.22242199999891454,None,0,0,0,0,,,,,1,0,1,0,,,,,3,0,3,0,895.2594509999999,,,,,,,,,,,,,,,,,,,,,,,,,,,,,,,,,,,,,,,,,,,,,,,,,,,,,,,Zeit,2.6312,895.2434520999977,895.2436627999978,895.243706700001,895.2594509999999,897.8934194999983,897.8763076999985,897.8777565,897.8934194999983,897.8934194999983,897.8934194999983,897.8934194999983,,,,,899.8932012999994,3,0.9159075999996276,0.22242199999891454,None,,,,,,,,,,,,,,,,,,,,,5613,1,2025-06-04_19h01.43.631,sm,2024.2.4,60.03172076080684,2025-06-04 19h01.58.366524 +0200,
4,0,4,,,,,,space,3.1074950999991415,None,None,3,1.1888854000026186,0.2682160999975167,None,0,0,0,0,,,,,1,0,1,0,,,,,4,0,4,0,899.9098178000004,,,,,,,,,,,,,,,,,,,,,,,,,,,,,,,,,,,,,,,,,,,,,,,,,,,,,,,Tanz,5.1698,899.8934809000002,899.8938287000001,899.8938886999986,899.9098178000004,905.0925867999995,905.0758522999986,905.0774903000001,905.0925867999995,905.0925867999995,905.0925867999995,905.0925867999995,,,,,907.0766668999986,3,1.1888854000026186,0.2682160999975167,None,,,,,,,,,,,,,,,,,,,,,5613,1,2025-06-04_19h01.43.631,sm,2024.2.4,60.03172076080684,2025-06-04 19h01.58.366524 +0200,
5,0,5,,,,,,space,3.1074950999991415,None,None,3,1.4983897000020079,0.2244524999987334,None,0,0,0,0,,,,,1,0,1,0,,,,,5,0,5,0,907.0923859999984,,,,,,,,,,,,,,,,,,,,,,,,,,,,,,,,,,,,,,,,,,,,,,,,,,,,,,,Loch,2.4916,907.0769008999978,907.0771452999998,907.0771896999995,907.0923859999984,909.5930370000005,909.5771826,909.5804229000005,909.5930370000005,909.5930370000005,909.5930370000005,909.5930370000005,911.5925527999989,911.5925527999989,911.5925527999989,911.5925527999989,911.5763640999994,3,1.4983897000020079,0.2244524999987334,None,,,,,,,,,,,,,,,,,,,,,5613,1,2025-06-04_19h01.43.631,sm,2024.2.4,60.03172076080684,2025-06-04 19h01.58.366524 +0200,
6,0,6,,,,,,space,3.1074950999991415,None,None,2,0.7451421000005212,0.19450940000024275,None,0,0,0,0,,,,,1,0,1,0,,,,,6,0,6,0,911.5925527999989,,,,,,,,,,,,,,,,,,,,,,,,,,,,,,,,,,,,,,,,,,,,,,,,,,,,,,,Student,3.1264,911.5769037000009,911.5772343999979,911.5773324999991,911.5925527999989,914.7255147999986,914.7099661999982,914.7146716000007,914.7255147999986,914.7255147999986,914.7255147999986,914.7255147999986,916.7253787999998,916.7253787999998,916.7253787999998,916.7253787999998,916.7093504999993,2,0.7451421000005212,0.19450940000024275,None,,,,,,,,,,,,,,,,,,,,,5613,1,2025-06-04_19h01.43.631,sm,2024.2.4,60.03172076080684,2025-06-04 19h01.58.366524 +0200,
7,0,7,,,,,,space,3.1074950999991415,None,None,3,0.6452083999975002,0.1995000999995682,None,0,0,0,0,,,,,1,0,1,0,,,,,7,0,7,0,916.7253787999998,,,,,,,,,,,,,,,,,,,,,,,,,,,,,,,,,,,,,,,,,,,,,,,,,,,,,,,Kamera,2.3861,916.709920299998,916.7103728999991,916.7104730999981,916.7253787999998,919.1251102999977,919.1087227999978,919.1111178999981,919.1251102999977,919.1251102999977,919.1251102999977,919.1251102999977,921.1248303000011,921.1248303000011,921.1248303000011,921.1248303000011,921.1082039000012,3,0.6452083999975002,0.1995000999995682,None,,,,,,,,,,,,,,,,,,,,,5613,1,2025-06-04_19h01.43.631,sm,2024.2.4,60.03172076080684,2025-06-04 19h01.58.366524 +0200,
8,0,8,,,,,,space,3.1074950999991415,None,None,2,1.281944599999406,0.21443469999940135,None,0,0,0,0,,,,,1,0,1,0,,,,,8,0,8,0,921.1248303000011,,,,,,,,,,,,,,,,,,,,,,,,,,,,,,,,,,,,,,,,,,,,,,,,,,,,,,,Zähne,2.83,921.1083896,921.1085549,921.1085930999998,921.1248303000011,923.9578491999982,923.9418643000008,923.9434595000002,923.9578491999982,923.9578491999982,923.9578491999982,923.9578491999982,,,,,925.9426273000008,2,1.281944599999406,0.21443469999940135,None,,,,,,,,,,,,,,,,,,,,,5613,1,2025-06-04_19h01.43.631,sm,2024.2.4,60.03172076080684,2025-06-04 19h01.58.366524 +0200,
9,0,9,,,,,,space,3.1074950999991415,None,None,3,1.312273700001242,0.23339349999878323,None,0,0,0,0,,,,,1,0,1,0,,,,,9,0,9,0,925.9575810999977,,,,,,,,,,,,,,,,,,,,,,,,,,,,,,,,,,,,,,,,,,,,,,,,,,,,,,,Schutz,2.5169,925.9430903999983,925.9436263999978,925.9437232,925.9575810999977,928.4751730999978,928.4590086000007,928.4620320999984,928.4751730999978,928.4751730999978,928.4751730999978,928.4751730999978,930.4749604999979,930.4749604999979,930.4749604999979,930.4749604999979,930.4588991,3,1.312273700001242,0.23339349999878323,None,,,,,,,,,,,,,,,,,,,,,5613,1,2025-06-04_19h01.43.631,sm,2024.2.4,60.03172076080684,2025-06-04 19h01.58.366524 +0200,
10,0,10,,,,,,space,3.1074950999991415,None,None,2,1.549522799999977,0.20237749999796506,None,0,0,0,0,,,,,1,0,1,0,,,,,10,0,10,0,930.4749604999979,,,,,,,,,,,,,,,,,,,,,,,,,,,,,,,,,,,,,,,,,,,,,,,,,,,,,,,Wissen,4.7208,930.4594342,930.4597842999992,930.4598810000007,930.4749604999979,935.2083535000002,935.192290099998,935.1970424999981,935.2083535000002,935.2083535000002,935.2083535000002,935.2083535000002,937.2074809999995,937.2074809999995,937.2074809999995,937.2074809999995,937.1913353,2,1.549522799999977,0.20237749999796506,None,,,,,,,,,,,,,,,,,,,,,5613,1,2025-06-04_19h01.43.631,sm,2024.2.4,60.03172076080684,2025-06-04 19h01.58.366524 +0200,
11,0,11,,,,,,space,3.1074950999991415,None,None,3,0.8747253000001365,0.2442719999999099,None,0,0,0,0,,,,,1,0,1,0,,,,,11,0,11,0,937.2074809999995,,,,,,,,,,,,,,,,,,,,,,,,,,,,,,,,,,,,,,,,,,,,,,,,,,,,,,,Sterne,2.2129,937.1915887999985,937.1919810999989,937.1920554000008,937.2074809999995,939.4235991000005,939.407025399998,939.4089594999987,939.4235991000005,939.4235991000005,939.4235991000005,939.4235991000005,,,,,941.407889199998,3,0.8747253000001365,0.2442719999999099,None,,,,,,,,,,,,,,,,,,,,,5613,1,2025-06-04_19h01.43.631,sm,2024.2.4,60.03172076080684,2025-06-04 19h01.58.366524 +0200,
12,0,12,,,,,,space,3.1074950999991415,None,None,None,,,None,0,0,0,0,,,,,1,0,1,0,,,,,12,0,12,0,941.4242512000001,,,,,,,,,,,,,,,,,,,,,,,,,,,,,,,,,,,,,,,,,,,,,,,,,,,,,,,Monument,2.2385,941.4083451999995,941.4088838000007,941.4089838999989,941.4242512000001,943.6738196999995,943.657157399999,943.6600204000006,943.6738196999995,943.6738196999995,943.6738196999995,943.6738196999995,945.6732772999985,945.6732772999985,945.6732772999985,945.6732772999985,945.6569784000003,None,,,None,,,,,,,,,,,,,,,,,,,,,5613,1,2025-06-04_19h01.43.631,sm,2024.2.4,60.03172076080684,2025-06-04 19h01.58.366524 +0200,
13,0,13,,,,,,space,3.1074950999991415,None,None,2,0.6736097000029986,0.19047199999840814,None,0,0,0,0,,,,,1,0,1,0,,,,,13,0,13,0,945.6732772999985,,,,,,,,,,,,,,,,,,,,,,,,,,,,,,,,,,,,,,,,,,,,,,,,,,,,,,,Agent,2.0946,945.6573105999978,945.6575552999984,945.6576153000005,945.6732772999985,947.7731087000011,947.7567498000008,947.7595631999993,947.7731087000011,947.7731087000011,947.7731087000011,947.7731087000011,949.7732048999987,949.7732048999987,949.7732048999987,949.7732048999987,949.7567963999991,2,0.6736097000029986,0.19047199999840814,None,,,,,,,,,,,,,,,,,,,,,5613,1,2025-06-04_19h01.43.631,sm,2024.2.4,60.03172076080684,2025-06-04 19h01.58.366524 +0200,
14,0,14,,,,,,space,3.1074950999991415,None,None,3,0.6420400999995763,0.21152140000049258,None,0,0,0,0,,,,,1,0,1,0,,,,,14,0,14,0,949.7732048999987,,,,,,,,,,,,,,,,,,,,,,,,,,,,,,,,,,,,,,,,,,,,,,,,,,,,,,,Platz,2.2639,949.7569779999994,949.7571800999995,949.757216699998,949.7732048999987,952.040310800001,952.0239386999983,952.0265466000001,952.040310800001,952.040310800001,952.040310800001,952.040310800001,954.0395239000009,954.0395239000009,954.0395239000009,954.0395239000009,954.0231781999992,3,0.6420400999995763,0.21152140000049258,None,,,,,,,,,,,,,,,,,,,,,5613,1,2025-06-04_19h01.43.631,sm,2024.2.4,60.03172076080684,2025-06-04 19h01.58.366524 +0200,
15,0,15,,,,,,space,3.1074950999991415,None,None,3,1.3472264999982144,0.2114441000012448,None,0,0,0,0,,,,,1,0,1,0,,,,,15,0,15,0,954.0395239000009,,,,,,,,,,,,,,,,,,,,,,,,,,,,,,,,,,,,,,,,,,,,,,,,,,,,,,,Pizza,4.3424,954.0234040999985,954.0236074000004,954.0236534999985,954.0395239000009,958.390088099999,958.3738419999991,958.3779190999976,958.390088099999,958.390088099999,958.390088099999,958.390088099999,960.3894788999987,960.3894788999987,960.3894788999987,960.3894788999987,960.3733644000004,3,1.3472264999982144,0.2114441000012448,None,,,,,,,,,,,,,,,,,,,,,5613,1,2025-06-04_19h01.43.631,sm,2024.2.4,60.03172076080684,2025-06-04 19h01.58.366524 +0200,
16,0,16,,,,,,space,3.1074950999991415,None,None,3,0.8976637999985542,0.22941740000169375,None,0,0,0,0,,,,,1,0,1,0,,,,,16,0,16,0,960.3894788999987,,,,,,,,,,,,,,,,,,,,,,,,,,,,,,,,,,,,,,,,,,,,,,,,,,,,,,,Netz,2.1186,960.3737209999981,960.3741896999982,960.3742637999985,960.3894788999987,962.5228722000011,962.5073052999996,962.5109236000008,962.5228722000011,962.5228722000011,962.5228722000011,962.5228722000011,964.5225485999999,964.5225485999999,964.5225485999999,964.5225485999999,964.5059425999989,3,0.8976637999985542,0.22941740000169375,None,,,,,,,,,,,,,,,,,,,,,5613,1,2025-06-04_19h01.43.631,sm,2024.2.4,60.03172076080684,2025-06-04 19h01.58.366524 +0200,
17,0,17,,,,,,space,3.1074950999991415,None,None,3,0.9452821999984735,0.23744889999943553,None,0,0,0,0,,,,,1,0,1,0,,,,,17,0,17,0,964.5225485999999,,,,,,,,,,,,,,,,,,,,,,,,,,,,,,,,,,,,,,,,,,,,,,,,,,,,,,,Tube,3.6564,964.5063011000002,964.5065909999994,964.5067226999981,964.5225485999999,968.1889735999994,968.1728941999991,968.1765680000008,968.1889735999994,968.1889735999994,968.1889735999994,968.1889735999994,970.1884382000007,970.1884382000007,970.1884382000007,970.1884382000007,970.1734143999984,3,0.9452821999984735,0.23744889999943553,None,,,,,,,,,,,,,,,,,,,,,5613,1,2025-06-04_19h01.43.631,sm,2024.2.4,60.03172076080684,2025-06-04 19h01.58.366524 +0200,
18,0,18,,,,,,space,3.1074950999991415,None,None,2,0.9111247999971965,0.19148340000174358,None,0,0,0,0,,,,,1,0,1,0,,,,,18,0,18,0,970.1884382000007,,,,,,,,,,,,,,,,,,,,,,,,,,,,,,,,,,,,,,,,,,,,,,,,,,,,,,,Gesicht,3.2059,970.1739321000005,970.1742705999986,970.1743673000001,970.1884382000007,973.406193599998,973.3892995999977,973.3923747999997,973.406193599998,973.406193599998,973.406193599998,973.406193599998,975.4053686999996,975.4053686999996,975.4053686999996,975.4053686999996,975.3899636999977,2,0.9111247999971965,0.19148340000174358,None,,,,,,,,,,,,,,,,,,,,,5613,1,2025-06-04_19h01.43.631,sm,2024.2.4,60.03172076080684,2025-06-04 19h01.58.366524 +0200,
19,0,19,,,,,,space,3.1074950999991415,None,None,3,0.950455599999259,0.23619909999979427,None,0,0,0,0,,,,,1,0,1,0,,,,,19,0,19,0,975.4053686999996,,,,,,,,,,,,,,,,,,,,,,,,,,,,,,,,,,,,,,,,,,,,,,,,,,,,,,,Teller,2.4137,975.3903730000002,975.3906578000006,975.3907326999997,975.4053686999996,977.8213121999997,977.8052019000006,977.8067084999984,977.8213121999997,977.8213121999997,977.8213121999997,977.8213121999997,,,,,979.8057471999982,3,0.950455599999259,0.23619909999979427,None,,,,,,,,,,,,,,,,,,,,,5613,1,2025-06-04_19h01.43.631,sm,2024.2.4,60.03172076080684,2025-06-04 19h01.58.366524 +0200,
20,0,20,,,,,,space,3.1074950999991415,None,None,3,0.6792339999992691,0.23535700000138604,None,0,0,0,0,,,,,1,0,1,0,,,,,20,0,20,0,979.8217596999984,,,,,,,,,,,,,,,,,,,,,,,,,,,,,,,,,,,,,,,,,,,,,,,,,,,,,,,Keller,4.4429,979.806198799999,979.8067162999996,979.8068086000003,979.8217596999984,984.2709014000011,984.2545143999978,984.2559990999998,984.2709014000011,984.2709014000011,984.2709014000011,984.2709014000011,986.2715392000009,986.2715392000009,986.2715392000009,986.2715392000009,986.2547055999985,3,0.6792339999992691,0.23535700000138604,None,,,,,,,,,,,,,,,,,,,,,5613,1,2025-06-04_19h01.43.631,sm,2024.2.4,60.03172076080684,2025-06-04 19h01.58.366524 +0200,
21,0,21,,,,,,space,3.1074950999991415,None,None,3,1.2550276000001759,0.22021289999975124,None,0,0,0,0,,,,,1,0,1,0,,,,,21,0,21,0,986.2715392000009,,,,,,,,,,,,,,,,,,,,,,,,,,,,,,,,,,,,,,,,,,,,,,,,,,,,,,,Anruf,2.3916,986.2549844000005,986.2552087999993,986.2552648000001,986.2715392000009,988.6718210999989,988.6557903000012,988.6597267999987,988.6718210999989,988.6718210999989,988.6718210999989,988.6718210999989,990.6718955999986,990.6718955999986,990.6718955999986,990.6718955999986,990.656093399999,3,1.2550276000001759,0.22021289999975124,None,,,,,,,,,,,,,,,,,,,,,5613,1,2025-06-04_19h01.43.631,sm,2024.2.4,60.03172076080684,2025-06-04 19h01.58.366524 +0200,
22,0,22,,,,,,space,3.1074950999991415,None,None,2,0.8947903999978735,0.19547249999959604,None,0,0,0,0,,,,,1,0,1,0,,,,,22,0,22,0,990.6718955999986,,,,,,,,,,,,,,,,,,,,,,,,,,,,,,,,,,,,,,,,,,,,,,,,,,,,,,,Finger,2.7584,990.6566373000005,990.6570902000003,990.6572651999977,990.6718955999986,993.4372457000009,993.4210421000007,993.4228910000002,993.4372457000009,993.4372457000009,993.4372457000009,993.4372457000009,995.4371178999991,995.4371178999991,995.4371178999991,995.4371178999991,995.4205435999993,2,0.8947903999978735,0.19547249999959604,None,,,,,,,,,,,,,,,,,,,,,5613,1,2025-06-04_19h01.43.631,sm,2024.2.4,60.03172076080684,2025-06-04 19h01.58.366524 +0200,
23,0,23,,,,,,space,3.1074950999991415,None,None,3,1.370758000000933,0.23339019999912125,None,0,0,0,0,,,,,1,0,1,0,,,,,23,0,23,0,995.4371178999991,,,,,,,,,,,,,,,,,,,,,,,,,,,,,,,,,,,,,,,,,,,,,,,,,,,,,,,Bart,2.9443,995.4207331999987,995.4209027999987,995.4209399999982,995.4371178999991,998.3876681999991,998.3715988999993,998.3748063000003,998.3876681999991,998.3876681999991,998.3876681999991,998.3876681999991,1000.3878671000002,1000.3878671000002,1000.3878671000002,1000.3878671000002,1000.3721033999991,3,1.370758000000933,0.23339019999912125,None,,,,,,,,,,,,,,,,,,,,,5613,1,2025-06-04_19h01.43.631,sm,2024.2.4,60.03172076080684,2025-06-04 19h01.58.366524 +0200,
24,0,24,,,,,,space,3.1074950999991415,None,None,2,1.184600299999147,0.2411433000015677,None,0,0,0,0,,,,,1,0,1,0,,,,,24,0,24,0,1000.3878671000002,,,,,,,,,,,,,,,,,,,,,,,,,,,,,,,,,,,,,,,,,,,,,,,,,,,,,,,Liebe,2.6097,1000.3725792999994,1000.3730458000009,1000.373147100001,1000.3878671000002,1003.0034102000009,1002.9867558999995,1002.9892945999982,1003.0034102000009,1003.0034102000009,1003.0034102000009,1003.0034102000009,,,,,1004.9875873000001,2,1.184600299999147,0.2411433000015677,None,,,,,,,,,,,,,,,,,,,,,5613,1,2025-06-04_19h01.43.631,sm,2024.2.4,60.03172076080684,2025-06-04 19h01.58.366524 +0200,
25,0,25,,,,,,space,3.1074950999991415,None,None,2,1.4588722000007692,0.19349859999783803,None,0,0,0,0,,,,,1,0,1,0,,,,,25,0,25,0,1005.0040960999995,,,,,,,,,,,,,,,,,,,,,,,,,,,,,,,,,,,,,,,,,,,,,,,,,,,,,,,Leute,2.5982,1004.9881048000007,1004.9886246000005,1004.9887290999995,1005.0040960999995,1007.6036693000005,1007.5876861999986,1007.5903234999987,1007.6036693000005,1007.6036693000005,1007.6036693000005,1007.6036693000005,1009.6033898999976,1009.6033898999976,1009.6033898999976,1009.6033898999976,1009.5878135000003,2,1.4588722000007692,0.19349859999783803,None,,,,,,,,,,,,,,,,,,,,,5613,1,2025-06-04_19h01.43.631,sm,2024.2.4,60.03172076080684,2025-06-04 19h01.58.366524 +0200,
26,0,26,,,,,,space,3.1074950999991415,None,None,3,1.2091791999991983,0.25025879999884637,None,0,0,0,0,,,,,1,0,1,0,,,,,26,0,26,0,1009.6033898999976,,,,,,,,,,,,,,,,,,,,,,,,,,,,,,,,,,,,,,,,,,,,,,,,,,,,,,,Brille,2.1961,1009.5882946000002,1009.5888037999994,1009.5889105999977,1009.6033898999976,1011.8033817999985,1011.7875908999977,1011.791520599998,1011.8033817999985,1011.8033817999985,1011.8033817999985,1011.8033817999985,1013.8036019999981,1013.8036019999981,1013.8036019999981,1013.8036019999981,1013.786386400001,3,1.2091791999991983,0.25025879999884637,None,,,,,,,,,,,,,,,,,,,,,5613,1,2025-06-04_19h01.43.631,sm,2024.2.4,60.03172076080684,2025-06-04 19h01.58.366524 +0200,
27,0,27,,,,,,space,3.1074950999991415,None,None,2,0.6951315000005707,0.2014844000004814,None,0,0,0,0,,,,,1,0,1,0,,,,,27,0,27,0,1013.8036019999981,,,,,,,,,,,,,,,,,,,,,,,,,,,,,,,,,,,,,,,,,,,,,,,,,,,,,,,Bruder,2.0589,1013.7865696999997,1013.7867781999976,1013.7868187000004,1013.8036019999981,1015.8698744999983,1015.8547763999977,1015.8579496000002,1015.8698744999983,1015.8698744999983,1015.8698744999983,1015.8698744999983,1017.8697376,1017.8697376,1017.8697376,1017.8697376,1017.8527410000006,2,0.6951315000005707,0.2014844000004814,None,,,,,,,,,,,,,,,,,,,,,5613,1,2025-06-04_19h01.43.631,sm,2024.2.4,60.03172076080684,2025-06-04 19h01.58.366524 +0200,
28,0,28,,,,,,space,3.1074950999991415,None,None,3,1.235094499999832,0.272200100000191,None,0,0,0,0,,,,,1,0,1,0,,,,,28,0,28,0,1017.8697376,,,,,,,,,,,,,,,,,,,,,,,,,,,,,,,,,,,,,,,,,,,,,,,,,,,,,,,Glück,2.2074,1017.8530843999997,1017.8533155999994,1017.8533745000004,1017.8697376,1020.0854715000005,1020.0695522000005,1020.0722124000004,1020.0854715000005,1020.0854715000005,1020.0854715000005,1020.0854715000005,1022.0864853000003,1022.0864853000003,1022.0864853000003,1022.0864853000003,1022.0701026000006,3,1.235094499999832,0.272200100000191,None,,,,,,,,,,,,,,,,,,,,,5613,1,2025-06-04_19h01.43.631,sm,2024.2.4,60.03172076080684,2025-06-04 19h01.58.366524 +0200,
29,0,29,,,,,,space,3.1074950999991415,None,None,3,1.1423852999978408,0.2454266999993706,None,0,0,0,0,,,,,1,0,1,0,,,,,29,0,29,0,1022.0864853000003,,,,,,,,,,,,,,,,,,,,,,,,,,,,,,,,,,,,,,,,,,,,,,,,,,,,,,,Farbe,2.7378,1022.0704117000005,1022.070800200001,1022.0708695999983,1022.0864853000003,1024.8355590999981,1024.8193632999992,1024.820804500001,1024.8355590999981,1024.8355590999981,1024.8355590999981,1024.8355590999981,,,,,1026.8195804000006,3,1.1423852999978408,0.2454266999993706,None,,,,,,,,,,,,,,,,,,,,,5613,1,2025-06-04_19h01.43.631,sm,2024.2.4,60.03172076080684,2025-06-04 19h01.58.366524 +0200,
30,0,30,,,,,,space,3.1074950999991415,None,None,3,1.1128883999990649,0.25326700000005076,None,0,0,0,0,,,,,1,0,1,0,,,,,30,0,30,0,1026.836169799999,,,,,,,,,,,,,,,,,,,,,,,,,,,,,,,,,,,,,,,,,,,,,,,,,,,,,,,Vers,3.6438,1026.8200643,1026.8204774999995,1026.8206064999995,1026.836169799999,1030.4850128999988,1030.468659600001,1030.4701030999986,1030.4850128999988,1030.4850128999988,1030.4850128999988,1030.4850128999988,,,,,1032.4690365999977,3,1.1128883999990649,0.25326700000005076,None,,,,,,,,,,,,,,,,,,,,,5613,1,2025-06-04_19h01.43.631,sm,2024.2.4,60.03172076080684,2025-06-04 19h01.58.366524 +0200,
31,0,31,,,,,,space,3.1074950999991415,None,None,2,1.1413143999998283,0.21338269999978365,None,0,0,0,0,,,,,1,0,1,0,,,,,31,0,31,0,1032.4854450000003,,,,,,,,,,,,,,,,,,,,,,,,,,,,,,,,,,,,,,,,,,,,,,,,,,,,,,,Trauben,2.7357,1032.469566400001,1032.4699796000004,1032.4700796999987,1032.4854450000003,1035.2357047999994,1035.2197885000005,1035.2241249999988,1035.2357047999994,1035.2357047999994,1035.2357047999994,1035.2357047999994,1037.2348383000008,1037.2348383000008,1037.2348383000008,1037.2348383000008,1037.2187284999982,2,1.1413143999998283,0.21338269999978365,None,,,,,,,,,,,,,,,,,,,,,5613,1,2025-06-04_19h01.43.631,sm,2024.2.4,60.03172076080684,2025-06-04 19h01.58.366524 +0200,
32,0,32,,,,,,space,3.1074950999991415,None,None,3,1.363702300001023,0.25242029999935767,None,0,0,0,0,,,,,1,0,1,0,,,,,32,0,32,0,1037.2348383000008,,,,,,,,,,,,,,,,,,,,,,,,,,,,,,,,,,,,,,,,,,,,,,,,,,,,,,,Zug,3.9589,1037.2189302999996,1037.2191068999982,1037.219147400001,1037.2348383000008,1041.200841699998,1041.184898900001,1041.1863140000005,1041.200841699998,1041.200841699998,1041.200841699998,1041.200841699998,1043.2008501,1043.2008501,1043.2008501,1043.2008501,1043.1851283999986,3,1.363702300001023,0.25242029999935767,None,,,,,,,,,,,,,,,,,,,,,5613,1,2025-06-04_19h01.43.631,sm,2024.2.4,60.03172076080684,2025-06-04 19h01.58.366524 +0200,
33,0,33,,,,,,space,3.1074950999991415,None,None,2,1.6176859000006516,0.22045680000155699,None,0,0,0,0,,,,,1,0,1,0,,,,,33,0,33,0,1043.2008501,,,,,,,,,,,,,,,,,,,,,,,,,,,,,,,,,,,,,,,,,,,,,,,,,,,,,,,Bildung,3.2825,1043.1853408999978,1043.1855262000008,1043.1855650999987,1043.2008501,1046.4840036999976,1046.4684462999994,1046.470585099998,1046.4840036999976,1046.4840036999976,1046.4840036999976,1046.4840036999976,1048.4837996999977,1048.4837996999977,1048.4837996999977,1048.4837996999977,1048.4677771000006,2,1.6176859000006516,0.22045680000155699,None,,,,,,,,,,,,,,,,,,,,,5613,1,2025-06-04_19h01.43.631,sm,2024.2.4,60.03172076080684,2025-06-04 19h01.58.366524 +0200,
34,0,34,,,,,,space,3.1074950999991415,None,None,3,1.4313255000015488,0.22845869999946444,None,0,0,0,0,,,,,1,0,1,0,,,,,34,0,34,0,1048.4837996999977,,,,,,,,,,,,,,,,,,,,,,,,,,,,,,,,,,,,,,,,,,,,,,,,,,,,,,,Klippe,2.4167,1048.4679704999999,1048.4684197999977,1048.468458199999,1048.4837996999977,1050.901027599999,1050.8848211999994,1050.886704300001,1050.901027599999,1050.901027599999,1050.901027599999,1050.901027599999,1052.9007598000007,1052.9007598000007,1052.9007598000007,1052.9007598000007,1052.884652499999,3,1.4313255000015488,0.22845869999946444,None,,,,,,,,,,,,,,,,,,,,,5613,1,2025-06-04_19h01.43.631,sm,2024.2.4,60.03172076080684,2025-06-04 19h01.58.366524 +0200,
35,0,35,,,,,,space,3.1074950999991415,None,None,2,0.7780954000008933,0.22844000000259257,None,0,0,0,0,,,,,1,0,1,0,,,,,35,0,35,0,1052.9007598000007,,,,,,,,,,,,,,,,,,,,,,,,,,,,,,,,,,,,,,,,,,,,,,,,,,,,,,,Spaß,2.9036,1052.885154499998,1052.8856256999989,1052.885726999999,1052.9007598000007,1055.817763699999,1055.8003678000005,1055.8017171999982,1055.817763699999,1055.817763699999,1055.817763699999,1055.817763699999,,,,,1057.8013604999996,2,0.7780954000008933,0.22844000000259257,None,,,,,,,,,,,,,,,,,,,,,5613,1,2025-06-04_19h01.43.631,sm,2024.2.4,60.03172076080684,2025-06-04 19h01.58.366524 +0200,
36,0,36,,,,,,space,3.1074950999991415,None,None,3,1.6695581000021775,0.21249230000103125,None,0,0,0,0,,,,,1,0,1,0,,,,,36,0,36,0,1057.8176599999988,,,,,,,,,,,,,,,,,,,,,,,,,,,,,,,,,,,,,,,,,,,,,,,,,,,,,,,Spülung,2.3599,1057.8020235999993,1057.8025488000003,1057.8026527999991,1057.8176599999988,1060.1833704,1060.1672371000004,1060.1690002999985,1060.1833704,1060.1833704,1060.1833704,1060.1833704,1062.1830377999995,1062.1830377999995,1062.1830377999995,1062.1830377999995,1062.1674193999988,3,1.6695581000021775,0.21249230000103125,None,,,,,,,,,,,,,,,,,,,,,5613,1,2025-06-04_19h01.43.631,sm,2024.2.4,60.03172076080684,2025-06-04 19h01.58.366524 +0200,
37,0,37,,,,,,space,3.1074950999991415,None,None,3,0.9979033000017807,0.24736619999748655,None,0,0,0,0,,,,,1,0,1,0,,,,,37,0,37,0,1062.1830377999995,,,,,,,,,,,,,,,,,,,,,,,,,,,,,,,,,,,,,,,,,,,,,,,,,,,,,,,Sack,2.0031,1062.167604199998,1062.1679320999992,1062.167970299999,1062.1830377999995,1064.2001097000011,1064.1835422999993,1064.1858435999984,1064.2001097000011,1064.2001097000011,1064.2001097000011,1064.2001097000011,1066.1995772999999,1066.1995772999999,1066.1995772999999,1066.1995772999999,1066.1831905999989,3,0.9979033000017807,0.24736619999748655,None,,,,,,,,,,,,,,,,,,,,,5613,1,2025-06-04_19h01.43.631,sm,2024.2.4,60.03172076080684,2025-06-04 19h01.58.366524 +0200,
38,0,38,,,,,,space,3.1074950999991415,None,None,2,0.991864199997508,0.2154331000019738,None,0,0,0,0,,,,,1,0,1,0,,,,,38,0,38,0,1066.1995772999999,,,,,,,,,,,,,,,,,,,,,,,,,,,,,,,,,,,,,,,,,,,,,,,,,,,,,,,Turnerin,3.6297,1066.1833721999992,1066.1836062999992,1066.1836423999976,1066.1995772999999,1069.833035900001,1069.8173600999999,1069.824004600001,1069.833035900001,1069.833035900001,1069.833035900001,1069.833035900001,1071.8324582999976,1071.8324582999976,1071.8324582999976,1071.8324582999976,1071.8166512999978,2,0.991864199997508,0.2154331000019738,None,,,,,,,,,,,,,,,,,,,,,5613,1,2025-06-04_19h01.43.631,sm,2024.2.4,60.03172076080684,2025-06-04 19h01.58.366524 +0200,
39,0,39,,,,,,space,3.1074950999991415,None,None,3,0.814146200002142,0.22336169999834965,None,0,0,0,0,,,,,1,0,1,0,,,,,39,0,39,0,1071.8324582999976,,,,,,,,,,,,,,,,,,,,,,,,,,,,,,,,,,,,,,,,,,,,,,,,,,,,,,,Schnürsenkel,2.8863,1071.8168339999993,1071.8170047000003,1071.8170425000008,1071.8324582999976,1074.733136599998,1074.717271899999,1074.7207703000004,1074.733136599998,1074.733136599998,1074.733136599998,1074.733136599998,1076.7325125999978,1076.7325125999978,1076.7325125999978,1076.7325125999978,1076.7168417000012,3,0.814146200002142,0.22336169999834965,None,,,,,,,,,,,,,,,,,,,,,5613,1,2025-06-04_19h01.43.631,sm,2024.2.4,60.03172076080684,2025-06-04 19h01.58.366524 +0200,
40,0,40,,,,,,space,3.1074950999991415,None,None,2,1.0540670999980648,0.1634799000021303,None,0,0,0,0,,,,,1,0,1,0,,,,,40,0,40,0,1076.7325125999978,,,,,,,,,,,,,,,,,,,,,,,,,,,,,,,,,,,,,,,,,,,,,,,,,,,,,,,Koch,3.6615,1076.7170319999987,1076.7172071000005,1076.7172453000003,1076.7325125999978,1080.3985763,1080.3823055999983,1080.3838396999981,1080.3985763,1080.3985763,1080.3985763,1080.3985763,1082.3986878999985,1082.3986878999985,1082.3986878999985,1082.3986878999985,1082.3824800999992,2,1.0540670999980648,0.1634799000021303,None,,,,,,,,,,,,,,,,,,,,,5613,1,2025-06-04_19h01.43.631,sm,2024.2.4,60.03172076080684,2025-06-04 19h01.58.366524 +0200,
41,0,41,,,,,,space,3.1074950999991415,None,None,2,0.6806030000007013,0.15961040000183857,None,0,0,0,0,,,,,1,0,1,0,,,,,41,0,41,0,1082.3986878999985,,,,,,,,,,,,,,,,,,,,,,,,,,,,,,,,,,,,,,,,,,,,,,,,,,,,,,,Besucher,3.039,1082.3828586,1082.383104800001,1082.3831623999995,1082.3986878999985,1085.448481999998,1085.432444,1085.4343597999996,1085.448481999998,1085.448481999998,1085.448481999998,1085.448481999998,1087.448647700001,1087.448647700001,1087.448647700001,1087.448647700001,1087.4322350999992,2,0.6806030000007013,0.15961040000183857,None,,,,,,,,,,,,,,,,,,,,,5613,1,2025-06-04_19h01.43.631,sm,2024.2.4,60.03172076080684,2025-06-04 19h01.58.366524 +0200,
42,0,42,,,,,,space,3.1074950999991415,None,None,3,0.6117669000013848,0.2184345999994548,None,0,0,0,0,,,,,1,0,1,0,,,,,42,0,42,0,1087.448647700001,,,,,,,,,,,,,,,,,,,,,,,,,,,,,,,,,,,,,,,,,,,,,,,,,,,,,,,Gewürz,3.8592,1087.432417099999,1087.432582299998,1087.4326223999979,1087.448647700001,1091.3148243999985,1091.2991643000005,1091.3011657000006,1091.3148243999985,1091.3148243999985,1091.3148243999985,1091.3148243999985,1093.3145827999997,1093.3145827999997,1093.3145827999997,1093.3145827999997,1093.2988576999978,3,0.6117669000013848,0.2184345999994548,None,,,,,,,,,,,,,,,,,,,,,5613,1,2025-06-04_19h01.43.631,sm,2024.2.4,60.03172076080684,2025-06-04 19h01.58.366524 +0200,
43,0,43,,,,,,space,3.1074950999991415,None,None,3,0.9401327000014135,0.2004038999984914,None,0,0,0,0,,,,,1,0,1,0,,,,,43,0,43,0,1093.3145827999997,,,,,,,,,,,,,,,,,,,,,,,,,,,,,,,,,,,,,,,,,,,,,,,,,,,,,,,Arbeit,2.9061,1093.2990683000007,1093.299586799998,1093.2996331999984,1093.3145827999997,1096.2313931000008,1096.215838099999,1096.2194881999985,1096.2313931000008,1096.2313931000008,1096.2313931000008,1096.2313931000008,1098.2309325000006,1098.2309325000006,1098.2309325000006,1098.2309325000006,1098.2146558000004,3,0.9401327000014135,0.2004038999984914,None,,,,,,,,,,,,,,,,,,,,,5613,1,2025-06-04_19h01.43.631,sm,2024.2.4,60.03172076080684,2025-06-04 19h01.58.366524 +0200,
44,0,44,,,,,,space,3.1074950999991415,None,None,2,0.8445792999991681,0.16655159999936586,None,0,0,0,0,,,,,1,0,1,0,,,,,44,0,44,0,1098.2309325000006,,,,,,,,,,,,,,,,,,,,,,,,,,,,,,,,,,,,,,,,,,,,,,,,,,,,,,,Kopf,2.3843,1098.2148392,1098.2150125999997,1098.2150497999992,1098.2309325000006,1100.6152409000006,1100.5984313999998,1100.5997773,1100.6152409000006,1100.6152409000006,1100.6152409000006,1100.6152409000006,1102.6143930999988,1102.6143930999988,1102.6143930999988,1102.6143930999988,1102.5980956000003,2,0.8445792999991681,0.16655159999936586,None,,,,,,,,,,,,,,,,,,,,,5613,1,2025-06-04_19h01.43.631,sm,2024.2.4,60.03172076080684,2025-06-04 19h01.58.366524 +0200,
45,0,45,,,,,,space,3.1074950999991415,None,None,2,0.8799374000009266,0.18948140000065905,None,0,0,0,0,,,,,1,0,1,0,,,,,45,0,45,0,1102.6143930999988,,,,,,,,,,,,,,,,,,,,,,,,,,,,,,,,,,,,,,,,,,,,,,,,,,,,,,,Löwe,2.021,1102.5982812999991,1102.5986151999987,1102.5986525999997,1102.6143930999988,1104.6481801999998,1104.6311805999994,1104.6341598999988,1104.6481801999998,1104.6481801999998,1104.6481801999998,1104.6481801999998,1106.6474617000003,1106.6474617000003,1106.6474617000003,1106.6474617000003,1106.6309509000002,2,0.8799374000009266,0.18948140000065905,None,,,,,,,,,,,,,,,,,,,,,5613,1,2025-06-04_19h01.43.631,sm,2024.2.4,60.03172076080684,2025-06-04 19h01.58.366524 +0200,
46,0,46,,,,,,space,3.1074950999991415,None,None,3,0.6954598999982409,0.2164680000023509,None,0,0,0,0,,,,,1,0,1,0,,,,,46,0,46,0,1106.6474617000003,,,,,,,,,,,,,,,,,,,,,,,,,,,,,,,,,,,,,,,,,,,,,,,,,,,,,,,Tal,2.3006,1106.6311401000003,1106.6313855999997,1106.6314418999991,1106.6474617000003,1108.9471587999997,1108.9309782,1108.932315199998,1108.9471587999997,1108.9471587999997,1108.9471587999997,1108.9471587999997,,,,,1110.9315124000004,3,0.6954598999982409,0.2164680000023509,None,,,,,,,,,,,,,,,,,,,,,5613,1,2025-06-04_19h01.43.631,sm,2024.2.4,60.03172076080684,2025-06-04 19h01.58.366524 +0200,
47,0,47,,,,,,space,3.1074950999991415,None,None,2,1.286179999999149,0.17158089999793447,None,0,0,0,0,,,,,1,0,1,0,,,,,47,0,47,0,1110.9479663000002,,,,,,,,,,,,,,,,,,,,,,,,,,,,,,,,,,,,,,,,,,,,,,,,,,,,,,,Tanne,3.4445,1110.9320532000002,1110.9324576999988,1110.9325590999997,1110.9479663000002,1114.3972712999985,1114.3814145999986,1114.385084399999,1114.3972712999985,1114.3972712999985,1114.3972712999985,1114.3972712999985,1116.3969978999976,1116.3969978999976,1116.3969978999976,1116.3969978999976,1116.381390299999,2,1.286179999999149,0.17158089999793447,None,,,,,,,,,,,,,,,,,,,,,5613,1,2025-06-04_19h01.43.631,sm,2024.2.4,60.03172076080684,2025-06-04 19h01.58.366524 +0200,
48,0,48,,,,,,space,3.1074950999991415,None,None,3,1.1877507000026526,0.20549259999825153,None,0,0,0,0,,,,,1,0,1,0,,,,,48,0,48,0,1116.3969978999976,,,,,,,,,,,,,,,,,,,,,,,,,,,,,,,,,,,,,,,,,,,,,,,,,,,,,,,Sumpf,2.0168,1116.3815952999994,1116.381849899999,1116.3818926000004,1116.3969978999976,1118.4139118000003,1118.3984615999998,1118.4021080000002,1118.4139118000003,1118.4139118000003,1118.4139118000003,1118.4139118000003,1120.4132158000011,1120.4132158000011,1120.4132158000011,1120.4132158000011,1120.397554000001,3,1.1877507000026526,0.20549259999825153,None,,,,,,,,,,,,,,,,,,,,,5613,1,2025-06-04_19h01.43.631,sm,2024.2.4,60.03172076080684,2025-06-04 19h01.58.366524 +0200,
49,0,49,,,,,,space,3.1074950999991415,None,None,3,0.9845173000030627,0.22336689999792725,None,0,0,0,0,,,,,1,0,1,0,,,,,49,0,49,0,1120.4132158000011,,,,,,,,,,,,,,,,,,,,,,,,,,,,,,,,,,,,,,,,,,,,,,,,,,,,,,,Weihnachten,2.9645,1120.397927699998,1120.3982019999985,1120.3982734,1120.4132158000011,1123.3798434,1123.364219699999,1123.3695091999998,1123.3798434,1123.3798434,1123.3798434,1123.3798434,1125.37997,1125.37997,1125.37997,1125.37997,1125.363744199998,3,0.9845173000030627,0.22336689999792725,None,,,,,,,,,,,,,,,,,,,,,5613,1,2025-06-04_19h01.43.631,sm,2024.2.4,60.03172076080684,2025-06-04 19h01.58.366524 +0200,
50,0,50,,,,,,space,3.1074950999991415,None,None,2,0.8360001000000921,0.19247940000059316,None,0,0,0,0,,,,,1,0,1,0,,,,,50,0,50,0,1125.37997,,,,,,,,,,,,,,,,,,,,,,,,,,,,,,,,,,,,,,,,,,,,,,,,,,,,,,,Schulter,2.1831,1125.3639346,1125.3642461,1125.3642846999992,1125.37997,1127.563469300001,1127.5466701999994,1127.5510040999998,1127.563469300001,1127.563469300001,1127.563469300001,1127.563469300001,,,,,1129.5473537999987,2,0.8360001000000921,0.19247940000059316,None,,,,,,,,,,,,,,,,,,,,,5613,1,2025-06-04_19h01.43.631,sm,2024.2.4,60.03172076080684,2025-06-04 19h01.58.366524 +0200,
51,0,51,,,,,,space,3.1074950999991415,None,None,3,0.8475251999989268,0.20951390000118408,None,0,0,0,0,,,,,1,0,1,0,,,,,51,0,51,0,1129.5636069999982,,,,,,,,,,,,,,,,,,,,,,,,,,,,,,,,,,,,,,,,,,,,,,,,,,,,,,,Mappe,2.8901,1129.547835700001,1129.5482379000005,1129.5483377,1129.5636069999982,1132.4623760999984,1132.446659299998,1132.4486830999977,1132.4623760999984,1132.4623760999984,1132.4623760999984,1132.4623760999984,1134.4633465999996,1134.4633465999996,1134.4633465999996,1134.4633465999996,1134.4472411999977,3,0.8475251999989268,0.20951390000118408,None,,,,,,,,,,,,,,,,,,,,,5613,1,2025-06-04_19h01.43.631,sm,2024.2.4,60.03172076080684,2025-06-04 19h01.58.366524 +0200,
52,0,52,,,,,,space,3.1074950999991415,None,None,2,1.1400020999972185,0.19450220000362606,None,0,0,0,0,,,,,1,0,1,0,,,,,52,0,52,0,1134.4633465999996,,,,,,,,,,,,,,,,,,,,,,,,,,,,,,,,,,,,,,,,,,,,,,,,,,,,,,,Feier,2.3419,1134.4477796999981,1134.4481393999977,1134.448247899998,1134.4633465999996,1136.8124644,1136.7977575999994,1136.8027281999985,1136.8124644,1136.8124644,1136.8124644,1136.8124644,1138.8122095999988,1138.8122095999988,1138.8122095999988,1138.8122095999988,1138.7963459000002,2,1.1400020999972185,0.19450220000362606,None,,,,,,,,,,,,,,,,,,,,,5613,1,2025-06-04_19h01.43.631,sm,2024.2.4,60.03172076080684,2025-06-04 19h01.58.366524 +0200,
53,0,53,,,,,,space,3.1074950999991415,None,None,3,1.3382340999996813,0.22527050000280724,None,0,0,0,0,,,,,1,0,1,0,,,,,53,0,53,0,1138.8122095999988,,,,,,,,,,,,,,,,,,,,,,,,,,,,,,,,,,,,,,,,,,,,,,,,,,,,,,,Postkarte,2.3362,1138.7965685,1138.7968915000001,1138.7969398000005,1138.8122095999988,1141.162198699998,1141.145708099999,1141.147467599998,1141.162198699998,1141.162198699998,1141.162198699998,1141.162198699998,,,,,1143.1458963999994,3,1.3382340999996813,0.22527050000280724,None,,,,,,,,,,,,,,,,,,,,,5613,1,2025-06-04_19h01.43.631,sm,2024.2.4,60.03172076080684,2025-06-04 19h01.58.366524 +0200,
54,0,54,,,,,,space,3.1074950999991415,None,None,2,0.9953510000013921,0.17440609999903245,None,0,0,0,0,,,,,1,0,1,0,,,,,54,0,54,0,1143.162441399998,,,,,,,,,,,,,,,,,,,,,,,,,,,,,,,,,,,,,,,,,,,,,,,,,,,,,,,Monster,4.3756,1143.1462518999997,1143.1465630000002,1143.146610400001,1143.162441399998,1147.5456689000002,1147.529818699999,1147.5340856999992,1147.5456689000002,1147.5456689000002,1147.5456689000002,1147.5456689000002,1149.5452515999987,1149.5452515999987,1149.5452515999987,1149.5452515999987,1149.5285638999976,2,0.9953510000013921,0.17440609999903245,None,,,,,,,,,,,,,,,,,,,,,5613,1,2025-06-04_19h01.43.631,sm,2024.2.4,60.03172076080684,2025-06-04 19h01.58.366524 +0200,
55,0,55,,,,,,space,3.1074950999991415,None,None,3,0.9208976000008988,0.21042189999934635,None,0,0,0,0,,,,,1,0,1,0,,,,,55,0,55,0,1149.5452515999987,,,,,,,,,,,,,,,,,,,,,,,,,,,,,,,,,,,,,,,,,,,,,,,,,,,,,,,Tasse,3.0127,1149.5289138999997,1149.5291329999982,1149.5291918999992,1149.5452515999987,1152.561969299999,1152.5464488999987,1152.5499031999989,1152.561969299999,1152.561969299999,1152.561969299999,1152.561969299999,1154.5627072000007,1154.5627072000007,1154.5627072000007,1154.5627072000007,1154.5464712999983,3,0.9208976000008988,0.21042189999934635,None,,,,,,,,,,,,,,,,,,,,,5613,1,2025-06-04_19h01.43.631,sm,2024.2.4,60.03172076080684,2025-06-04 19h01.58.366524 +0200,
56,0,56,,,,,,space,3.1074950999991415,None,None,2,0.8606862999986333,0.1934240000009595,None,0,0,0,0,,,,,1,0,1,0,,,,,56,0,56,0,1154.5627072000007,,,,,,,,,,,,,,,,,,,,,,,,,,,,,,,,,,,,,,,,,,,,,,,,,,,,,,,Eule,4.5959,1154.546825899999,1154.5472441000002,1154.5473528999992,1154.5627072000007,1159.1614590000008,1159.1457022999984,1159.1476716999987,1159.1614590000008,1159.1614590000008,1159.1614590000008,1159.1614590000008,1161.1608356999986,1161.1608356999986,1161.1608356999986,1161.1608356999986,1161.1448335000005,2,0.8606862999986333,0.1934240000009595,None,,,,,,,,,,,,,,,,,,,,,5613,1,2025-06-04_19h01.43.631,sm,2024.2.4,60.03172076080684,2025-06-04 19h01.58.366524 +0200,
57,0,57,,,,,,space,3.1074950999991415,None,None,3,1.0354415000001609,0.2313027999989572,None,0,0,0,0,,,,,1,0,1,0,,,,,57,0,57,0,1161.1608356999986,,,,,,,,,,,,,,,,,,,,,,,,,,,,,,,,,,,,,,,,,,,,,,,,,,,,,,,Trennung,2.4521,1161.1450483999997,1161.1452391000003,1161.1452869000004,1161.1608356999986,1163.6281346999986,1163.6123038999995,1163.6154996999994,1163.6281346999986,1163.6281346999986,1163.6281346999986,1163.6281346999986,1165.6280730999988,1165.6280730999988,1165.6280730999988,1165.6280730999988,1165.6121868999999,3,1.0354415000001609,0.2313027999989572,None,,,,,,,,,,,,,,,,,,,,,5613,1,2025-06-04_19h01.43.631,sm,2024.2.4,60.03172076080684,2025-06-04 19h01.58.366524 +0200,
58,0,58,,,,,,space,3.1074950999991415,None,None,3,0.870181300000695,0.1885017999993579,None,0,0,0,0,,,,,1,0,1,0,,,,,58,0,58,0,1165.6280730999988,,,,,,,,,,,,,,,,,,,,,,,,,,,,,,,,,,,,,,,,,,,,,,,,,,,,,,,Zigarette,2.8516,1165.6127270999987,1165.613209699999,1165.6133178,1165.6280730999988,1168.493880699998,1168.4784797999982,1168.4811542000007,1168.493880699998,1168.493880699998,1168.493880699998,1168.493880699998,1170.494598899999,1170.494598899999,1170.494598899999,1170.494598899999,1170.4788757000006,3,0.870181300000695,0.1885017999993579,None,,,,,,,,,,,,,,,,,,,,,5613,1,2025-06-04_19h01.43.631,sm,2024.2.4,60.03172076080684,2025-06-04 19h01.58.366524 +0200,
59,0,59,,,,,,space,3.1074950999991415,None,None,2,0.5886319999990519,0.18440600000030827,None,0,0,0,0,,,,,1,0,1,0,,,,,59,0,59,0,1170.494598899999,,,,,,,,,,,,,,,,,,,,,,,,,,,,,,,,,,,,,,,,,,,,,,,,,,,,,,,Gras,2.1949,1170.4793330999983,1170.4798154,1170.479913000001,1170.494598899999,1172.6939696999998,1172.678664500001,1172.6823342999978,1172.6939696999998,1172.6939696999998,1172.6939696999998,1172.6939696999998,1174.6932494999983,1174.6932494999983,1174.6932494999983,1174.6932494999983,1174.6778176999997,2,0.5886319999990519,0.18440600000030827,None,,,,,,,,,,,,,,,,,,,,,5613,1,2025-06-04_19h01.43.631,sm,2024.2.4,60.03172076080684,2025-06-04 19h01.58.366524 +0200,
60,0,60,,,,,,space,3.1074950999991415,None,None,3,1.1362100999976974,0.22447979999924428,None,0,0,0,0,,,,,1,0,1,0,,,,,60,0,60,0,1174.6932494999983,,,,,,,,,,,,,,,,,,,,,,,,,,,,,,,,,,,,,,,,,,,,,,,,,,,,,,,Bad,4.4767,1174.678013499999,1174.6781968999985,1174.6782352999999,1174.6932494999983,1179.1773779999985,1179.1604844999983,1179.1623125999995,1179.1773779999985,1179.1773779999985,1179.1773779999985,1179.1773779999985,1181.1762001999978,1181.1762001999978,1181.1762001999978,1181.1762001999978,1181.1603453999978,3,1.1362100999976974,0.22447979999924428,None,,,,,,,,,,,,,,,,,,,,,5613,1,2025-06-04_19h01.43.631,sm,2024.2.4,60.03172076080684,2025-06-04 19h01.58.366524 +0200,
61,0,61,,,,,,space,3.1074950999991415,None,None,2,0.6789238000019395,0.18858299999919836,None,0,0,0,0,,,,,1,0,1,0,,,,,61,0,61,0,1181.1762001999978,,,,,,,,,,,,,,,,,,,,,,,,,,,,,,,,,,,,,,,,,,,,,,,,,,,,,,,Orange,2.7992,1181.1605513999984,1181.160785099999,1181.1608529999994,1181.1762001999978,1183.9770152,1183.960889699998,1183.963976099998,1183.9770152,1183.9770152,1183.9770152,1183.9770152,1185.9770445999984,1185.9770445999984,1185.9770445999984,1185.9770445999984,1185.9607410000008,2,0.6789238000019395,0.18858299999919836,None,,,,,,,,,,,,,,,,,,,,,5613,1,2025-06-04_19h01.43.631,sm,2024.2.4,60.03172076080684,2025-06-04 19h01.58.366524 +0200,
62,0,62,,,,,,space,3.1074950999991415,None,None,2,1.9046732999995584,None,None,0,0,0,0,,,,,1,0,1,0,,,,,62,0,62,0,1185.9770445999984,,,,,,,,,,,,,,,,,,,,,,,,,,,,,,,,,,,,,,,,,,,,,,,,,,,,,,,Präsident,2.9832,1185.9612018999997,1185.9615522000004,1185.961648300001,1185.9770445999984,1188.9606427999988,1188.9437581000002,1188.946186700001,1188.9606427999988,1188.9606427999988,1188.9606427999988,1188.9606427999988,1190.9601568999988,1190.9601568999988,1190.9601568999988,1190.9601568999988,1190.9443000999981,2,1.9046732999995584,None,None,,,,,,,,,,,,,,,,,,,,,5613,1,2025-06-04_19h01.43.631,sm,2024.2.4,60.03172076080684,2025-06-04 19h01.58.366524 +0200,
63,0,63,,,,,,space,3.1074950999991415,None,None,3,0.6527397999998357,0.1963039000002027,None,0,0,0,0,,,,,1,0,1,0,,,,,63,0,63,0,1190.9601568999988,,,,,,,,,,,,,,,,,,,,,,,,,,,,,,,,,,,,,,,,,,,,,,,,,,,,,,,Gold,3.6005,1190.9447782000007,1190.945303300001,1190.9454012999977,1190.9601568999988,1194.575404199999,1194.559426599999,1194.5608166000002,1194.575404199999,1194.575404199999,1194.575404199999,1194.575404199999,,,,,1196.5601982999997,3,0.6527397999998357,0.1963039000002027,None,,,,,,,,,,,,,,,,,,,,,5613,1,2025-06-04_19h01.43.631,sm,2024.2.4,60.03172076080684,2025-06-04 19h01.58.366524 +0200,
64,0,64,,,,,,space,3.1074950999991415,None,None,3,0.7719644999997399,0.19150879999870085,None,0,0,0,0,,,,,1,0,1,0,,,,,64,0,64,0,1196.5766153999994,,,,,,,,,,,,,,,,,,,,,,,,,,,,,,,,,,,,,,,,,,,,,,,,,,,,,,,Schwimmen,2.5377,1196.560709899999,1196.5612405999982,1196.561384300001,1196.5766153999994,1199.1262909999987,1199.110314399999,1199.112256800001,1199.1262909999987,1199.1262909999987,1199.1262909999987,1199.1262909999987,1201.1257939000006,1201.1257939000006,1201.1257939000006,1201.1257939000006,1201.1096505000005,3,0.7719644999997399,0.19150879999870085,None,,,,,,,,,,,,,,,,,,,,,5613,1,2025-06-04_19h01.43.631,sm,2024.2.4,60.03172076080684,2025-06-04 19h01.58.366524 +0200,
65,0,65,,,,,,space,3.1074950999991415,None,None,2,0.6969424999988405,0.15666260000216425,None,0,0,0,0,,,,,1,0,1,0,,,,,65,0,65,0,1201.1257939000006,,,,,,,,,,,,,,,,,,,,,,,,,,,,,,,,,,,,,,,,,,,,,,,,,,,,,,,Gemüse,3.6723,1201.1098946000002,1201.1102761999991,1201.1103273999997,1201.1257939000006,1204.8093052999993,1204.7929399000004,1204.7951988999976,1204.8093052999993,1204.8093052999993,1204.8093052999993,1204.8093052999993,1206.8082787000003,1206.8082787000003,1206.8082787000003,1206.8082787000003,1206.7922264999997,2,0.6969424999988405,0.15666260000216425,None,,,,,,,,,,,,,,,,,,,,,5613,1,2025-06-04_19h01.43.631,sm,2024.2.4,60.03172076080684,2025-06-04 19h01.58.366524 +0200,
66,0,66,,,,,,space,3.1074950999991415,None,None,3,0.71887009999773,0.19345520000206307,None,0,0,0,0,,,,,1,0,1,0,,,,,66,0,66,0,1206.8082787000003,,,,,,,,,,,,,,,,,,,,,,,,,,,,,,,,,,,,,,,,,,,,,,,,,,,,,,,Sendung,4.0852,1206.7924402000008,1206.7926215999996,1206.7926607999998,1206.8082787000003,1210.9081371999982,1210.8917394,1210.8933085000008,1210.9081371999982,1210.9081371999982,1210.9081371999982,1210.9081371999982,,,,,1212.8922597,3,0.71887009999773,0.19345520000206307,None,,,,,,,,,,,,,,,,,,,,,5613,1,2025-06-04_19h01.43.631,sm,2024.2.4,60.03172076080684,2025-06-04 19h01.58.366524 +0200,
67,0,67,,,,,,space,3.1074950999991415,None,None,3,0.6679403999987699,0.2034708999999566,None,0,0,0,0,,,,,1,0,1,0,,,,,67,0,67,0,1212.9084301999992,,,,,,,,,,,,,,,,,,,,,,,,,,,,,,,,,,,,,,,,,,,,,,,,,,,,,,,Wind,2.0934,1212.8926761999992,1212.893143700001,1212.8932370999992,1212.9084301999992,1215.0081346999996,1214.9921482000009,1214.9952777999988,1215.0081346999996,1215.0081346999996,1215.0081346999996,1215.0081346999996,1217.0080758999993,1217.0080758999993,1217.0080758999993,1217.0080758999993,1216.991672099999,3,0.6679403999987699,0.2034708999999566,None,,,,,,,,,,,,,,,,,,,,,5613,1,2025-06-04_19h01.43.631,sm,2024.2.4,60.03172076080684,2025-06-04 19h01.58.366524 +0200,
