thisN,thisTrialN,thisRepN,Cue,Target,Mediator1,Mediator2,iti,scanner_ready_press.keys,scanner_ready_press.rt,scanner_ready_press.duration,skip_trigger.keys,living_nonliving.keys,end_mapping.keys,living_nonliving.rt,living_nonliving.duration,blocks.thisRepN,blocks.thisTrialN,blocks.thisN,blocks.thisIndex,load_and_shuffle.thisRepN,load_and_shuffle.thisTrialN,load_and_shuffle.thisN,load_and_shuffle.thisIndex,runs.thisRepN,runs.thisTrialN,runs.thisN,runs.thisIndex,iti_loading_loop.thisRepN,iti_loading_loop.thisTrialN,iti_loading_loop.thisN,iti_loading_loop.thisIndex,semantic_mapping_run.thisRepN,semantic_mapping_run.thisTrialN,semantic_mapping_run.thisN,semantic_mapping_run.thisIndex,thisRow.t,notes,welcome.started,welcome_text.started,key_resp__welcome.started,welcome.stopped,key_resp__welcome.keys,key_resp__welcome.rt,key_resp__welcome.duration,scout.started,scout_text.started,key_resp.started,scout.stopped,key_resp.keys,key_resp.rt,key_resp.duration,instructions_semantic_mapping1.started,sm_instructions1_text.started,sm_instructions1_key.started,instructions_semantic_mapping1.stopped,sm_instructions1_key.keys,sm_instructions1_key.rt,sm_instructions1_key.duration,instructions_semantic_mapping2.started,sm_instructions2_text.started,sm_instructions2_key.started,instructions_semantic_mapping2.stopped,sm_instructions2_key.keys,sm_instructions2_key.rt,sm_instructions2_key.duration,reset_run.started,reset_run.stopped,shuffle_items.started,shuffle_items.stopped,set_up_runs.started,set_up_runs.stopped,load_iti.started,load_iti.stopped,prep_scanner.started,scanner_ready_press.started,ready_set_text.started,prep_scanner.stopped,runs.scanner_ready_press.keys,runs.scanner_ready_press.rt,runs.scanner_ready_press.duration,wait_for_trigger.started,starting_soon.started,skip_trigger.started,wait_for_trigger.stopped,runs.skip_trigger.keys,blank.started,begin_end_run_cross.started,sound_1.started,sound_1.stopped,sound_2.started,sound_2.stopped,blank.stopped,CurrentItem,CurrentITI,set_up_trial.started,set_up_trial.stopped,sm_iti.started,iti_cross.started,iti_cross.stopped,sm_iti.stopped,item.started,living_nonliving.started,end_mapping.started,living_nonliving_text.started,semantic_map_item.started,living_nonliving.stopped,end_mapping.stopped,living_nonliving_text.stopped,semantic_map_item.stopped,item.stopped,semantic_mapping_run.living_nonliving.keys,semantic_mapping_run.end_mapping.keys,semantic_mapping_run.living_nonliving.rt,semantic_mapping_run.living_nonliving.duration,fieldmap.started,fieldmap.stopped,runs.fm_key.keys,task_break.started,feeback_text.started,task_break_text.started,task_break_resp.started,feeback_text.stopped,task_break.stopped,runs.task_break_resp.keys,runs.task_break_resp.rt,runs.task_break_resp.duration,begin_end_run_cross.stopped,fm_text.started,fm_key.started,runs.fm_key.rt,runs.fm_key.duration,thanks.started,thanks_text.started,thanks_text.stopped,thanks.stopped,PID,MRI,date,expName,psychopyVersion,frameRate,expStart,
,,,,,,,,,,,,,,,,,,,,,,,,,,,,,,,,,,,,,,0.0035969000000477536,0.00879010000062408,0.00879010000062408,216.6480306000003,space,216.62701679999918,None,,,,,,,,,,,,,,,,,,,,,,,,,,,,,,,,,,,,,,,,,,,,,,,,,,,,,,,,,,,,,,,,,,,,,,,,,,,,,,,,,,,,,,,,,,,,3098,1,2025-10-31_09h55.28.706,sm,2024.2.4,59.960234372539105,2025-10-31 09h56.23.971073 +0100,
,,,,,,,,,,,,,,,,,,,,,,,,,,,,,,,,,,,,,,,,,,,,,216.6481631000006,216.66285210000024,216.66285210000024,277.54483620000065,space,60.86975439999969,None,,,,,,,,,,,,,,,,,,,,,,,,,,,,,,,,,,,,,,,,,,,,,,,,,,,,,,,,,,,,,,,,,,,,,,,,,,,,,,,,,,,,,3098,1,2025-10-31_09h55.28.706,sm,2024.2.4,59.960234372539105,2025-10-31 09h56.23.971073 +0100,
,,,,,,,,,,,,,,,,,,,,,,,,,,,,,,,,,,,,,,,,,,,,,,,,,,,,277.5449643000002,277.5593806000006,277.5593806000006,284.0105846000006,2,6.439683999999943,None,,,,,,,,,,,,,,,,,,,,,,,,,,,,,,,,,,,,,,,,,,,,,,,,,,,,,,,,,,,,,,,,,,,,,,,,,,,,,,3098,1,2025-10-31_09h55.28.706,sm,2024.2.4,59.960234372539105,2025-10-31 09h56.23.971073 +0100,
,,,,,,,,,,,,,,,,,,,,,,,,,,,,,,,,,,,,,,,,,,,,,,,,,,,,,,,,,,,284.01070290000007,284.0253444,284.0253444,297.85972330000004,2,13.817566499999884,None,,,,,,,,,,,,,,,,,,,,,,,,,,,,,,,,,,,,,,,,,,,,,,,,,,,,,,,,,,,,,,,,,,,,,,,3098,1,2025-10-31_09h55.28.706,sm,2024.2.4,59.960234372539105,2025-10-31 09h56.23.971073 +0100,
0,0,0,Anführer,Team,Anhänger,Präsident,2.0073,space,4.452440499999284,None,None,None,None,,,0,0,0,0,0,79,79,67,0,0,0,0,0,79,79,48,0,0,0,0,361.6711036000006,,,,,,,,,,,,,,,,,,,,,,,,,,,,,,297.86071880000054,297.86150910000015,297.92648629999985,297.9267911000006,297.9313007999999,297.93160700000044,297.96125889999985,297.9614571000002,297.9681829000001,297.9761804999998,297.9761804999998,302.44274360000054,space,4.452440499999284,None,302.4429048000002,302.4525988000005,302.4525988000005,349.6401125000002,None,349.6487369000006,349.6571042000005,349.65535986666714,350.86622650000027,359.6545584666667,360.6563291000002,361.654501,Sicherheit,2.0073,361.6559207,361.6566066000005,361.65969380000024,361.6711036000006,363.68722230000003,363.67237680000017,363.67704420000064,363.68722230000003,363.68722230000003,363.68722230000003,363.68722230000003,365.68755750000037,365.68755750000037,365.68755750000037,365.68755750000037,365.67193920000045,None,None,,,,,,,,,,,,,,,,,,,,,,,,3098,1,2025-10-31_09h55.28.706,sm,2024.2.4,59.960234372539105,2025-10-31 09h56.23.971073 +0100,
1,0,1,,,,,,space,4.452440499999284,None,None,3,None,0.8550426000001607,0.16792879999957222,0,0,0,0,,,,,0,0,0,0,,,,,1,0,1,0,365.68755750000037,,,,,,,,,,,,,,,,,,,,,,,,,,,,,,,,,,,,,,,,,,,,,,,,,,,,,,,,,Kamera,3.0384,365.6724316,365.67293599999994,365.6730416999999,365.68755750000037,368.7373197000006,368.72157590000006,368.72899529999995,368.7373197000006,368.7373197000006,368.7373197000006,368.7373197000006,370.7373286000002,370.7373286000002,370.7373286000002,370.7373286000002,370.7219576000007,3,None,0.8550426000001607,0.16792879999957222,,,,,,,,,,,,,,,,,,,,,,3098,1,2025-10-31_09h55.28.706,sm,2024.2.4,59.960234372539105,2025-10-31 09h56.23.971073 +0100,
2,0,2,,,,,,space,4.452440499999284,None,None,3,None,0.9434424999999464,0.14528410000002623,0,0,0,0,,,,,0,0,0,0,,,,,2,0,2,0,370.7373286000002,,,,,,,,,,,,,,,,,,,,,,,,,,,,,,,,,,,,,,,,,,,,,,,,,,,,,,,,,Statue,2.0034,370.72248050000053,370.72299680000015,370.72310860000016,370.7373286000002,372.7535863000003,372.7378789000004,372.7416355000005,372.7535863000003,372.7535863000003,372.7535863000003,372.7535863000003,374.7537473000002,374.7537473000002,374.7537473000002,374.7537473000002,374.7381548000003,3,None,0.9434424999999464,0.14528410000002623,,,,,,,,,,,,,,,,,,,,,,3098,1,2025-10-31_09h55.28.706,sm,2024.2.4,59.960234372539105,2025-10-31 09h56.23.971073 +0100,
3,0,3,,,,,,space,4.452440499999284,None,None,3,None,0.8866174000004321,0.15462699999989127,0,0,0,0,,,,,0,0,0,0,,,,,3,0,3,0,374.7537473000002,,,,,,,,,,,,,,,,,,,,,,,,,,,,,,,,,,,,,,,,,,,,,,,,,,,,,,,,,Mappe,2.1588,374.7386733000003,374.73919920000026,374.73930420000033,374.7537473000002,376.9197941000002,376.90416150000055,376.90764070000023,376.9197941000002,376.9197941000002,376.9197941000002,376.9197941000002,378.9200558000002,378.9200558000002,378.9200558000002,378.9200558000002,378.9044254999999,3,None,0.8866174000004321,0.15462699999989127,,,,,,,,,,,,,,,,,,,,,,3098,1,2025-10-31_09h55.28.706,sm,2024.2.4,59.960234372539105,2025-10-31 09h56.23.971073 +0100,
4,0,4,,,,,,space,4.452440499999284,None,None,3,None,0.6934385999993538,0.18512989999999263,0,0,0,0,,,,,0,0,0,0,,,,,4,0,4,0,378.9200558000002,,,,,,,,,,,,,,,,,,,,,,,,,,,,,,,,,,,,,,,,,,,,,,,,,,,,,,,,,Lokomotive,2.3577,378.9049534000005,378.9055655000002,378.9056709000006,378.9200558000002,381.2866111000003,381.27091070000006,381.2754029000007,381.2866111000003,381.2866111000003,381.2866111000003,381.2866111000003,383.2864319999999,383.2864319999999,383.2864319999999,383.2864319999999,383.2708655000006,3,None,0.6934385999993538,0.18512989999999263,,,,,,,,,,,,,,,,,,,,,,3098,1,2025-10-31_09h55.28.706,sm,2024.2.4,59.960234372539105,2025-10-31 09h56.23.971073 +0100,
5,0,5,,,,,,space,4.452440499999284,None,None,2,None,0.7950569999993604,0.18439710000075138,0,0,0,0,,,,,0,0,0,0,,,,,5,0,5,0,383.2864319999999,,,,,,,,,,,,,,,,,,,,,,,,,,,,,,,,,,,,,,,,,,,,,,,,,,,,,,,,,Geschmack,2.8395,383.2713829000004,383.2719610000004,383.2720680000002,383.2864319999999,386.13626530000056,386.1208118000004,386.1252291999999,386.13626530000056,386.13626530000056,386.13626530000056,386.13626530000056,388.13631760000044,388.13631760000044,388.13631760000044,388.13631760000044,388.1207413000002,2,None,0.7950569999993604,0.18439710000075138,,,,,,,,,,,,,,,,,,,,,,3098,1,2025-10-31_09h55.28.706,sm,2024.2.4,59.960234372539105,2025-10-31 09h56.23.971073 +0100,
6,0,6,,,,,,space,4.452440499999284,None,None,3,None,0.9264861999999994,0.18109459999959654,0,0,0,0,,,,,0,0,0,0,,,,,6,0,6,0,388.13631760000044,,,,,,,,,,,,,,,,,,,,,,,,,,,,,,,,,,,,,,,,,,,,,,,,,,,,,,,,,Duft,4.4662,388.1212559000005,388.1217787000005,388.1218867000007,388.13631760000044,392.6025875000005,392.5866924000002,392.5899635000005,392.6025875000005,392.6025875000005,392.6025875000005,392.6025875000005,394.6024946000007,394.6024946000007,394.6024946000007,394.6024946000007,394.5870152000007,3,None,0.9264861999999994,0.18109459999959654,,,,,,,,,,,,,,,,,,,,,,3098,1,2025-10-31_09h55.28.706,sm,2024.2.4,59.960234372539105,2025-10-31 09h56.23.971073 +0100,
7,0,7,,,,,,space,4.452440499999284,None,None,3,None,1.045450499999788,0.17450000000008004,0,0,0,0,,,,,0,0,0,0,,,,,7,0,7,0,394.6024946000007,,,,,,,,,,,,,,,,,,,,,,,,,,,,,,,,,,,,,,,,,,,,,,,,,,,,,,,,,Rock,3.4571,394.58752989999994,394.5880407000004,394.5881474000007,394.6024946000007,398.0686375000005,398.05322760000035,398.05640680000033,398.0686375000005,398.0686375000005,398.0686375000005,398.0686375000005,400.06900360000054,400.06900360000054,400.06900360000054,400.06900360000054,400.0533006000005,3,None,1.045450499999788,0.17450000000008004,,,,,,,,,,,,,,,,,,,,,,3098,1,2025-10-31_09h55.28.706,sm,2024.2.4,59.960234372539105,2025-10-31 09h56.23.971073 +0100,
8,0,8,,,,,,space,4.452440499999284,None,None,2,None,0.959942299999966,0.1403370999996696,0,0,0,0,,,,,0,0,0,0,,,,,8,0,8,0,400.06900360000054,,,,,,,,,,,,,,,,,,,,,,,,,,,,,,,,,,,,,,,,,,,,,,,,,,,,,,,,,Pflege,2.0159,400.0538049000006,400.0543133000001,400.0544211000006,400.06900360000054,402.08485420000034,402.0698276000003,402.0766874000001,402.08485420000034,402.08485420000034,402.08485420000034,402.08485420000034,404.08540059999996,404.08540059999996,404.08540059999996,404.08540059999996,404.06968719999986,2,None,0.959942299999966,0.1403370999996696,,,,,,,,,,,,,,,,,,,,,,3098,1,2025-10-31_09h55.28.706,sm,2024.2.4,59.960234372539105,2025-10-31 09h56.23.971073 +0100,
9,0,9,,,,,,space,4.452440499999284,None,None,2,None,0.7258080000001428,0.20807039999999688,0,0,0,0,,,,,0,0,0,0,,,,,9,0,9,0,404.08540059999996,,,,,,,,,,,,,,,,,,,,,,,,,,,,,,,,,,,,,,,,,,,,,,,,,,,,,,,,,Humor,3.5236,404.0702445000006,404.07081000000017,404.0709188999999,404.08540059999996,407.6181544000001,407.6027118000002,407.60830590000023,407.6181544000001,407.6181544000001,407.6181544000001,407.6181544000001,409.6182058000004,409.6182058000004,409.6182058000004,409.6182058000004,409.6028225,2,None,0.7258080000001428,0.20807039999999688,,,,,,,,,,,,,,,,,,,,,,3098,1,2025-10-31_09h55.28.706,sm,2024.2.4,59.960234372539105,2025-10-31 09h56.23.971073 +0100,
10,0,10,,,,,,space,4.452440499999284,None,None,2,None,0.7656889999998384,0.14650059999985388,0,0,0,0,,,,,0,0,0,0,,,,,10,0,10,0,409.6182058000004,,,,,,,,,,,,,,,,,,,,,,,,,,,,,,,,,,,,,,,,,,,,,,,,,,,,,,,,,Konzert,2.6695,409.60334690000036,409.60398630000054,409.60409230000005,409.6182058000004,412.30118459999994,412.2859311000002,412.2898565000005,412.30118459999994,412.30118459999994,412.30118459999994,412.30118459999994,414.3014129000003,414.3014129000003,414.3014129000003,414.3014129000003,414.2863146999998,2,None,0.7656889999998384,0.14650059999985388,,,,,,,,,,,,,,,,,,,,,,3098,1,2025-10-31_09h55.28.706,sm,2024.2.4,59.960234372539105,2025-10-31 09h56.23.971073 +0100,
11,0,11,,,,,,space,4.452440499999284,None,None,3,None,0.8495379000005414,0.18246829999952752,0,0,0,0,,,,,0,0,0,0,,,,,11,0,11,0,414.3014129000003,,,,,,,,,,,,,,,,,,,,,,,,,,,,,,,,,,,,,,,,,,,,,,,,,,,,,,,,,Dunkelheit,4.1216,414.28686150000067,414.2877358000005,414.2878717000003,414.3014129000003,418.4345120000007,418.4189614000006,418.42328820000057,418.4345120000007,418.4345120000007,418.4345120000007,418.4345120000007,420.4344135000001,420.4344135000001,420.4344135000001,420.4344135000001,420.4187533000004,3,None,0.8495379000005414,0.18246829999952752,,,,,,,,,,,,,,,,,,,,,,3098,1,2025-10-31_09h55.28.706,sm,2024.2.4,59.960234372539105,2025-10-31 09h56.23.971073 +0100,
12,0,12,,,,,,space,4.452440499999284,None,None,2,None,0.813043000000107,0.16867369999999937,0,0,0,0,,,,,0,0,0,0,,,,,12,0,12,0,420.4344135000001,,,,,,,,,,,,,,,,,,,,,,,,,,,,,,,,,,,,,,,,,,,,,,,,,,,,,,,,,Professor,2.0433,420.41927550000037,420.41979660000015,420.4199073,420.4344135000001,422.48401939999985,422.46865160000016,422.4727034000007,422.48401939999985,422.48401939999985,422.48401939999985,422.48401939999985,424.4840647000001,424.4840647000001,424.4840647000001,424.4840647000001,424.46832450000056,2,None,0.813043000000107,0.16867369999999937,,,,,,,,,,,,,,,,,,,,,,3098,1,2025-10-31_09h55.28.706,sm,2024.2.4,59.960234372539105,2025-10-31 09h56.23.971073 +0100,
13,0,13,,,,,,space,4.452440499999284,None,None,3,None,0.9242510999993101,0.17395639999995183,0,0,0,0,,,,,0,0,0,0,,,,,13,0,13,0,424.4840647000001,,,,,,,,,,,,,,,,,,,,,,,,,,,,,,,,,,,,,,,,,,,,,,,,,,,,,,,,,Zigarette,4.3412,424.4688365000002,424.46936240000014,424.46946710000066,424.4840647000001,428.8337489000005,428.8183499000006,428.82512680000036,428.8337489000005,428.8337489000005,428.8337489000005,428.8337489000005,430.8336296000007,430.8336296000007,430.8336296000007,430.8336296000007,430.8182089000002,3,None,0.9242510999993101,0.17395639999995183,,,,,,,,,,,,,,,,,,,,,,3098,1,2025-10-31_09h55.28.706,sm,2024.2.4,59.960234372539105,2025-10-31 09h56.23.971073 +0100,
14,0,14,,,,,,space,4.452440499999284,None,None,3,None,1.0191500000000815,0.15956379999988712,0,0,0,0,,,,,0,0,0,0,,,,,14,0,14,0,430.8336296000007,,,,,,,,,,,,,,,,,,,,,,,,,,,,,,,,,,,,,,,,,,,,,,,,,,,,,,,,,Ferien,2.4266,430.8187316000003,430.81934510000065,430.81945220000034,430.8336296000007,433.2665252000006,433.25104720000036,433.25788869999997,433.2665252000006,433.2665252000006,433.2665252000006,433.2665252000006,435.26685610000004,435.26685610000004,435.26685610000004,435.26685610000004,435.2512649999999,3,None,1.0191500000000815,0.15956379999988712,,,,,,,,,,,,,,,,,,,,,,3098,1,2025-10-31_09h55.28.706,sm,2024.2.4,59.960234372539105,2025-10-31 09h56.23.971073 +0100,
15,0,15,,,,,,space,4.452440499999284,None,None,2,None,0.5904270000000906,0.1549973000001046,0,0,0,0,,,,,0,0,0,0,,,,,15,0,15,0,435.26685610000004,,,,,,,,,,,,,,,,,,,,,,,,,,,,,,,,,,,,,,,,,,,,,,,,,,,,,,,,,Präsident,2.9966,435.25178310000047,435.2522895000002,435.2523953,435.26685610000004,438.26678660000016,438.25122869999996,438.2555362000003,438.26678660000016,438.26678660000016,438.26678660000016,438.26678660000016,440.26673240000036,440.26673240000036,440.26673240000036,440.26673240000036,440.2508478,2,None,0.5904270000000906,0.1549973000001046,,,,,,,,,,,,,,,,,,,,,,3098,1,2025-10-31_09h55.28.706,sm,2024.2.4,59.960234372539105,2025-10-31 09h56.23.971073 +0100,
16,0,16,,,,,,space,4.452440499999284,None,None,2,None,0.8539759999994203,0.15159570000014355,0,0,0,0,,,,,0,0,0,0,,,,,16,0,16,0,440.26673240000036,,,,,,,,,,,,,,,,,,,,,,,,,,,,,,,,,,,,,,,,,,,,,,,,,,,,,,,,,Riechen,4.5009,440.2513654000004,440.2518751000007,440.25198,440.26673240000036,444.78335870000046,444.7670966000005,444.77096320000055,444.78335870000046,444.78335870000046,444.78335870000046,444.78335870000046,446.7827425000005,446.7827425000005,446.7827425000005,446.7827425000005,446.7672511999999,2,None,0.8539759999994203,0.15159570000014355,,,,,,,,,,,,,,,,,,,,,,3098,1,2025-10-31_09h55.28.706,sm,2024.2.4,59.960234372539105,2025-10-31 09h56.23.971073 +0100,
17,0,17,,,,,,space,4.452440499999284,None,None,2,None,1.0339578000002803,0.16653219999989233,0,0,0,0,,,,,0,0,0,0,,,,,17,0,17,0,446.7827425000005,,,,,,,,,,,,,,,,,,,,,,,,,,,,,,,,,,,,,,,,,,,,,,,,,,,,,,,,,Moor,3.0836,446.7677665000001,446.76846840000053,446.76864660000047,446.7827425000005,449.8658264000005,449.85007980000046,449.8532799000004,449.8658264000005,449.8658264000005,449.8658264000005,449.8658264000005,451.86607379999987,451.86607379999987,451.86607379999987,451.86607379999987,451.8502621000007,2,None,1.0339578000002803,0.16653219999989233,,,,,,,,,,,,,,,,,,,,,,3098,1,2025-10-31_09h55.28.706,sm,2024.2.4,59.960234372539105,2025-10-31 09h56.23.971073 +0100,
18,0,18,,,,,,space,4.452440499999284,None,None,3,None,0.6899287000005643,0.1764919999995982,0,0,0,0,,,,,0,0,0,0,,,,,18,0,18,0,451.86607379999987,,,,,,,,,,,,,,,,,,,,,,,,,,,,,,,,,,,,,,,,,,,,,,,,,,,,,,,,,Tisch,2.6047,451.8507771000004,451.8515084999999,451.8516171000001,451.86607379999987,454.48282480000034,454.4663145000004,454.46967940000013,454.48282480000034,454.48282480000034,454.48282480000034,454.48282480000034,456.48241020000023,456.48241020000023,456.48241020000023,456.48241020000023,456.46682020000026,3,None,0.6899287000005643,0.1764919999995982,,,,,,,,,,,,,,,,,,,,,,3098,1,2025-10-31_09h55.28.706,sm,2024.2.4,59.960234372539105,2025-10-31 09h56.23.971073 +0100,
19,0,19,,,,,,space,4.452440499999284,None,None,2,None,1.2758043999992879,0.18189070000062202,0,0,0,0,,,,,0,0,0,0,,,,,19,0,19,0,456.48241020000023,,,,,,,,,,,,,,,,,,,,,,,,,,,,,,,,,,,,,,,,,,,,,,,,,,,,,,,,,Tradition,3.7738,456.46733440000025,456.4680664000007,456.46817569999985,456.48241020000023,460.2652975000001,460.25015150000036,460.25463880000007,460.2652975000001,460.2652975000001,460.2652975000001,460.2652975000001,462.2654177000004,462.2654177000004,462.2654177000004,462.2654177000004,462.2494703000002,2,None,1.2758043999992879,0.18189070000062202,,,,,,,,,,,,,,,,,,,,,,3098,1,2025-10-31_09h55.28.706,sm,2024.2.4,59.960234372539105,2025-10-31 09h56.23.971073 +0100,
20,0,20,,,,,,space,4.452440499999284,None,None,3,None,1.0191882000008263,0.17786939999950846,0,0,0,0,,,,,0,0,0,0,,,,,20,0,20,0,462.2654177000004,,,,,,,,,,,,,,,,,,,,,,,,,,,,,,,,,,,,,,,,,,,,,,,,,,,,,,,,,Kerzen,3.4371,462.24996550000014,462.2504744000007,462.25058460000037,462.2654177000004,465.71490690000064,465.6995747000001,465.7036855000006,465.71490690000064,465.71490690000064,465.71490690000064,465.71490690000064,467.71514490000027,467.71514490000027,467.71514490000027,467.71514490000027,467.6994943999998,3,None,1.0191882000008263,0.17786939999950846,,,,,,,,,,,,,,,,,,,,,,3098,1,2025-10-31_09h55.28.706,sm,2024.2.4,59.960234372539105,2025-10-31 09h56.23.971073 +0100,
21,0,21,,,,,,space,4.452440499999284,None,None,3,None,0.7830886000001556,0.1374949999999444,0,0,0,0,,,,,0,0,0,0,,,,,21,0,21,0,467.71514490000027,,,,,,,,,,,,,,,,,,,,,,,,,,,,,,,,,,,,,,,,,,,,,,,,,,,,,,,,,Skizze,3.2407,467.69999929999994,467.70057559999987,467.70068119999996,467.71514490000027,470.9644799000007,470.9490900999999,470.95410640000046,470.9644799000007,470.9644799000007,470.9644799000007,470.9644799000007,472.96482920000017,472.96482920000017,472.96482920000017,472.96482920000017,472.9492788000007,3,None,0.7830886000001556,0.1374949999999444,,,,,,,,,,,,,,,,,,,,,,3098,1,2025-10-31_09h55.28.706,sm,2024.2.4,59.960234372539105,2025-10-31 09h56.23.971073 +0100,
22,0,22,,,,,,space,4.452440499999284,None,None,3,None,1.4624836000002688,0.16936699999951088,0,0,0,0,,,,,0,0,0,0,,,,,22,0,22,0,472.96482920000017,,,,,,,,,,,,,,,,,,,,,,,,,,,,,,,,,,,,,,,,,,,,,,,,,,,,,,,,,Kapitel,2.0557,472.9497928999999,472.95044320000034,472.9505476000004,472.96482920000017,475.0310773000001,475.0155596000004,475.01973240000007,475.0310773000001,475.0310773000001,475.0310773000001,475.0310773000001,477.03115849999995,477.03115849999995,477.03115849999995,477.03115849999995,477.01559780000025,3,None,1.4624836000002688,0.16936699999951088,,,,,,,,,,,,,,,,,,,,,,3098,1,2025-10-31_09h55.28.706,sm,2024.2.4,59.960234372539105,2025-10-31 09h56.23.971073 +0100,
23,0,23,,,,,,space,4.452440499999284,None,None,3,None,0.8987804999997024,0.20141010000043025,0,0,0,0,,,,,0,0,0,0,,,,,23,0,23,0,477.03115849999995,,,,,,,,,,,,,,,,,,,,,,,,,,,,,,,,,,,,,,,,,,,,,,,,,,,,,,,,,Ring,2.4971,477.0161071000002,477.0169186000003,477.0170240000007,477.03115849999995,479.53078970000024,479.5154014,479.51879499999995,479.53078970000024,479.53078970000024,479.53078970000024,479.53078970000024,481.5307182000006,481.5307182000006,481.5307182000006,481.5307182000006,481.51518980000037,3,None,0.8987804999997024,0.20141010000043025,,,,,,,,,,,,,,,,,,,,,,3098,1,2025-10-31_09h55.28.706,sm,2024.2.4,59.960234372539105,2025-10-31 09h56.23.971073 +0100,
24,0,24,,,,,,space,4.452440499999284,None,None,3,None,0.8606116999999358,0.18409840000003896,0,0,0,0,,,,,0,0,0,0,,,,,24,0,24,0,481.5307182000006,,,,,,,,,,,,,,,,,,,,,,,,,,,,,,,,,,,,,,,,,,,,,,,,,,,,,,,,,Kälte,3.3433,481.5157018,481.516345,481.51645390000067,481.5307182000006,484.88041729999986,484.8648170000006,484.8683079000002,484.88041729999986,484.88041729999986,484.88041729999986,484.88041729999986,486.8805620000003,486.8805620000003,486.8805620000003,486.8805620000003,486.8648066000005,3,None,0.8606116999999358,0.18409840000003896,,,,,,,,,,,,,,,,,,,,,,3098,1,2025-10-31_09h55.28.706,sm,2024.2.4,59.960234372539105,2025-10-31 09h56.23.971073 +0100,
25,0,25,,,,,,space,4.452440499999284,None,None,2,None,1.190093600000182,0.17090809999990597,0,0,0,0,,,,,0,0,0,0,,,,,25,0,25,0,486.8805620000003,,,,,,,,,,,,,,,,,,,,,,,,,,,,,,,,,,,,,,,,,,,,,,,,,,,,,,,,,Agent,2.3909,486.8653248999999,486.8659056000006,486.86601729999984,486.8805620000003,489.2800575000001,489.2645247999999,489.2679207000001,489.2800575000001,489.2800575000001,489.2800575000001,489.2800575000001,491.28060970000024,491.28060970000024,491.28060970000024,491.28060970000024,491.2645766000005,2,None,1.190093600000182,0.17090809999990597,,,,,,,,,,,,,,,,,,,,,,3098,1,2025-10-31_09h55.28.706,sm,2024.2.4,59.960234372539105,2025-10-31 09h56.23.971073 +0100,
26,0,26,,,,,,space,4.452440499999284,None,None,3,None,0.8692983000000822,0.2592871999995623,0,0,0,0,,,,,0,0,0,0,,,,,26,0,26,0,491.28060970000024,,,,,,,,,,,,,,,,,,,,,,,,,,,,,,,,,,,,,,,,,,,,,,,,,,,,,,,,,Loch,2.7928,491.2650887,491.2657343000001,491.2658388,491.28060970000024,494.07977870000013,494.0641599999999,494.0674304000004,494.07977870000013,494.07977870000013,494.07977870000013,494.07977870000013,496.0799543000003,496.0799543000003,496.0799543000003,496.0799543000003,496.0644699000004,3,None,0.8692983000000822,0.2592871999995623,,,,,,,,,,,,,,,,,,,,,,3098,1,2025-10-31_09h55.28.706,sm,2024.2.4,59.960234372539105,2025-10-31 09h56.23.971073 +0100,
27,0,27,,,,,,space,4.452440499999284,None,None,2,None,1.2822234000004755,0.14231000000017957,0,0,0,0,,,,,0,0,0,0,,,,,27,0,27,0,496.0799543000003,,,,,,,,,,,,,,,,,,,,,,,,,,,,,,,,,,,,,,,,,,,,,,,,,,,,,,,,,Knöchel,2.5917,496.06498720000036,496.06550659999994,496.0656151000003,496.0799543000003,498.6794424999998,498.6637851000005,498.66712540000026,498.6794424999998,498.6794424999998,498.6794424999998,498.6794424999998,500.6801430000005,500.6801430000005,500.6801430000005,500.6801430000005,500.66396780000014,2,None,1.2822234000004755,0.14231000000017957,,,,,,,,,,,,,,,,,,,,,,3098,1,2025-10-31_09h55.28.706,sm,2024.2.4,59.960234372539105,2025-10-31 09h56.23.971073 +0100,
28,0,28,,,,,,space,4.452440499999284,None,None,3,None,0.8837521000004926,0.2086589999998978,0,0,0,0,,,,,0,0,0,0,,,,,28,0,28,0,500.6801430000005,,,,,,,,,,,,,,,,,,,,,,,,,,,,,,,,,,,,,,,,,,,,,,,,,,,,,,,,,Bürste,2.0694,500.6644808000001,500.6651296,500.66523529999995,500.6801430000005,502.7636981000005,502.7472521999998,502.75224789999993,502.7636981000005,502.7636981000005,502.7636981000005,502.7636981000005,504.7627557000005,504.7627557000005,504.7627557000005,504.7627557000005,504.7473028000004,3,None,0.8837521000004926,0.2086589999998978,,,,,,,,,,,,,,,,,,,,,,3098,1,2025-10-31_09h55.28.706,sm,2024.2.4,59.960234372539105,2025-10-31 09h56.23.971073 +0100,
29,0,29,,,,,,space,4.452440499999284,None,None,2,None,0.8389397000000827,0.1889101999995546,0,0,0,0,,,,,0,0,0,0,,,,,29,0,29,0,504.7627557000005,,,,,,,,,,,,,,,,,,,,,,,,,,,,,,,,,,,,,,,,,,,,,,,,,,,,,,,,,Känguru,2.9018,504.7478123000001,504.7485540000007,504.74866610000026,504.7627557000005,507.67917709999983,507.66369360000044,507.66768560000037,507.67917709999983,507.67917709999983,507.67917709999983,507.67917709999983,509.67914180000025,509.67914180000025,509.67914180000025,509.67914180000025,509.66379920000054,2,None,0.8389397000000827,0.1889101999995546,,,,,,,,,,,,,,,,,,,,,,3098,1,2025-10-31_09h55.28.706,sm,2024.2.4,59.960234372539105,2025-10-31 09h56.23.971073 +0100,
30,0,30,,,,,,space,4.452440499999284,None,None,2,None,0.8362857000001895,0.16959309999947436,0,0,0,0,,,,,0,0,0,0,,,,,30,0,30,0,509.67914180000025,,,,,,,,,,,,,,,,,,,,,,,,,,,,,,,,,,,,,,,,,,,,,,,,,,,,,,,,,Gast,5.2904,509.6643098000004,509.6650473999998,509.6651523999999,509.67914180000025,514.9787464999999,514.9630402000003,514.9661916000005,514.9787464999999,514.9787464999999,514.9787464999999,514.9787464999999,516.9788250000001,516.9788250000001,516.9788250000001,516.9788250000001,516.9630248000003,2,None,0.8362857000001895,0.16959309999947436,,,,,,,,,,,,,,,,,,,,,,3098,1,2025-10-31_09h55.28.706,sm,2024.2.4,59.960234372539105,2025-10-31 09h56.23.971073 +0100,
31,0,31,,,,,,space,4.452440499999284,None,None,3,None,1.414708399999654,0.20424520000051416,0,0,0,0,,,,,0,0,0,0,,,,,31,0,31,0,516.9788250000001,,,,,,,,,,,,,,,,,,,,,,,,,,,,,,,,,,,,,,,,,,,,,,,,,,,,,,,,,Sterne,3.304,516.9635412000007,516.9640573000006,516.9641615,516.9788250000001,520.2950906000005,520.2794147000004,520.2834429000004,520.2950906000005,520.2950906000005,520.2950906000005,520.2950906000005,522.2951560000001,522.2951560000001,522.2951560000001,522.2951560000001,522.2794164000006,3,None,1.414708399999654,0.20424520000051416,,,,,,,,,,,,,,,,,,,,,,3098,1,2025-10-31_09h55.28.706,sm,2024.2.4,59.960234372539105,2025-10-31 09h56.23.971073 +0100,
32,0,32,,,,,,space,4.452440499999284,None,None,2,None,1.1373961999997846,0.17591520000041783,0,0,0,0,,,,,0,0,0,0,,,,,32,0,32,0,522.2951560000001,,,,,,,,,,,,,,,,,,,,,,,,,,,,,,,,,,,,,,,,,,,,,,,,,,,,,,,,,Club,2.4148,522.2799267,522.2805142000007,522.2806209,522.2951560000001,524.7116617000001,524.6956494000005,524.7021522000005,524.7116617000001,524.7116617000001,524.7116617000001,524.7116617000001,526.7114613000003,526.7114613000003,526.7114613000003,526.7114613000003,526.6960749,2,None,1.1373961999997846,0.17591520000041783,,,,,,,,,,,,,,,,,,,,,,3098,1,2025-10-31_09h55.28.706,sm,2024.2.4,59.960234372539105,2025-10-31 09h56.23.971073 +0100,
33,0,33,,,,,,space,4.452440499999284,None,None,3,None,1.0397665999998935,0.21043139999983396,0,0,0,0,,,,,0,0,0,0,,,,,33,0,33,0,526.7114613000003,,,,,,,,,,,,,,,,,,,,,,,,,,,,,,,,,,,,,,,,,,,,,,,,,,,,,,,,,Sturm,2.2984,526.6965917000007,526.6971183000005,526.6972237,526.7114613000003,529.0110201000007,528.9955255000004,528.9987991000007,529.0110201000007,529.0110201000007,529.0110201000007,529.0110201000007,531.0114499000001,531.0114499000001,531.0114499000001,531.0114499000001,530.9956327999998,3,None,1.0397665999998935,0.21043139999983396,,,,,,,,,,,,,,,,,,,,,,3098,1,2025-10-31_09h55.28.706,sm,2024.2.4,59.960234372539105,2025-10-31 09h56.23.971073 +0100,
34,0,34,,,,,,space,4.452440499999284,None,None,2,None,0.8217264000004434,0.18852530000003753,0,0,0,0,,,,,0,0,0,0,,,,,34,0,34,0,531.0114499000001,,,,,,,,,,,,,,,,,,,,,,,,,,,,,,,,,,,,,,,,,,,,,,,,,,,,,,,,,Geschwister,4.687,530.9961737000003,530.9967157000001,530.9968256000002,531.0114499000001,535.7106993000007,535.6949906,535.6993659,535.7106993000007,535.7106993000007,535.7106993000007,535.7106993000007,537.7106886000001,537.7106886000001,537.7106886000001,537.7106886000001,537.6953564000005,2,None,0.8217264000004434,0.18852530000003753,,,,,,,,,,,,,,,,,,,,,,3098,1,2025-10-31_09h55.28.706,sm,2024.2.4,59.960234372539105,2025-10-31 09h56.23.971073 +0100,
35,0,35,,,,,,space,4.452440499999284,None,None,2,None,1.024919200000113,0.15868369999952847,0,0,0,0,,,,,0,0,0,0,,,,,35,0,35,0,537.7106886000001,,,,,,,,,,,,,,,,,,,,,,,,,,,,,,,,,,,,,,,,,,,,,,,,,,,,,,,,,Weinen,2.2836,537.6958774000004,537.6963874000003,537.6964919000002,537.7106886000001,539.99424,539.9784850000005,539.9823863000001,539.99424,539.99424,539.99424,539.99424,541.9940237999999,541.9940237999999,541.9940237999999,541.9940237999999,541.9783035,2,None,1.024919200000113,0.15868369999952847,,,,,,,,,,,,,,,,,,,,,,3098,1,2025-10-31_09h55.28.706,sm,2024.2.4,59.960234372539105,2025-10-31 09h56.23.971073 +0100,
36,0,36,,,,,,space,4.452440499999284,None,None,3,None,1.6224928999999975,0.17612279999957536,0,0,0,0,,,,,0,0,0,0,,,,,36,0,36,0,541.9940237999999,,,,,,,,,,,,,,,,,,,,,,,,,,,,,,,,,,,,,,,,,,,,,,,,,,,,,,,,,Arbeit,3.2097,541.9787915000006,541.9794585,541.9796310000002,541.9940237999999,545.2101352999998,545.1945769000004,545.1981437000004,545.2101352999998,545.2101352999998,545.2101352999998,545.2101352999998,547.2103434999999,547.2103434999999,547.2103434999999,547.2103434999999,547.1947292000004,3,None,1.6224928999999975,0.17612279999957536,,,,,,,,,,,,,,,,,,,,,,3098,1,2025-10-31_09h55.28.706,sm,2024.2.4,59.960234372539105,2025-10-31 09h56.23.971073 +0100,
37,0,37,,,,,,space,4.452440499999284,None,None,3,None,1.1112090999995416,0.19350550000035582,0,0,0,0,,,,,0,0,0,0,,,,,37,0,37,0,547.2103434999999,,,,,,,,,,,,,,,,,,,,,,,,,,,,,,,,,,,,,,,,,,,,,,,,,,,,,,,,,Fernseher,2.3901,547.1952502000004,547.1957567,547.1958627000004,547.2103434999999,549.6100223000003,549.5944898000007,549.5983311999998,549.6100223000003,549.6100223000003,549.6100223000003,549.6100223000003,551.6100664000005,551.6100664000005,551.6100664000005,551.6100664000005,551.5947638000007,3,None,1.1112090999995416,0.19350550000035582,,,,,,,,,,,,,,,,,,,,,,3098,1,2025-10-31_09h55.28.706,sm,2024.2.4,59.960234372539105,2025-10-31 09h56.23.971073 +0100,
38,0,38,,,,,,space,4.452440499999284,None,None,2,None,0.6790273000005982,0.17615389999991748,0,0,0,0,,,,,0,0,0,0,,,,,38,0,38,0,551.6100664000005,,,,,,,,,,,,,,,,,,,,,,,,,,,,,,,,,,,,,,,,,,,,,,,,,,,,,,,,,Ehe,2.6537,551.5952765000002,551.5957937000003,551.5958968000004,551.6100664000005,554.2765453000002,554.2610604000001,554.2649361000003,554.2765453000002,554.2765453000002,554.2765453000002,554.2765453000002,556.2764203000006,556.2764203000006,556.2764203000006,556.2764203000006,556.2609192999998,2,None,0.6790273000005982,0.17615389999991748,,,,,,,,,,,,,,,,,,,,,,3098,1,2025-10-31_09h55.28.706,sm,2024.2.4,59.960234372539105,2025-10-31 09h56.23.971073 +0100,
39,0,39,,,,,,space,4.452440499999284,None,None,3,None,0.9385332000001654,0.18522199999915756,0,0,0,0,,,,,0,0,0,0,,,,,39,0,39,0,556.2764203000006,,,,,,,,,,,,,,,,,,,,,,,,,,,,,,,,,,,,,,,,,,,,,,,,,,,,,,,,,Netz,5.3326,556.2614355000005,556.2619583000005,556.2620618000001,556.2764203000006,561.6092587000003,561.5937847000005,561.5972378000006,561.6092587000003,561.6092587000003,561.6092587000003,561.6092587000003,563.6093397000004,563.6093397000004,563.6093397000004,563.6093397000004,563.5938918000002,3,None,0.9385332000001654,0.18522199999915756,,,,,,,,,,,,,,,,,,,,,,3098,1,2025-10-31_09h55.28.706,sm,2024.2.4,59.960234372539105,2025-10-31 09h56.23.971073 +0100,
40,0,40,,,,,,space,4.452440499999284,None,None,3,None,0.8267930000001797,0.1935222000001886,0,0,0,0,,,,,0,0,0,0,,,,,40,0,40,0,563.6093397000004,,,,,,,,,,,,,,,,,,,,,,,,,,,,,,,,,,,,,,,,,,,,,,,,,,,,,,,,,Ringe,2.3365,563.5944012,563.5949062999998,563.5950087000001,563.6093397000004,565.9592794999999,565.9435702999999,565.9476472000006,565.9592794999999,565.9592794999999,565.9592794999999,565.9592794999999,567.9593503000006,567.9593503000006,567.9593503000006,567.9593503000006,567.9437002000004,3,None,0.8267930000001797,0.1935222000001886,,,,,,,,,,,,,,,,,,,,,,3098,1,2025-10-31_09h55.28.706,sm,2024.2.4,59.960234372539105,2025-10-31 09h56.23.971073 +0100,
41,0,41,,,,,,space,4.452440499999284,None,None,2,None,0.9154348000001846,0.1375367999999071,0,0,0,0,,,,,0,0,0,0,,,,,41,0,41,0,567.9593503000006,,,,,,,,,,,,,,,,,,,,,,,,,,,,,,,,,,,,,,,,,,,,,,,,,,,,,,,,,Orange,2.1752,567.9441815,567.9448098000003,567.9449273,567.9593503000006,570.1588190000002,570.1267367999999,570.1343457000003,570.1588190000002,570.1588190000002,570.1588190000002,570.1588190000002,,,,,572.1425015000004,2,None,0.9154348000001846,0.1375367999999071,,,,,,,,,,,,,,,,,,,,,,3098,1,2025-10-31_09h55.28.706,sm,2024.2.4,59.960234372539105,2025-10-31 09h56.23.971073 +0100,
42,0,42,,,,,,space,4.452440499999284,None,None,3,None,0.9243082000002687,0.2038210999999137,0,0,0,0,,,,,0,0,0,0,,,,,42,0,42,0,572.1590356000006,,,,,,,,,,,,,,,,,,,,,,,,,,,,,,,,,,,,,,,,,,,,,,,,,,,,,,,,,Zähne,3.2418,572.1430146000002,572.1438287999999,572.1439459000003,572.1590356000006,575.4084981000005,575.3928415999999,575.3964030000006,575.4084981000005,575.4084981000005,575.4084981000005,575.4084981000005,577.4086410999998,577.4086410999998,577.4086410999998,577.4086410999998,577.3929444000005,3,None,0.9243082000002687,0.2038210999999137,,,,,,,,,,,,,,,,,,,,,,3098,1,2025-10-31_09h55.28.706,sm,2024.2.4,59.960234372539105,2025-10-31 09h56.23.971073 +0100,
43,0,43,,,,,,space,4.452440499999284,None,None,3,None,0.8147994999999355,0.19132010000066657,0,0,0,0,,,,,0,0,0,0,,,,,43,0,43,0,577.4086410999998,,,,,,,,,,,,,,,,,,,,,,,,,,,,,,,,,,,,,,,,,,,,,,,,,,,,,,,,,Spaghetti,4.7659,577.3934611000004,577.3939655000004,577.3940729000005,577.4086410999998,582.1748268000001,582.1592766000003,582.1635853000007,582.1748268000001,582.1748268000001,582.1748268000001,582.1748268000001,584.1753161000006,584.1753161000006,584.1753161000006,584.1753161000006,584.1594377000001,3,None,0.8147994999999355,0.19132010000066657,,,,,,,,,,,,,,,,,,,,,,3098,1,2025-10-31_09h55.28.706,sm,2024.2.4,59.960234372539105,2025-10-31 09h56.23.971073 +0100,
44,0,44,,,,,,space,4.452440499999284,None,None,2,None,0.8193760000003749,0.15657009999995353,0,0,0,0,,,,,0,0,0,0,,,,,44,0,44,0,584.1753161000006,,,,,,,,,,,,,,,,,,,,,,,,,,,,,,,,,,,,,,,,,,,,,,,,,,,,,,,,,Fledermaus,2.4605,584.1599952000006,584.1605104,584.1606166000001,584.1753161000006,586.6411783000003,586.6259595000001,586.6304010000003,586.6411783000003,586.6411783000003,586.6411783000003,586.6411783000003,588.6414551000007,588.6414551000007,588.6414551000007,588.6414551000007,588.6254373000002,2,None,0.8193760000003749,0.15657009999995353,,,,,,,,,,,,,,,,,,,,,,3098,1,2025-10-31_09h55.28.706,sm,2024.2.4,59.960234372539105,2025-10-31 09h56.23.971073 +0100,
45,0,45,,,,,,space,4.452440499999284,None,None,3,None,1.2158593000003748,0.204291000000012,0,0,0,0,,,,,0,0,0,0,,,,,45,0,45,0,588.6414551000007,,,,,,,,,,,,,,,,,,,,,,,,,,,,,,,,,,,,,,,,,,,,,,,,,,,,,,,,,Vulkan,5.6005,588.6258922000006,588.6263696000005,588.6264629000007,588.6414551000007,594.2575046000002,594.2420382999999,594.2461135000003,594.2575046000002,594.2575046000002,594.2575046000002,594.2575046000002,596.2575903000006,596.2575903000006,596.2575903000006,596.2575903000006,596.2423127000002,3,None,1.2158593000003748,0.204291000000012,,,,,,,,,,,,,,,,,,,,,,3098,1,2025-10-31_09h55.28.706,sm,2024.2.4,59.960234372539105,2025-10-31 09h56.23.971073 +0100,
46,0,46,,,,,,space,4.452440499999284,None,None,3,None,0.888861899999938,0.18934669999998732,0,0,0,0,,,,,0,0,0,0,,,,,46,0,46,0,596.2575903000006,,,,,,,,,,,,,,,,,,,,,,,,,,,,,,,,,,,,,,,,,,,,,,,,,,,,,,,,,Maske,2.4923,596.2428209999998,596.2433300000002,596.2434335000007,596.2575903000006,598.7571002000004,598.7416382000001,598.7453491000006,598.7571002000004,598.7571002000004,598.7571002000004,598.7571002000004,600.7572410000002,600.7572410000002,600.7572410000002,600.7572410000002,600.7416431000001,3,None,0.888861899999938,0.18934669999998732,,,,,,,,,,,,,,,,,,,,,,3098,1,2025-10-31_09h55.28.706,sm,2024.2.4,59.960234372539105,2025-10-31 09h56.23.971073 +0100,
47,0,47,,,,,,space,4.452440499999284,None,None,2,None,1.3545705999995334,0.2313389000000825,0,0,0,0,,,,,0,0,0,0,,,,,47,0,47,0,600.7572410000002,,,,,,,,,,,,,,,,,,,,,,,,,,,,,,,,,,,,,,,,,,,,,,,,,,,,,,,,,Afrika,2.072,600.7421625000006,600.7427593000002,600.7428639,600.7572410000002,602.8402489999999,602.8248475,602.8300470000004,602.8402489999999,602.8402489999999,602.8402489999999,602.8402489999999,604.8404699000002,604.8404699000002,604.8404699000002,604.8404699000002,604.8248278000001,2,None,1.3545705999995334,0.2313389000000825,,,,,,,,,,,,,,,,,,,,,,3098,1,2025-10-31_09h55.28.706,sm,2024.2.4,59.960234372539105,2025-10-31 09h56.23.971073 +0100,
48,0,48,,,,,,space,4.452440499999284,None,None,2,None,0.8847260000002279,0.15480029999980616,0,0,0,0,,,,,0,0,0,0,,,,,48,0,48,0,604.8404699000002,,,,,,,,,,,,,,,,,,,,,,,,,,,,,,,,,,,,,,,,,,,,,,,,,,,,,,,,,Gespräch,2.6177,604.8253060000006,604.8259385000001,604.8260386000002,604.8404699000002,607.4568393,607.4416589000002,607.4460973000005,607.4568393,607.4568393,607.4568393,607.4568393,609.4573023000003,609.4573023000003,609.4573023000003,609.4573023000003,609.4410825000004,2,None,0.8847260000002279,0.15480029999980616,,,,,,,,,,,,,,,,,,,,,,3098,1,2025-10-31_09h55.28.706,sm,2024.2.4,59.960234372539105,2025-10-31 09h56.23.971073 +0100,
49,0,49,,,,,,space,4.452440499999284,None,None,3,None,0.7830689000002167,0.17837640000016108,0,0,0,0,,,,,0,0,0,0,,,,,49,0,49,0,609.4573023000003,,,,,,,,,,,,,,,,,,,,,,,,,,,,,,,,,,,,,,,,,,,,,,,,,,,,,,,,,Tasse,2.723,609.4415970999999,609.4420936000006,609.4421978999999,609.4573023000003,612.1897029000002,612.1741356000002,612.1780237000003,612.1897029000002,612.1897029000002,612.1897029000002,612.1897029000002,614.1897973000005,614.1897973000005,614.1897973000005,614.1897973000005,614.1742801,3,None,0.7830689000002167,0.17837640000016108,,,,,,,,,,,,,,,,,,,,,,3098,1,2025-10-31_09h55.28.706,sm,2024.2.4,59.960234372539105,2025-10-31 09h56.23.971073 +0100,
50,0,50,,,,,,space,4.452440499999284,None,None,2,None,0.7746873999994932,0.17264590000013413,0,0,0,0,,,,,0,0,0,0,,,,,50,0,50,0,614.1897973000005,,,,,,,,,,,,,,,,,,,,,,,,,,,,,,,,,,,,,,,,,,,,,,,,,,,,,,,,,Autorin,2.3538,614.1747967000001,614.1752972000004,614.1754013,614.1897973000005,616.5563539000004,616.5404717000001,616.5446337000003,616.5563539000004,616.5563539000004,616.5563539000004,616.5563539000004,618.5562583000001,618.5562583000001,618.5562583000001,618.5562583000001,618.5407153000006,2,None,0.7746873999994932,0.17264590000013413,,,,,,,,,,,,,,,,,,,,,,3098,1,2025-10-31_09h55.28.706,sm,2024.2.4,59.960234372539105,2025-10-31 09h56.23.971073 +0100,
51,0,51,,,,,,space,4.452440499999284,None,None,3,None,0.7742459999999483,0.2119210999999268,0,0,0,0,,,,,0,0,0,0,,,,,51,0,51,0,618.5562583000001,,,,,,,,,,,,,,,,,,,,,,,,,,,,,,,,,,,,,,,,,,,,,,,,,,,,,,,,,Hügel,3.0084,618.5412305,618.5417407000004,618.5418429000001,618.5562583000001,621.5726375000004,621.5570971000006,621.5607328000006,621.5726375000004,621.5726375000004,621.5726375000004,621.5726375000004,623.5725493999998,623.5725493999998,623.5725493999998,623.5725493999998,623.5573638000005,3,None,0.7742459999999483,0.2119210999999268,,,,,,,,,,,,,,,,,,,,,,3098,1,2025-10-31_09h55.28.706,sm,2024.2.4,59.960234372539105,2025-10-31 09h56.23.971073 +0100,
52,0,52,,,,,,space,4.452440499999284,None,None,3,None,1.124739199999567,0.19556869999996707,0,0,0,0,,,,,0,0,0,0,,,,,52,0,52,0,623.5725493999998,,,,,,,,,,,,,,,,,,,,,,,,,,,,,,,,,,,,,,,,,,,,,,,,,,,,,,,,,Shampoo,2.2129,623.5578749000006,623.5585461000001,623.5586588000006,623.5725493999998,625.7889802,625.7732169000001,625.7767374000005,625.7889802,625.7889802,625.7889802,625.7889802,627.7891587000004,627.7891587000004,627.7891587000004,627.7891587000004,627.7735051999998,3,None,1.124739199999567,0.19556869999996707,,,,,,,,,,,,,,,,,,,,,,3098,1,2025-10-31_09h55.28.706,sm,2024.2.4,59.960234372539105,2025-10-31 09h56.23.971073 +0100,
53,0,53,,,,,,space,4.452440499999284,None,None,2,None,1.6344278999995367,0.18113850000008824,0,0,0,0,,,,,0,0,0,0,,,,,53,0,53,0,627.7891587000004,,,,,,,,,,,,,,,,,,,,,,,,,,,,,,,,,,,,,,,,,,,,,,,,,,,,,,,,,Krieg,2.316,627.7740284000001,627.7745543000001,627.77466,627.7891587000004,630.1052269000002,630.0894999000002,630.0931372000005,630.1052269000002,630.1052269000002,630.1052269000002,630.1052269000002,632.1054598999999,632.1054598999999,632.1054598999999,632.1054598999999,632.0898108000001,2,None,1.6344278999995367,0.18113850000008824,,,,,,,,,,,,,,,,,,,,,,3098,1,2025-10-31_09h55.28.706,sm,2024.2.4,59.960234372539105,2025-10-31 09h56.23.971073 +0100,
54,0,54,,,,,,space,4.452440499999284,None,None,3,None,0.9784779000001436,0.19448730000021897,0,0,0,0,,,,,0,0,0,0,,,,,54,0,54,0,632.1054598999999,,,,,,,,,,,,,,,,,,,,,,,,,,,,,,,,,,,,,,,,,,,,,,,,,,,,,,,,,Ecke,3.6546,632.0903275999999,632.0908333000007,632.0909449000001,632.1054598999999,635.7718343000006,635.7564513000007,635.7610695000003,635.7718343000006,635.7718343000006,635.7718343000006,635.7718343000006,637.7720563000003,637.7720563000003,637.7720563000003,637.7720563000003,637.7562161000005,3,None,0.9784779000001436,0.19448730000021897,,,,,,,,,,,,,,,,,,,,,,3098,1,2025-10-31_09h55.28.706,sm,2024.2.4,59.960234372539105,2025-10-31 09h56.23.971073 +0100,
55,0,55,,,,,,space,4.452440499999284,None,None,2,None,0.7199006999999256,0.2572954999996,0,0,0,0,,,,,0,0,0,0,,,,,55,0,55,0,637.7720563000003,,,,,,,,,,,,,,,,,,,,,,,,,,,,,,,,,,,,,,,,,,,,,,,,,,,,,,,,,Ziege,2.0546,637.7567302000007,637.7572503000001,637.7573536,637.7720563000003,639.8379943,639.8226674000007,639.8264644999999,639.8379943,639.8379943,639.8379943,639.8379943,641.8381623000005,641.8381623000005,641.8381623000005,641.8381623000005,641.8225839000006,2,None,0.7199006999999256,0.2572954999996,,,,,,,,,,,,,,,,,,,,,,3098,1,2025-10-31_09h55.28.706,sm,2024.2.4,59.960234372539105,2025-10-31 09h56.23.971073 +0100,
56,0,56,,,,,,space,4.452440499999284,None,None,3,None,0.8258360999998331,0.20579910000014934,0,0,0,0,,,,,0,0,0,0,,,,,56,0,56,0,641.8381623000005,,,,,,,,,,,,,,,,,,,,,,,,,,,,,,,,,,,,,,,,,,,,,,,,,,,,,,,,,Puppe,3.4985,641.8230948,641.8237168000005,641.823821,641.8381623000005,645.3379112000002,645.3226498000004,645.3262829000005,645.3379112000002,645.3379112000002,645.3379112000002,645.3379112000002,647.3379628000002,647.3379628000002,647.3379628000002,647.3379628000002,647.3225852000005,3,None,0.8258360999998331,0.20579910000014934,,,,,,,,,,,,,,,,,,,,,,3098,1,2025-10-31_09h55.28.706,sm,2024.2.4,59.960234372539105,2025-10-31 09h56.23.971073 +0100,
57,0,57,,,,,,space,4.452440499999284,None,None,3,None,0.8108397000005425,0.23843029999989085,0,0,0,0,,,,,0,0,0,0,,,,,57,0,57,0,647.3379628000002,,,,,,,,,,,,,,,,,,,,,,,,,,,,,,,,,,,,,,,,,,,,,,,,,,,,,,,,,Bett,3.067,647.323093,647.3236192000004,647.3237263000001,647.3379628000002,650.404262,650.3890962000005,650.3927356000004,650.404262,650.404262,650.404262,650.404262,652.4046721000004,652.4046721000004,652.4046721000004,652.4046721000004,652.3884183,3,None,0.8108397000005425,0.23843029999989085,,,,,,,,,,,,,,,,,,,,,,3098,1,2025-10-31_09h55.28.706,sm,2024.2.4,59.960234372539105,2025-10-31 09h56.23.971073 +0100,
58,0,58,,,,,,space,4.452440499999284,None,None,3,None,0.8840540000001056,0.1896801000002597,0,0,0,0,,,,,0,0,0,0,,,,,58,0,58,0,652.4046721000004,,,,,,,,,,,,,,,,,,,,,,,,,,,,,,,,,,,,,,,,,,,,,,,,,,,,,,,,,Brise,2.5864,652.3888758000003,652.3893382000006,652.3894368000001,652.4046721000004,655.0040420000005,654.9883795000005,654.9918407000005,655.0040420000005,655.0040420000005,655.0040420000005,655.0040420000005,657.0039852999998,657.0039852999998,657.0039852999998,657.0039852999998,656.9883539000002,3,None,0.8840540000001056,0.1896801000002597,,,,,,,,,,,,,,,,,,,,,,3098,1,2025-10-31_09h55.28.706,sm,2024.2.4,59.960234372539105,2025-10-31 09h56.23.971073 +0100,
59,0,59,,,,,,space,4.452440499999284,None,None,3,None,1.0363862000003792,0.18950339999992138,0,0,0,0,,,,,0,0,0,0,,,,,59,0,59,0,657.0039852999998,,,,,,,,,,,,,,,,,,,,,,,,,,,,,,,,,,,,,,,,,,,,,,,,,,,,,,,,,Herbst,2.7268,656.9888774000001,656.9894632000005,656.9895677000004,657.0039852999998,659.7370766000004,659.7217933000002,659.7260289000005,659.7370766000004,659.7370766000004,659.7370766000004,659.7370766000004,661.7371785000005,661.7371785000005,661.7371785000005,661.7371785000005,661.7213693000003,3,None,1.0363862000003792,0.18950339999992138,,,,,,,,,,,,,,,,,,,,,,3098,1,2025-10-31_09h55.28.706,sm,2024.2.4,59.960234372539105,2025-10-31 09h56.23.971073 +0100,
60,0,60,,,,,,space,4.452440499999284,None,None,3,None,0.6895067999994353,0.179527400000552,0,0,0,0,,,,,0,0,0,0,,,,,60,0,60,0,661.7371785000005,,,,,,,,,,,,,,,,,,,,,,,,,,,,,,,,,,,,,,,,,,,,,,,,,,,,,,,,,Gabel,2.2651,661.7218843,661.7223872000004,661.7224907999998,661.7371785000005,664.0037314000001,663.9877311999999,663.9907996000002,664.0037314000001,664.0037314000001,664.0037314000001,664.0037314000001,666.0034603000004,666.0034603000004,666.0034603000004,666.0034603000004,665.9879151000005,3,None,0.6895067999994353,0.179527400000552,,,,,,,,,,,,,,,,,,,,,,3098,1,2025-10-31_09h55.28.706,sm,2024.2.4,59.960234372539105,2025-10-31 09h56.23.971073 +0100,
61,0,61,,,,,,space,4.452440499999284,None,None,3,None,0.7452742999994371,0.1771738000006735,0,0,0,0,,,,,0,0,0,0,,,,,61,0,61,0,666.0034603000004,,,,,,,,,,,,,,,,,,,,,,,,,,,,,,,,,,,,,,,,,,,,,,,,,,,,,,,,,Krone,3.6728,665.9884314000001,665.9889361000005,665.9890412000004,666.0034603000004,669.6863581000007,669.6707372000001,669.6746684999998,669.6863581000007,669.6863581000007,669.6863581000007,669.6863581000007,671.6864013000004,671.6864013000004,671.6864013000004,671.6864013000004,671.6710329000007,3,None,0.7452742999994371,0.1771738000006735,,,,,,,,,,,,,,,,,,,,,,3098,1,2025-10-31_09h55.28.706,sm,2024.2.4,59.960234372539105,2025-10-31 09h56.23.971073 +0100,
62,0,62,,,,,,space,4.452440499999284,None,None,2,None,0.9826904999999897,0.18253199999981007,0,0,0,0,,,,,0,0,0,0,,,,,62,0,62,0,671.6864013000004,,,,,,,,,,,,,,,,,,,,,,,,,,,,,,,,,,,,,,,,,,,,,,,,,,,,,,,,,Handwerker,2.0967,671.6715281000006,671.6720312000007,671.6721379,671.6864013000004,673.7864287000002,673.7706594000001,673.7750989000006,673.7864287000002,673.7864287000002,673.7864287000002,673.7864287000002,675.7862910000003,675.7862910000003,675.7862910000003,675.7862910000003,675.7709433999999,2,None,0.9826904999999897,0.18253199999981007,,,,,,,,,,,,,,,,,,,,,,3098,1,2025-10-31_09h55.28.706,sm,2024.2.4,59.960234372539105,2025-10-31 09h56.23.971073 +0100,
63,0,63,,,,,,space,4.452440499999284,None,None,3,None,1.6400135000003502,0.3215565999998944,0,0,0,0,,,,,0,0,0,0,,,,,63,0,63,0,675.7862910000003,,,,,,,,,,,,,,,,,,,,,,,,,,,,,,,,,,,,,,,,,,,,,,,,,,,,,,,,,Fiktion,2.1705,675.7714579000003,675.7721183000003,675.7722277000003,675.7862910000003,677.9697917000003,677.9537479999999,677.9580563,677.9697917000003,677.9697917000003,677.9697917000003,677.9697917000003,679.9697382000004,679.9697382000004,679.9697382000004,679.9697382000004,679.9537657999999,3,None,1.6400135000003502,0.3215565999998944,,,,,,,,,,,,,,,,,,,,,,3098,1,2025-10-31_09h55.28.706,sm,2024.2.4,59.960234372539105,2025-10-31 09h56.23.971073 +0100,
64,0,64,,,,,,space,4.452440499999284,None,None,2,None,1.240168999999696,0.19754829999965295,0,0,0,0,,,,,0,0,0,0,,,,,64,0,64,0,679.9697382000004,,,,,,,,,,,,,,,,,,,,,,,,,,,,,,,,,,,,,,,,,,,,,,,,,,,,,,,,,Kopf,3.385,679.9542789000006,679.9549485000007,679.9550549000005,679.9697382000004,683.3689617,683.3534877000002,683.3571308,683.3689617,683.3689617,683.3689617,683.3689617,685.3690416,685.3690416,685.3690416,685.3690416,685.3533566000006,2,None,1.240168999999696,0.19754829999965295,,,,,,,,,,,,,,,,,,,,,,3098,1,2025-10-31_09h55.28.706,sm,2024.2.4,59.960234372539105,2025-10-31 09h56.23.971073 +0100,
65,0,65,,,,,,space,4.452440499999284,None,None,3,None,1.0854622999995627,0.24471600000015314,0,0,0,0,,,,,0,0,0,0,,,,,65,0,65,0,685.3690416,,,,,,,,,,,,,,,,,,,,,,,,,,,,,,,,,,,,,,,,,,,,,,,,,,,,,,,,,Hütte,2.7094,685.3538738000007,685.3543731,685.3544769999999,685.3690416,688.0854802000003,688.0699092000004,688.0737124000007,688.0854802000003,688.0854802000003,688.0854802000003,688.0854802000003,690.0855257000003,690.0855257000003,690.0855257000003,690.0855257000003,690.0698940000002,3,None,1.0854622999995627,0.24471600000015314,,,,,,,,,,,,,,,,,,,,,,3098,1,2025-10-31_09h55.28.706,sm,2024.2.4,59.960234372539105,2025-10-31 09h56.23.971073 +0100,
66,0,66,,,,,,space,4.452440499999284,None,None,2,None,1.5679680000002918,0.1824403999999049,0,0,0,0,,,,,0,0,0,0,,,,,66,0,66,0,690.0855257000003,,,,,,,,,,,,,,,,,,,,,,,,,,,,,,,,,,,,,,,,,,,,,,,,,,,,,,,,,Vergangenheit,4.3109,690.0704007000004,690.0711965,690.0713095000001,690.0855257000003,694.4017119,694.3860298,694.3902458000002,694.4017119,694.4017119,694.4017119,694.4017119,696.4017328999998,696.4017328999998,696.4017328999998,696.4017328999998,696.3864639000003,2,None,1.5679680000002918,0.1824403999999049,,,,,,,,,,,,,,,,,,,,,,3098,1,2025-10-31_09h55.28.706,sm,2024.2.4,59.960234372539105,2025-10-31 09h56.23.971073 +0100,
67,0,67,,,,,,space,4.452440499999284,None,None,2,None,1.0246882999999798,0.16660119999960443,0,0,0,0,,,,,0,0,0,0,,,,,67,0,67,0,696.4017328999998,,,,,,,,,,,,,,,,,,,,,,,,,,,,,,,,,,,,,,,,,,,,,,,,,,,,,,,,,Kunde,2.0142,696.3869670000004,696.3874948000002,696.3875985000004,696.4017328999998,698.4183362000003,698.4026110000004,698.4066794999999,698.4183362000003,698.4183362000003,698.4183362000003,698.4183362000003,700.4182406999998,700.4182406999998,700.4182406999998,700.4182406999998,700.4026967,2,None,1.0246882999999798,0.16660119999960443,,,,,,,,,,,,,,,,,,,,,,3098,1,2025-10-31_09h55.28.706,sm,2024.2.4,59.960234372539105,2025-10-31 09h56.23.971073 +0100,
68,0,68,,,,,,space,4.452440499999284,None,None,2,None,1.3258468000003631,0.19909629999983736,0,0,0,0,,,,,0,0,0,0,,,,,68,0,68,0,700.4182406999998,,,,,,,,,,,,,,,,,,,,,,,,,,,,,,,,,,,,,,,,,,,,,,,,,,,,,,,,,Fliegen,2.2954,700.4032195,700.4037257,700.4038307000001,700.4182406999998,702.7179200999999,702.7026169999999,702.7086724000001,702.7179200999999,702.7179200999999,702.7179200999999,702.7179200999999,704.7179176,704.7179176,704.7179176,704.7179176,704.7022745000004,2,None,1.3258468000003631,0.19909629999983736,,,,,,,,,,,,,,,,,,,,,,3098,1,2025-10-31_09h55.28.706,sm,2024.2.4,59.960234372539105,2025-10-31 09h56.23.971073 +0100,
69,0,69,,,,,,space,4.452440499999284,None,None,3,None,1.7025347999997393,0.1743661999998949,0,0,0,0,,,,,0,0,0,0,,,,,69,0,69,0,704.7179176,,,,,,,,,,,,,,,,,,,,,,,,,,,,,,,,,,,,,,,,,,,,,,,,,,,,,,,,,Schnürsenkel,5.7608,704.7027855000006,704.7034244000006,704.7035297000002,704.7179176,710.4838956000003,710.4683802,710.4725011999999,710.4838956000003,710.4838956000003,710.4838956000003,710.4838956000003,712.4842673000003,712.4842673000003,712.4842673000003,712.4842673000003,712.4685759000004,3,None,1.7025347999997393,0.1743661999998949,,,,,,,,,,,,,,,,,,,,,,3098,1,2025-10-31_09h55.28.706,sm,2024.2.4,59.960234372539105,2025-10-31 09h56.23.971073 +0100,
70,0,70,,,,,,space,4.452440499999284,None,None,3,None,1.455411300000378,0.22877090000019962,0,0,0,0,,,,,0,0,0,0,,,,,70,0,70,0,712.4842673000003,,,,,,,,,,,,,,,,,,,,,,,,,,,,,,,,,,,,,,,,,,,,,,,,,,,,,,,,,Feld,3.0788,712.4690962000004,712.4696512,712.4697566000004,712.4842673000003,715.5669408000003,715.5514317000006,715.5543723999999,715.5669408000003,715.5669408000003,715.5669408000003,715.5669408000003,717.5672742000006,717.5672742000006,717.5672742000006,717.5672742000006,717.5512143000005,3,None,1.455411300000378,0.22877090000019962,,,,,,,,,,,,,,,,,,,,,,3098,1,2025-10-31_09h55.28.706,sm,2024.2.4,59.960234372539105,2025-10-31 09h56.23.971073 +0100,
71,0,71,,,,,,space,4.452440499999284,None,None,2,None,0.5970986000002085,0.16946180000013555,0,0,0,0,,,,,0,0,0,0,,,,,71,0,71,0,717.5672742000006,,,,,,,,,,,,,,,,,,,,,,,,,,,,,,,,,,,,,,,,,,,,,,,,,,,,,,,,,Eule,2.2292,717.551657,717.5521277000007,717.5522141000001,717.5672742000006,719.8003583999998,719.7849445000002,719.7885784999999,719.8003583999998,719.8003583999998,719.8003583999998,719.8003583999998,721.8002332000005,721.8002332000005,721.8002332000005,721.8002332000005,721.7847882000005,2,None,0.5970986000002085,0.16946180000013555,,,,,,,,,,,,,,,,,,,,,,3098,1,2025-10-31_09h55.28.706,sm,2024.2.4,59.960234372539105,2025-10-31 09h56.23.971073 +0100,
72,0,72,,,,,,space,4.452440499999284,None,None,3,None,1.2668793999991976,0.2048655000007784,0,0,0,0,,,,,0,0,0,0,,,,,72,0,72,0,721.8002332000005,,,,,,,,,,,,,,,,,,,,,,,,,,,,,,,,,,,,,,,,,,,,,,,,,,,,,,,,,Nachricht,2.9837,721.7853044000003,721.7858125000002,721.7859171,721.8002332000005,724.7831266000003,724.7674661000001,724.7708741000006,724.7831266000003,724.7831266000003,724.7831266000003,724.7831266000003,726.7832398,726.7832398,726.7832398,726.7832398,726.7675637000002,3,None,1.2668793999991976,0.2048655000007784,,,,,,,,,,,,,,,,,,,,,,3098,1,2025-10-31_09h55.28.706,sm,2024.2.4,59.960234372539105,2025-10-31 09h56.23.971073 +0100,
73,0,73,,,,,,space,4.452440499999284,None,None,3,None,1.4165614000003188,0.19448130000000674,0,0,0,0,,,,,0,0,0,0,,,,,73,0,73,0,726.7832398,,,,,,,,,,,,,,,,,,,,,,,,,,,,,,,,,,,,,,,,,,,,,,,,,,,,,,,,,Rolle,4.9153,726.7680803000003,726.7687285000002,726.7688311000002,726.7832398,731.7000846000001,731.6838084999999,731.6872389999999,731.7000846000001,731.7000846000001,731.7000846000001,731.7000846000001,733.6995824000005,733.6995824000005,733.6995824000005,733.6995824000005,733.6840207000005,3,None,1.4165614000003188,0.19448130000000674,,,,,,,,,,,,,,,,,,,,,,3098,1,2025-10-31_09h55.28.706,sm,2024.2.4,59.960234372539105,2025-10-31 09h56.23.971073 +0100,
74,0,74,,,,,,space,4.452440499999284,None,None,2,None,1.4772995000002993,0.2034048999994411,0,0,0,0,,,,,0,0,0,0,,,,,74,0,74,0,733.6995824000005,,,,,,,,,,,,,,,,,,,,,,,,,,,,,,,,,,,,,,,,,,,,,,,,,,,,,,,,,Lernen,2.8528,733.6845357000002,733.6851326000005,733.6852389000005,733.6995824000005,736.5666145000005,736.5502167000004,736.5539679000003,736.5666145000005,736.5666145000005,736.5666145000005,736.5666145000005,738.5658936,738.5658936,738.5658936,738.5658936,738.5507003000002,2,None,1.4772995000002993,0.2034048999994411,,,,,,,,,,,,,,,,,,,,,,3098,1,2025-10-31_09h55.28.706,sm,2024.2.4,59.960234372539105,2025-10-31 09h56.23.971073 +0100,
75,0,75,,,,,,space,4.452440499999284,None,None,2,None,1.2031308000005083,0.19287679999979446,0,0,0,0,,,,,0,0,0,0,,,,,75,0,75,0,738.5658936,,,,,,,,,,,,,,,,,,,,,,,,,,,,,,,,,,,,,,,,,,,,,,,,,,,,,,,,,Theater,2.2411,738.5512411999998,738.5517453000002,738.5518537000007,738.5658936,740.8157289999999,740.8004125000007,740.8051505000003,740.8157289999999,740.8157289999999,740.8157289999999,740.8157289999999,742.8156496000001,742.8156496000001,742.8156496000001,742.8156496000001,742.8007004000001,2,None,1.2031308000005083,0.19287679999979446,,,,,,,,,,,,,,,,,,,,,,3098,1,2025-10-31_09h55.28.706,sm,2024.2.4,59.960234372539105,2025-10-31 09h56.23.971073 +0100,
76,0,76,,,,,,space,4.452440499999284,None,None,3,None,1.6068789000000834,0.22340530000019498,0,0,0,0,,,,,0,0,0,0,,,,,76,0,76,0,742.8156496000001,,,,,,,,,,,,,,,,,,,,,,,,,,,,,,,,,,,,,,,,,,,,,,,,,,,,,,,,,Schwung,2.7768,742.8012214,742.8018138000007,742.8019183000006,742.8156496000001,745.5989353000004,745.5829475999999,745.5865457,745.5989353000004,745.5989353000004,745.5989353000004,745.5989353000004,747.5988029999999,747.5988029999999,747.5988029999999,747.5988029999999,747.5831275999999,3,None,1.6068789000000834,0.22340530000019498,,,,,,,,,,,,,,,,,,,,,,3098,1,2025-10-31_09h55.28.706,sm,2024.2.4,59.960234372539105,2025-10-31 09h56.23.971073 +0100,
77,0,77,,,,,,space,4.452440499999284,None,None,2,None,0.7950948999996399,0.19010609999986627,0,0,0,0,,,,,0,0,0,0,,,,,77,0,77,0,747.5988029999999,,,,,,,,,,,,,,,,,,,,,,,,,,,,,,,,,,,,,,,,,,,,,,,,,,,,,,,,,Garten,3.0216,747.5836515000001,747.5841567000007,747.5842614000003,747.5988029999999,750.6318301000001,750.6163310000002,750.6203731000005,750.6318301000001,750.6318301000001,750.6318301000001,750.6318301000001,752.6316815,752.6316815,752.6316815,752.6316815,752.6159000000007,2,None,0.7950948999996399,0.19010609999986627,,,,,,,,,,,,,,,,,,,,,,3098,1,2025-10-31_09h55.28.706,sm,2024.2.4,59.960234372539105,2025-10-31 09h56.23.971073 +0100,
78,0,78,,,,,,space,4.452440499999284,None,None,3,None,0.7874572999999145,0.20988699999998062,0,0,0,0,,,,,0,0,0,0,,,,,78,0,78,0,752.6316815,,,,,,,,,,,,,,,,,,,,,,,,,,,,,,,,,,,,,,,,,,,,,,,,,,,,,,,,,Salz,2.0675,752.6163351000005,752.6167995000005,752.6168996000006,752.6316815,754.6981087000004,754.6828653000002,754.6864351000004,754.6981087000004,754.6981087000004,754.6981087000004,754.6981087000004,756.6983946,756.6983946,756.6983946,756.6983946,756.6825469000005,3,None,0.7874572999999145,0.20988699999998062,,,,,,,,,,,,,,,,,,,,,,3098,1,2025-10-31_09h55.28.706,sm,2024.2.4,59.960234372539105,2025-10-31 09h56.23.971073 +0100,
79,0,79,,,,,,space,4.452440499999284,None,None,3,None,1.0669533000000229,0.18598860000020068,0,0,0,0,,,,,0,0,0,0,,,,,79,0,79,0,756.6983946,,,,,,,,,,,,,,,,,,,,,,,,,,,,,,,,,,,,,,,,,,,,,,,,,,,,,,,,,Bad,2.8174,756.6830656000002,756.6835571000001,756.6836603000002,756.6983946,759.5145702,759.4991448999999,759.5026164999999,759.5145702,759.5145702,759.5145702,759.5145702,761.5280038000001,761.5280038000001,761.5280038000001,761.5280038000001,761.4995242000005,3,None,1.0669533000000229,0.18598860000020068,,,,,,,,,,,,,,,,,,,,,,3098,1,2025-10-31_09h55.28.706,sm,2024.2.4,59.960234372539105,2025-10-31 09h56.23.971073 +0100,
0,0,0,,,,,3.0084,space,2.9996714999997494,None,None,3,None,0.9677954000007958,0.20147499999984575,0,0,0,0,,,,,1,0,1,0,0,79,79,38,0,0,0,0,806.1619946000001,,,,,,,,,,,,,,,,,,,,,,,,,,,,,,,,,,,,778.6954357000004,778.6956694,778.7019933000001,778.7066805000004,778.7066805000004,781.7133056000002,space,2.9996714999997494,None,781.7134433000001,781.7302255000004,781.7302255000004,794.1476158000005,None,794.1544011000005,794.1625051999999,794.1627587666674,795.3657162,804.1624714666671,805.1654294999998,806.1464034,Berg,3.0084,806.1479573000006,806.1485591,806.1486703,806.1619946000001,809.1781381000001,809.1627807000004,809.1660566999999,809.1781381000001,809.1781381000001,809.1781381000001,809.1781381000001,811.178304,811.178304,811.178304,811.178304,811.1626683000004,3,None,0.9677954000007958,0.20147499999984575,773.5144762,773.5145528000003,None,773.5235971000002,773.5317883000007,777.5305332000007,777.5305332000007,777.5468187000006,778.6490841000004,2,1.1047805999996854,None,806.1619946000001,,,,,,,,,3098,1,2025-10-31_09h55.28.706,sm,2024.2.4,59.960234372539105,2025-10-31 09h56.23.971073 +0100,
1,0,1,,,,,,space,2.9996714999997494,None,None,3,None,0.7369951999999103,0.17816000000038912,0,0,0,0,,,,,1,0,1,0,,,,,1,0,1,0,811.178304,,,,,,,,,,,,,,,,,,,,,,,,,,,,,,,,,,,,,,,,,,,,,,,,,,,,,,,,,Sand,2.0034,811.1631915000007,811.1637639999999,811.1638683000001,811.178304,813.1947843000007,813.1790888000005,813.1824259000005,813.1947843000007,813.1947843000007,813.1947843000007,813.1947843000007,815.1948253999999,815.1948253999999,815.1948253999999,815.1948253999999,815.1792825000002,3,None,0.7369951999999103,0.17816000000038912,,,,,,,,,,,,,,,,,,,,,,3098,1,2025-10-31_09h55.28.706,sm,2024.2.4,59.960234372539105,2025-10-31 09h56.23.971073 +0100,
2,0,2,,,,,,space,2.9996714999997494,None,None,3,None,0.7110640999999305,0.2004265999994459,0,0,0,0,,,,,1,0,1,0,,,,,2,0,2,0,815.1948253999999,,,,,,,,,,,,,,,,,,,,,,,,,,,,,,,,,,,,,,,,,,,,,,,,,,,,,,,,,Gewürz,2.3577,815.1798029000001,815.1803097000002,815.1804149,815.1948253999999,817.5615377000004,817.5457079000007,817.5499574000005,817.5615377000004,817.5615377000004,817.5615377000004,817.5615377000004,819.5612771000006,819.5612771000006,819.5612771000006,819.5612771000006,819.5458815000002,3,None,0.7110640999999305,0.2004265999994459,,,,,,,,,,,,,,,,,,,,,,3098,1,2025-10-31_09h55.28.706,sm,2024.2.4,59.960234372539105,2025-10-31 09h56.23.971073 +0100,
3,0,3,,,,,,space,2.9996714999997494,None,None,2,None,0.9193955999999162,0.19031660000018746,0,0,0,0,,,,,1,0,1,0,,,,,3,0,3,0,819.5612771000006,,,,,,,,,,,,,,,,,,,,,,,,,,,,,,,,,,,,,,,,,,,,,,,,,,,,,,,,,Liebe,3.0788,819.5464390000006,819.5471317000001,819.5472435000001,819.5612771000006,822.6443005000001,822.6283981000006,822.6325211000003,822.6443005000001,822.6443005000001,822.6443005000001,822.6443005000001,824.6442915000007,824.6442915000007,824.6442915000007,824.6442915000007,824.6287545000005,2,None,0.9193955999999162,0.19031660000018746,,,,,,,,,,,,,,,,,,,,,,3098,1,2025-10-31_09h55.28.706,sm,2024.2.4,59.960234372539105,2025-10-31 09h56.23.971073 +0100,
4,0,4,,,,,,space,2.9996714999997494,None,None,2,None,1.6338256999997611,0.1928325999997469,0,0,0,0,,,,,1,0,1,0,,,,,4,0,4,0,824.6442915000007,,,,,,,,,,,,,,,,,,,,,,,,,,,,,,,,,,,,,,,,,,,,,,,,,,,,,,,,,Schleim,2.072,824.6292695000002,824.6297776000001,824.6298830000005,824.6442915000007,826.7273536000002,826.7117810999998,826.7155464000007,826.7273536000002,826.7273536000002,826.7273536000002,826.7273536000002,828.7275597000007,828.7275597000007,828.7275597000007,828.7275597000007,828.7118751000007,2,None,1.6338256999997611,0.1928325999997469,,,,,,,,,,,,,,,,,,,,,,3098,1,2025-10-31_09h55.28.706,sm,2024.2.4,59.960234372539105,2025-10-31 09h56.23.971073 +0100,
5,0,5,,,,,,space,2.9996714999997494,None,None,3,None,0.7504634000006263,0.1895027000000482,0,0,0,0,,,,,1,0,1,0,,,,,5,0,5,0,828.7275597000007,,,,,,,,,,,,,,,,,,,,,,,,,,,,,,,,,,,,,,,,,,,,,,,,,,,,,,,,,Nebel,2.6537,828.7123919000005,828.7131325,828.7132363000001,828.7275597000007,831.3939362000001,831.3782239000002,831.3822146000002,831.3939362000001,831.3939362000001,831.3939362000001,831.3939362000001,833.3938889000001,833.3938889000001,833.3938889000001,833.3938889000001,833.3782088000007,3,None,0.7504634000006263,0.1895027000000482,,,,,,,,,,,,,,,,,,,,,,3098,1,2025-10-31_09h55.28.706,sm,2024.2.4,59.960234372539105,2025-10-31 09h56.23.971073 +0100,
6,0,6,,,,,,space,2.9996714999997494,None,None,2,None,0.7276379000004454,0.20453809999980876,0,0,0,0,,,,,1,0,1,0,,,,,6,0,6,0,833.3938889000001,,,,,,,,,,,,,,,,,,,,,,,,,,,,,,,,,,,,,,,,,,,,,,,,,,,,,,,,,Besucher,2.316,833.3787516000002,833.3793593999999,833.3795085000002,833.3938889000001,835.7102423000006,835.6947002000006,835.6991263,835.7102423000006,835.7102423000006,835.7102423000006,835.7102423000006,837.7103293,837.7103293,837.7103293,837.7103293,837.6945562999999,2,None,0.7276379000004454,0.20453809999980876,,,,,,,,,,,,,,,,,,,,,,3098,1,2025-10-31_09h55.28.706,sm,2024.2.4,59.960234372539105,2025-10-31 09h56.23.971073 +0100,
7,0,7,,,,,,space,2.9996714999997494,None,None,3,None,0.8846419000001333,0.23348359999999957,0,0,0,0,,,,,1,0,1,0,,,,,7,0,7,0,837.7103293,,,,,,,,,,,,,,,,,,,,,,,,,,,,,,,,,,,,,,,,,,,,,,,,,,,,,,,,,Fahrrad,5.7608,837.6950494000002,837.6955515,837.6956577000001,837.7103293,843.4762587000005,843.4607483,843.46443,843.4762587000005,843.4762587000005,843.4762587000005,843.4762587000005,845.4785419999998,845.4785419999998,845.4785419999998,845.4785419999998,845.4609887000006,3,None,0.8846419000001333,0.23348359999999957,,,,,,,,,,,,,,,,,,,,,,3098,1,2025-10-31_09h55.28.706,sm,2024.2.4,59.960234372539105,2025-10-31 09h56.23.971073 +0100,
8,0,8,,,,,,space,2.9996714999997494,None,None,3,None,1.444959899999958,0.22047849999944447,0,0,0,0,,,,,1,0,1,0,,,,,8,0,8,0,845.4785419999998,,,,,,,,,,,,,,,,,,,,,,,,,,,,,,,,,,,,,,,,,,,,,,,,,,,,,,,,,Glück,5.3326,845.4615521000005,845.4621931000001,845.4623033000007,845.4785419999998,850.8261235999998,850.8104422000006,850.8144176000005,850.8261235999998,850.8261235999998,850.8261235999998,850.8261235999998,852.8260244000003,852.8260244000003,852.8260244000003,852.8260244000003,852.8103297000007,3,None,1.444959899999958,0.22047849999944447,,,,,,,,,,,,,,,,,,,,,,3098,1,2025-10-31_09h55.28.706,sm,2024.2.4,59.960234372539105,2025-10-31 09h56.23.971073 +0100,
9,0,9,,,,,,space,2.9996714999997494,None,None,2,None,0.9562095999999656,0.20876479999969888,0,0,0,0,,,,,1,0,1,0,,,,,9,0,9,0,852.8260244000003,,,,,,,,,,,,,,,,,,,,,,,,,,,,,,,,,,,,,,,,,,,,,,,,,,,,,,,,,Schulter,2.7094,852.8108540000003,852.8114886000003,852.8115967000003,852.8260244000003,855.5425985000002,855.5269262000002,855.5320927000002,855.5425985000002,855.5425985000002,855.5425985000002,855.5425985000002,857.5424133000006,857.5424133000006,857.5424133000006,857.5424133000006,857.5266686000004,2,None,0.9562095999999656,0.20876479999969888,,,,,,,,,,,,,,,,,,,,,,3098,1,2025-10-31_09h55.28.706,sm,2024.2.4,59.960234372539105,2025-10-31 09h56.23.971073 +0100,
10,0,10,,,,,,space,2.9996714999997494,None,None,3,None,1.120176100000208,0.19559530000060477,0,0,0,0,,,,,1,0,1,0,,,,,10,0,10,0,857.5424133000006,,,,,,,,,,,,,,,,,,,,,,,,,,,,,,,,,,,,,,,,,,,,,,,,,,,,,,,,,Küche,2.9837,857.5271634000001,857.5278054,857.5279135000001,857.5424133000006,860.5256201000002,860.5098066999999,860.5131793999999,860.5256201000002,860.5256201000002,860.5256201000002,860.5256201000002,862.5253692000006,862.5253692000006,862.5253692000006,862.5253692000006,862.5101212,3,None,1.120176100000208,0.19559530000060477,,,,,,,,,,,,,,,,,,,,,,3098,1,2025-10-31_09h55.28.706,sm,2024.2.4,59.960234372539105,2025-10-31 09h56.23.971073 +0100,
11,0,11,,,,,,space,2.9996714999997494,None,None,3,None,1.8448398999998972,None,0,0,0,0,,,,,1,0,1,0,,,,,11,0,11,0,862.5253692000006,,,,,,,,,,,,,,,,,,,,,,,,,,,,,,,,,,,,,,,,,,,,,,,,,,,,,,,,,Ausbruch,2.1752,862.5106352000003,862.5113807000007,862.5114867000002,862.5253692000006,864.7088023000006,864.6930396000007,864.6972789000001,864.7088023000006,864.7088023000006,864.7088023000006,864.7088023000006,866.7085158,866.7085158,866.7085158,866.7085158,866.6931328999999,3,None,1.8448398999998972,None,,,,,,,,,,,,,,,,,,,,,,3098,1,2025-10-31_09h55.28.706,sm,2024.2.4,59.960234372539105,2025-10-31 09h56.23.971073 +0100,
12,0,12,,,,,,space,2.9996714999997494,None,None,2,None,0.7792053999992277,0.19449210000038875,0,0,0,0,,,,,1,0,1,0,,,,,12,0,12,0,866.7085158,,,,,,,,,,,,,,,,,,,,,,,,,,,,,,,,,,,,,,,,,,,,,,,,,,,,,,,,,Schwimmen,2.4971,866.6936408000001,866.6944294000004,866.6945393000005,866.7085158,869.2080756000005,869.1925956000005,869.1964918000003,869.2080756000005,869.2080756000005,869.2080756000005,869.2080756000005,871.2082884000001,871.2082884000001,871.2082884000001,871.2082884000001,871.1925927000002,2,None,0.7792053999992277,0.19449210000038875,,,,,,,,,,,,,,,,,,,,,,3098,1,2025-10-31_09h55.28.706,sm,2024.2.4,59.960234372539105,2025-10-31 09h56.23.971073 +0100,
13,0,13,,,,,,space,2.9996714999997494,None,None,3,None,0.7379899999996269,0.20686560000012832,0,0,0,0,,,,,1,0,1,0,,,,,13,0,13,0,871.2082884000001,,,,,,,,,,,,,,,,,,,,,,,,,,,,,,,,,,,,,,,,,,,,,,,,,,,,,,,,,Nummer,2.2984,871.1930564000004,871.1935388000002,871.1936356000006,871.2082884000001,873.5078080000003,873.4925536000001,873.4964295,873.5078080000003,873.5078080000003,873.5078080000003,873.5078080000003,875.5081048000002,875.5081048000002,875.5081048000002,875.5081048000002,875.4925459000006,3,None,0.7379899999996269,0.20686560000012832,,,,,,,,,,,,,,,,,,,,,,3098,1,2025-10-31_09h55.28.706,sm,2024.2.4,59.960234372539105,2025-10-31 09h56.23.971073 +0100,
14,0,14,,,,,,space,2.9996714999997494,None,None,3,None,1.2910270000002129,0.20384099999955652,0,0,0,0,,,,,1,0,1,0,,,,,14,0,14,0,875.5081048000002,,,,,,,,,,,,,,,,,,,,,,,,,,,,,,,,,,,,,,,,,,,,,,,,,,,,,,,,,Sack,2.3365,875.4930616000001,875.4935718000006,875.4936785,875.5081048000002,877.8576836000002,877.8422940999999,877.8455155000001,877.8576836000002,877.8576836000002,877.8576836000002,877.8576836000002,879.8580639000002,879.8580639000002,879.8580639000002,879.8580639000002,879.8421339000006,3,None,1.2910270000002129,0.20384099999955652,,,,,,,,,,,,,,,,,,,,,,3098,1,2025-10-31_09h55.28.706,sm,2024.2.4,59.960234372539105,2025-10-31 09h56.23.971073 +0100,
15,0,15,,,,,,space,2.9996714999997494,None,None,2,None,1.0263303000001542,0.17468800000006013,0,0,0,0,,,,,1,0,1,0,,,,,15,0,15,0,879.8580639000002,,,,,,,,,,,,,,,,,,,,,,,,,,,,,,,,,,,,,,,,,,,,,,,,,,,,,,,,,Kartoffel,3.0836,879.8426491999999,879.8431562000005,879.8432609000001,879.8580639000002,882.9408283000002,882.9259413,882.9301651000005,882.9408283000002,882.9408283000002,882.9408283000002,882.9408283000002,884.9408203000003,884.9408203000003,884.9408203000003,884.9408203000003,884.9253181000004,2,None,1.0263303000001542,0.17468800000006013,,,,,,,,,,,,,,,,,,,,,,3098,1,2025-10-31_09h55.28.706,sm,2024.2.4,59.960234372539105,2025-10-31 09h56.23.971073 +0100,
16,0,16,,,,,,space,2.9996714999997494,None,None,2,None,1.7579055999995035,0.1709443999998257,0,0,0,0,,,,,1,0,1,0,,,,,16,0,16,0,884.9408203000003,,,,,,,,,,,,,,,,,,,,,,,,,,,,,,,,,,,,,,,,,,,,,,,,,,,,,,,,,Essen,2.2292,884.9258239999999,884.9263445000006,884.9264496000005,884.9408203000003,887.1740358000006,887.1588267000006,887.1637691000005,887.1740358000006,887.1740358000006,887.1740358000006,887.1740358000006,889.1741519000007,889.1741519000007,889.1741519000007,889.1741519000007,889.1584149,2,None,1.7579055999995035,0.1709443999998257,,,,,,,,,,,,,,,,,,,,,,3098,1,2025-10-31_09h55.28.706,sm,2024.2.4,59.960234372539105,2025-10-31 09h56.23.971073 +0100,
17,0,17,,,,,,space,2.9996714999997494,None,None,3,None,0.9983158999993975,0.1913580999998885,0,0,0,0,,,,,1,0,1,0,,,,,17,0,17,0,889.1741519000007,,,,,,,,,,,,,,,,,,,,,,,,,,,,,,,,,,,,,,,,,,,,,,,,,,,,,,,,,Marmor,2.2129,889.1589342000007,889.1594437000003,889.1595482000002,889.1741519000007,891.3905531999999,891.3751695999999,891.3793910000004,891.3905531999999,891.3905531999999,891.3905531999999,891.3905531999999,893.3905539000007,893.3905539000007,893.3905539000007,893.3905539000007,893.3744242000002,3,None,0.9983158999993975,0.1913580999998885,,,,,,,,,,,,,,,,,,,,,,3098,1,2025-10-31_09h55.28.706,sm,2024.2.4,59.960234372539105,2025-10-31 09h56.23.971073 +0100,
18,0,18,,,,,,space,2.9996714999997494,None,None,3,None,0.8692709999995714,0.17751769999995304,0,0,0,0,,,,,1,0,1,0,,,,,18,0,18,0,893.3905539000007,,,,,,,,,,,,,,,,,,,,,,,,,,,,,,,,,,,,,,,,,,,,,,,,,,,,,,,,,Schloss,2.2411,893.3748817000005,893.3755056999998,893.3755996,893.3905539000007,895.6406820000002,895.6244609000005,895.6286275000002,895.6406820000002,895.6406820000002,895.6406820000002,895.6406820000002,897.6401574000001,897.6401574000001,897.6401574000001,897.6401574000001,897.6245378000003,3,None,0.8692709999995714,0.17751769999995304,,,,,,,,,,,,,,,,,,,,,,3098,1,2025-10-31_09h55.28.706,sm,2024.2.4,59.960234372539105,2025-10-31 09h56.23.971073 +0100,
19,0,19,,,,,,space,2.9996714999997494,None,None,2,None,0.7239394000007451,0.1661361999995279,0,0,0,0,,,,,1,0,1,0,,,,,19,0,19,0,897.6401574000001,,,,,,,,,,,,,,,,,,,,,,,,,,,,,,,,,,,,,,,,,,,,,,,,,,,,,,,,,Bruder,2.1588,897.6250485999999,897.6257849000003,897.6258895999999,897.6401574000001,899.8068069000001,899.7910929,899.7953505000005,899.8068069000001,899.8068069000001,899.8068069000001,899.8068069000001,901.8065194000001,901.8065194000001,901.8065194000001,901.8065194000001,901.7910703000007,2,None,0.7239394000007451,0.1661361999995279,,,,,,,,,,,,,,,,,,,,,,3098,1,2025-10-31_09h55.28.706,sm,2024.2.4,59.960234372539105,2025-10-31 09h56.23.971073 +0100,
20,0,20,,,,,,space,2.9996714999997494,None,None,2,None,1.0028864000005342,0.17703699999947276,0,0,0,0,,,,,1,0,1,0,,,,,20,0,20,0,901.8065194000001,,,,,,,,,,,,,,,,,,,,,,,,,,,,,,,,,,,,,,,,,,,,,,,,,,,,,,,,,Spion,2.0546,901.7915837999999,901.7920861000002,901.7921897000006,901.8065194000001,903.8729001000002,903.8576888000007,903.8612429000004,903.8729001000002,903.8729001000002,903.8729001000002,903.8729001000002,905.8729374000004,905.8729374000004,905.8729374000004,905.8729374000004,905.8574699999999,2,None,1.0028864000005342,0.17703699999947276,,,,,,,,,,,,,,,,,,,,,,3098,1,2025-10-31_09h55.28.706,sm,2024.2.4,59.960234372539105,2025-10-31 09h56.23.971073 +0100,
21,0,21,,,,,,space,2.9996714999997494,None,None,2,None,1.4975807000000714,0.17537110000012035,0,0,0,0,,,,,1,0,1,0,,,,,21,0,21,0,905.8729374000004,,,,,,,,,,,,,,,,,,,,,,,,,,,,,,,,,,,,,,,,,,,,,,,,,,,,,,,,,Olympia,2.5864,905.8579804999999,905.8586229000002,905.8587273000003,905.8729374000004,908.4727604,908.4568136000007,908.4627230000006,908.4727604,908.4727604,908.4727604,908.4727604,910.4726816000002,910.4726816000002,910.4726816000002,910.4726816000002,910.4570205999999,2,None,1.4975807000000714,0.17537110000012035,,,,,,,,,,,,,,,,,,,,,,3098,1,2025-10-31_09h55.28.706,sm,2024.2.4,59.960234372539105,2025-10-31 09h56.23.971073 +0100,
22,0,22,,,,,,space,2.9996714999997494,None,None,2,None,1.6272085999999035,0.1759312999993199,0,0,0,0,,,,,1,0,1,0,,,,,22,0,22,0,910.4726816000002,,,,,,,,,,,,,,,,,,,,,,,,,,,,,,,,,,,,,,,,,,,,,,,,,,,,,,,,,Weihnachten,3.6728,910.4575341,910.4582712000001,910.4583829000003,910.4726816000002,914.1555484,914.1398220000001,914.1443232000001,914.1555484,914.1555484,914.1555484,914.1555484,916.1557591000001,916.1557591000001,916.1557591000001,916.1557591000001,916.1400405000004,2,None,1.6272085999999035,0.1759312999993199,,,,,,,,,,,,,,,,,,,,,,3098,1,2025-10-31_09h55.28.706,sm,2024.2.4,59.960234372539105,2025-10-31 09h56.23.971073 +0100,
23,0,23,,,,,,space,2.9996714999997494,None,None,2,None,0.6491530000002967,0.29650579999997717,0,0,0,0,,,,,1,0,1,0,,,,,23,0,23,0,916.1557591000001,,,,,,,,,,,,,,,,,,,,,,,,,,,,,,,,,,,,,,,,,,,,,,,,,,,,,,,,,Vampir,2.3909,916.1405582000007,916.1410652000004,916.1411685000003,916.1557591000001,918.5554244000004,918.5398703999999,918.5439959000005,918.5554244000004,918.5554244000004,918.5554244000004,918.5554244000004,920.5553418,920.5553418,920.5553418,920.5553418,920.5397154000002,2,None,0.6491530000002967,0.29650579999997717,,,,,,,,,,,,,,,,,,,,,,3098,1,2025-10-31_09h55.28.706,sm,2024.2.4,59.960234372539105,2025-10-31 09h56.23.971073 +0100,
24,0,24,,,,,,space,2.9996714999997494,None,None,3,None,1.3373701000000437,0.16614879999997356,0,0,0,0,,,,,1,0,1,0,,,,,24,0,24,0,920.5553418,,,,,,,,,,,,,,,,,,,,,,,,,,,,,,,,,,,,,,,,,,,,,,,,,,,,,,,,,Brille,2.3901,920.5401984999999,920.5407314000004,920.5408318999998,920.5553418,922.9551927000002,922.9400143000003,922.9440270000005,922.9551927000002,922.9551927000002,922.9551927000002,922.9551927000002,924.9551758000007,924.9551758000007,924.9551758000007,924.9551758000007,924.9396346000003,3,None,1.3373701000000437,0.16614879999997356,,,,,,,,,,,,,,,,,,,,,,3098,1,2025-10-31_09h55.28.706,sm,2024.2.4,59.960234372539105,2025-10-31 09h56.23.971073 +0100,
25,0,25,,,,,,space,2.9996714999997494,None,None,2,None,0.937898099999984,0.15798999999969965,0,0,0,0,,,,,1,0,1,0,,,,,25,0,25,0,924.9551758000007,,,,,,,,,,,,,,,,,,,,,,,,,,,,,,,,,,,,,,,,,,,,,,,,,,,,,,,,,Blumen,3.2407,924.940149,924.9406540999998,924.9407580000006,924.9551758000007,928.2048545000007,928.1894630000006,928.1931935000002,928.2048545000007,928.2048545000007,928.2048545000007,928.2048545000007,930.2048795999999,930.2048795999999,930.2048795999999,930.2048795999999,930.1892612000001,2,None,0.937898099999984,0.15798999999969965,,,,,,,,,,,,,,,,,,,,,,3098,1,2025-10-31_09h55.28.706,sm,2024.2.4,59.960234372539105,2025-10-31 09h56.23.971073 +0100,
26,0,26,,,,,,space,2.9996714999997494,None,None,3,None,1.5132410999995045,0.16933180000069115,0,0,0,0,,,,,1,0,1,0,,,,,26,0,26,0,930.2048795999999,,,,,,,,,,,,,,,,,,,,,,,,,,,,,,,,,,,,,,,,,,,,,,,,,,,,,,,,,Wissen,2.4148,930.1897761,930.1902774999999,930.1903806999999,930.2048795999999,932.6219480999998,932.6058436000003,932.6097292000004,932.6219480999998,932.6219480999998,932.6219480999998,932.6219480999998,934.6216983000004,934.6216983000004,934.6216983000004,934.6216983000004,934.6058544000007,3,None,1.5132410999995045,0.16933180000069115,,,,,,,,,,,,,,,,,,,,,,3098,1,2025-10-31_09h55.28.706,sm,2024.2.4,59.960234372539105,2025-10-31 09h56.23.971073 +0100,
27,0,27,,,,,,space,2.9996714999997494,None,None,2,None,0.7895300000000134,0.16465270000026067,0,0,0,0,,,,,1,0,1,0,,,,,27,0,27,0,934.6216983000004,,,,,,,,,,,,,,,,,,,,,,,,,,,,,,,,,,,,,,,,,,,,,,,,,,,,,,,,,Baum,3.2097,934.6063725000004,934.6068814999999,934.6069895999999,934.6216983000004,937.8378261000007,937.8222820999999,937.8260716000004,937.8378261000007,937.8378261000007,937.8378261000007,937.8378261000007,939.8380529000005,939.8380529000005,939.8380529000005,939.8380529000005,939.8220584000001,2,None,0.7895300000000134,0.16465270000026067,,,,,,,,,,,,,,,,,,,,,,3098,1,2025-10-31_09h55.28.706,sm,2024.2.4,59.960234372539105,2025-10-31 09h56.23.971073 +0100,
28,0,28,,,,,,space,2.9996714999997494,None,None,3,None,1.1136141000006319,0.19308359999922686,0,0,0,0,,,,,1,0,1,0,,,,,28,0,28,0,939.8380529000005,,,,,,,,,,,,,,,,,,,,,,,,,,,,,,,,,,,,,,,,,,,,,,,,,,,,,,,,,Papier,2.0159,939.8225831999998,939.8230915000004,939.8231949000001,939.8380529000005,941.8540591999999,941.8389752000003,941.8426666000005,941.8540591999999,941.8540591999999,941.8540591999999,941.8540591999999,943.8540985,943.8540985,943.8540985,943.8540985,943.8384387000006,3,None,1.1136141000006319,0.19308359999922686,,,,,,,,,,,,,,,,,,,,,,3098,1,2025-10-31_09h55.28.706,sm,2024.2.4,59.960234372539105,2025-10-31 09h56.23.971073 +0100,
29,0,29,,,,,,space,2.9996714999997494,None,None,None,None,,,0,0,0,0,,,,,1,0,1,0,,,,,29,0,29,0,943.8540985,,,,,,,,,,,,,,,,,,,,,,,,,,,,,,,,,,,,,,,,,,,,,,,,,,,,,,,,,Sprache,2.2954,943.8389440000001,943.8395758000006,943.8396782999998,943.8540985,946.1540414000001,946.1385270999999,946.1436357000002,946.1540414000001,946.1540414000001,946.1540414000001,946.1540414000001,948.1537819000005,948.1537819000005,948.1537819000005,948.1537819000005,948.1382883000006,None,None,,,,,,,,,,,,,,,,,,,,,,,,3098,1,2025-10-31_09h55.28.706,sm,2024.2.4,59.960234372539105,2025-10-31 09h56.23.971073 +0100,
30,0,30,,,,,,space,2.9996714999997494,None,None,2,None,1.048180599999796,0.17350750000059634,0,0,0,0,,,,,1,0,1,0,,,,,30,0,30,0,948.1537819000005,,,,,,,,,,,,,,,,,,,,,,,,,,,,,,,,,,,,,,,,,,,,,,,,,,,,,,,,,Rasen,2.0557,948.1387393000005,948.1393169000003,948.1394164000003,948.1537819000005,950.2207312,950.2048791000007,950.2088553000003,950.2207312,950.2207312,950.2207312,950.2207312,952.2204879000001,952.2204879000001,952.2204879000001,952.2204879000001,952.2048124000003,2,None,1.048180599999796,0.17350750000059634,,,,,,,,,,,,,,,,,,,,,,3098,1,2025-10-31_09h55.28.706,sm,2024.2.4,59.960234372539105,2025-10-31 09h56.23.971073 +0100,
31,0,31,,,,,,space,2.9996714999997494,None,None,2,None,0.6852708000005805,0.20933309999963967,0,0,0,0,,,,,1,0,1,0,,,,,31,0,31,0,952.2204879000001,,,,,,,,,,,,,,,,,,,,,,,,,,,,,,,,,,,,,,,,,,,,,,,,,,,,,,,,,Sumpf,2.6047,952.2053273000001,952.2059861000007,952.2060925000005,952.2204879000001,954.8368980000005,954.8212336000006,954.8254239000007,954.8368980000005,954.8368980000005,954.8368980000005,954.8368980000005,956.8367232,956.8367232,956.8367232,956.8367232,956.8210546,2,None,0.6852708000005805,0.20933309999963967,,,,,,,,,,,,,,,,,,,,,,3098,1,2025-10-31_09h55.28.706,sm,2024.2.4,59.960234372539105,2025-10-31 09h56.23.971073 +0100,
32,0,32,,,,,,space,2.9996714999997494,None,None,2,None,1.6125959000000876,0.19783379999989847,0,0,0,0,,,,,1,0,1,0,,,,,32,0,32,0,956.8367232,,,,,,,,,,,,,,,,,,,,,,,,,,,,,,,,,,,,,,,,,,,,,,,,,,,,,,,,,Trennung,3.0384,956.8215733000006,956.8221543,956.8222620000006,956.8367232,959.8864173000002,959.8711929000001,959.8753757000004,959.8864173000002,959.8864173000002,959.8864173000002,959.8864173000002,961.8865009000001,961.8865009000001,961.8865009000001,961.8865009000001,961.8708851000001,2,None,1.6125959000000876,0.19783379999989847,,,,,,,,,,,,,,,,,,,,,,3098,1,2025-10-31_09h55.28.706,sm,2024.2.4,59.960234372539105,2025-10-31 09h56.23.971073 +0100,
33,0,33,,,,,,space,2.9996714999997494,None,None,2,None,1.2402521999993041,None,0,0,0,0,,,,,1,0,1,0,,,,,33,0,33,0,961.8865009000001,,,,,,,,,,,,,,,,,,,,,,,,,,,,,,,,,,,,,,,,,,,,,,,,,,,,,,,,,Tanz,3.6546,961.8713971000006,961.8719123000001,961.8720160000003,961.8865009000001,965.5525167000005,965.5370130000001,965.5400907000003,965.5525167000005,965.5525167000005,965.5525167000005,965.5525167000005,967.5526457000005,967.5526457000005,967.5526457000005,967.5526457000005,967.5371974,2,None,1.2402521999993041,None,,,,,,,,,,,,,,,,,,,,,,3098,1,2025-10-31_09h55.28.706,sm,2024.2.4,59.960234372539105,2025-10-31 09h56.23.971073 +0100,
34,0,34,,,,,,space,2.9996714999997494,None,None,3,None,1.0820085000004838,0.19741609999982757,0,0,0,0,,,,,1,0,1,0,,,,,34,0,34,0,967.5526457000005,,,,,,,,,,,,,,,,,,,,,,,,,,,,,,,,,,,,,,,,,,,,,,,,,,,,,,,,,Bluse,2.0142,967.5377149000005,967.5382662000002,967.5383965000001,967.5526457000005,969.5691851000001,969.5535801000005,969.5575979000005,969.5691851000001,969.5691851000001,969.5691851000001,969.5691851000001,971.5693844000007,971.5693844000007,971.5693844000007,971.5693844000007,971.5535763000007,3,None,1.0820085000004838,0.19741609999982757,,,,,,,,,,,,,,,,,,,,,,3098,1,2025-10-31_09h55.28.706,sm,2024.2.4,59.960234372539105,2025-10-31 09h56.23.971073 +0100,
35,0,35,,,,,,space,2.9996714999997494,None,None,None,None,,,0,0,0,0,,,,,1,0,1,0,,,,,35,0,35,0,971.5693844000007,,,,,,,,,,,,,,,,,,,,,,,,,,,,,,,,,,,,,,,,,,,,,,,,,,,,,,,,,Tischler,2.0675,971.5540559000001,971.5547059,971.5548042,971.5693844000007,973.6524313999998,973.6371061,973.6413501000006,973.6524313999998,973.6524313999998,973.6524313999998,973.6524313999998,975.6523642000002,975.6523642000002,975.6523642000002,975.6523642000002,975.6366519000003,None,None,,,,,,,,,,,,,,,,,,,,,,,,3098,1,2025-10-31_09h55.28.706,sm,2024.2.4,59.960234372539105,2025-10-31 09h56.23.971073 +0100,
36,0,36,,,,,,space,2.9996714999997494,None,None,3,None,1.1008318000003783,0.20151549999991403,0,0,0,0,,,,,1,0,1,0,,,,,36,0,36,0,975.6523642000002,,,,,,,,,,,,,,,,,,,,,,,,,,,,,,,,,,,,,,,,,,,,,,,,,,,,,,,,,Schule,3.0216,975.6371380999999,975.6376426000006,975.6377466000004,975.6523642000002,978.6851329000001,978.6698016999999,978.6756220000007,978.6851329000001,978.6851329000001,978.6851329000001,978.6851329000001,980.6852485,980.6852485,980.6852485,980.6852485,980.6698136000005,3,None,1.1008318000003783,0.20151549999991403,,,,,,,,,,,,,,,,,,,,,,3098,1,2025-10-31_09h55.28.706,sm,2024.2.4,59.960234372539105,2025-10-31 09h56.23.971073 +0100,
37,0,37,,,,,,space,2.9996714999997494,None,None,2,None,0.6912501999995584,0.18956290000005538,0,0,0,0,,,,,1,0,1,0,,,,,37,0,37,0,980.6852485,,,,,,,,,,,,,,,,,,,,,,,,,,,,,,,,,,,,,,,,,,,,,,,,,,,,,,,,,Anführer,2.6177,980.6703826000003,980.6708933,980.6709995000001,980.6852485,983.3183814000004,983.3028171000005,983.3070138000003,983.3183814000004,983.3183814000004,983.3183814000004,983.3183814000004,985.3184637000004,985.3184637000004,985.3184637000004,985.3184637000004,985.3025602000007,2,None,0.6912501999995584,0.18956290000005538,,,,,,,,,,,,,,,,,,,,,,3098,1,2025-10-31_09h55.28.706,sm,2024.2.4,59.960234372539105,2025-10-31 09h56.23.971073 +0100,
38,0,38,,,,,,space,2.9996714999997494,None,None,2,None,0.8118813999999475,0.19601669999974547,0,0,0,0,,,,,1,0,1,0,,,,,38,0,38,0,985.3184637000004,,,,,,,,,,,,,,,,,,,,,,,,,,,,,,,,,,,,,,,,,,,,,,,,,,,,,,,,,Feier,5.2904,985.3030423999999,985.3035276999999,985.3036249000006,985.3184637000004,990.6179695999999,990.6024265000005,990.6060708000005,990.6179695999999,990.6179695999999,990.6179695999999,990.6179695999999,992.6179786000002,992.6179786000002,992.6179786000002,992.6179786000002,992.6022922000002,2,None,0.8118813999999475,0.19601669999974547,,,,,,,,,,,,,,,,,,,,,,3098,1,2025-10-31_09h55.28.706,sm,2024.2.4,59.960234372539105,2025-10-31 09h56.23.971073 +0100,
39,0,39,,,,,,space,2.9996714999997494,None,None,2,None,0.6622459000000163,0.18145879999974568,0,0,0,0,,,,,1,0,1,0,,,,,39,0,39,0,992.6179786000002,,,,,,,,,,,,,,,,,,,,,,,,,,,,,,,,,,,,,,,,,,,,,,,,,,,,,,,,,Elephant,2.5917,992.6028108999999,992.6033210000005,992.6034247000007,992.6179786000002,995.2174048000006,995.2017808999999,995.2054440000002,995.2174048000006,995.2174048000006,995.2174048000006,995.2174048000006,997.2177586000007,997.2177586000007,997.2177586000007,997.2177586000007,997.2023206000003,2,None,0.6622459000000163,0.18145879999974568,,,,,,,,,,,,,,,,,,,,,,3098,1,2025-10-31_09h55.28.706,sm,2024.2.4,59.960234372539105,2025-10-31 09h56.23.971073 +0100,
40,0,40,,,,,,space,2.9996714999997494,None,None,3,None,0.8774309000000358,0.22004939999987982,0,0,0,0,,,,,1,0,1,0,,,,,40,0,40,0,997.2177586000007,,,,,,,,,,,,,,,,,,,,,,,,,,,,,,,,,,,,,,,,,,,,,,,,,,,,,,,,,Soße,3.4371,997.2028239000001,997.2033893000007,997.2034946000003,997.2177586000007,1000.6675195000007,1000.6520717000003,1000.6557868999998,1000.6675195000007,1000.6675195000007,1000.6675195000007,1000.6675195000007,1002.6672423,1002.6672423,1002.6672423,1002.6672423,1002.6517840000006,3,None,0.8774309000000358,0.22004939999987982,,,,,,,,,,,,,,,,,,,,,,3098,1,2025-10-31_09h55.28.706,sm,2024.2.4,59.960234372539105,2025-10-31 09h56.23.971073 +0100,
41,0,41,,,,,,space,2.9996714999997494,None,None,3,None,0.7790655999997398,0.22704370000064955,0,0,0,0,,,,,1,0,1,0,,,,,41,0,41,0,1002.6672423,,,,,,,,,,,,,,,,,,,,,,,,,,,,,,,,,,,,,,,,,,,,,,,,,,,,,,,,,Dusche,2.7928,1002.6523297000003,1002.652975,1002.6531413000002,1002.6672423,1005.4671742999999,1005.4514814000004,1005.4554181000003,1005.4671742999999,1005.4671742999999,1005.4671742999999,1005.4671742999999,1007.4669291999999,1007.4669291999999,1007.4669291999999,1007.4669291999999,1007.4514831000006,3,None,0.7790655999997398,0.22704370000064955,,,,,,,,,,,,,,,,,,,,,,3098,1,2025-10-31_09h55.28.706,sm,2024.2.4,59.960234372539105,2025-10-31 09h56.23.971073 +0100,
42,0,42,,,,,,space,2.9996714999997494,None,None,3,None,1.3626062000003003,0.2070200999996814,0,0,0,0,,,,,1,0,1,0,,,,,42,0,42,0,1007.4669291999999,,,,,,,,,,,,,,,,,,,,,,,,,,,,,,,,,,,,,,,,,,,,,,,,,,,,,,,,,Komödie,4.4662,1007.4519934999998,1007.4525167000002,1007.4526179000004,1007.4669291999999,1011.9333468000004,1011.9175896000006,1011.9209417000002,1011.9333468000004,1011.9333468000004,1011.9333468000004,1011.9333468000004,1013.9334911000005,1013.9334911000005,1013.9334911000005,1013.9334911000005,1013.9176717,3,None,1.3626062000003003,0.2070200999996814,,,,,,,,,,,,,,,,,,,,,,3098,1,2025-10-31_09h55.28.706,sm,2024.2.4,59.960234372539105,2025-10-31 09h56.23.971073 +0100,
43,0,43,,,,,,space,2.9996714999997494,None,None,3,None,1.1907821000004333,0.2168590999999651,0,0,0,0,,,,,1,0,1,0,,,,,43,0,43,0,1013.9334911000005,,,,,,,,,,,,,,,,,,,,,,,,,,,,,,,,,,,,,,,,,,,,,,,,,,,,,,,,,Saft,2.2651,1013.9181830000007,1013.9187261000006,1013.9188273,1013.9334911000005,1016.1997575000005,1016.1843552,1016.1889166999999,1016.1997575000005,1016.1997575000005,1016.1997575000005,1016.1997575000005,1018.1996355000001,1018.1996355000001,1018.1996355000001,1018.1996355000001,1018.1847599000002,3,None,1.1907821000004333,0.2168590999999651,,,,,,,,,,,,,,,,,,,,,,3098,1,2025-10-31_09h55.28.706,sm,2024.2.4,59.960234372539105,2025-10-31 09h56.23.971073 +0100,
44,0,44,,,,,,space,2.9996714999997494,None,None,3,None,0.8336615999996866,0.18842789999962406,0,0,0,0,,,,,1,0,1,0,,,,,44,0,44,0,1018.1996355000001,,,,,,,,,,,,,,,,,,,,,,,,,,,,,,,,,,,,,,,,,,,,,,,,,,,,,,,,,Zahnpasta,2.2836,1018.1852773,1018.1857933000001,1018.1859017000006,1018.1996355000001,1020.4828424000007,1020.4672525000005,1020.4715264000006,1020.4828424000007,1020.4828424000007,1020.4828424000007,1020.4828424000007,1022.4828728000002,1022.4828728000002,1022.4828728000002,1022.4828728000002,1022.4675572000006,3,None,0.8336615999996866,0.18842789999962406,,,,,,,,,,,,,,,,,,,,,,3098,1,2025-10-31_09h55.28.706,sm,2024.2.4,59.960234372539105,2025-10-31 09h56.23.971073 +0100,
45,0,45,,,,,,space,2.9996714999997494,None,None,3,None,0.8776729999999588,0.18290909999996074,0,0,0,0,,,,,1,0,1,0,,,,,45,0,45,0,1022.4828728000002,,,,,,,,,,,,,,,,,,,,,,,,,,,,,,,,,,,,,,,,,,,,,,,,,,,,,,,,,Strand,3.067,1022.4680684000004,1022.4685967000005,1022.4687015,1022.4828728000002,1025.5492780000004,1025.5335863999999,1025.5375490000006,1025.5492780000004,1025.5492780000004,1025.5492780000004,1025.5492780000004,1027.549212,1027.549212,1027.549212,1027.549212,1027.5337731,3,None,0.8776729999999588,0.18290909999996074,,,,,,,,,,,,,,,,,,,,,,3098,1,2025-10-31_09h55.28.706,sm,2024.2.4,59.960234372539105,2025-10-31 09h56.23.971073 +0100,
46,0,46,,,,,,space,2.9996714999997494,None,None,2,None,0.8819031000002724,0.19191799999953219,0,0,0,0,,,,,1,0,1,0,,,,,46,0,46,0,1027.549212,,,,,,,,,,,,,,,,,,,,,,,,,,,,,,,,,,,,,,,,,,,,,,,,,,,,,,,,,Hand,3.2418,1027.5342858000004,1027.5350283000007,1027.5351307,1027.549212,1030.798831,1030.7835125000001,1030.7872588999999,1030.798831,1030.798831,1030.798831,1030.798831,1032.7991576000004,1032.7991576000004,1032.7991576000004,1032.7991576000004,1032.7837782000006,2,None,0.8819031000002724,0.19191799999953219,,,,,,,,,,,,,,,,,,,,,,3098,1,2025-10-31_09h55.28.706,sm,2024.2.4,59.960234372539105,2025-10-31 09h56.23.971073 +0100,
47,0,47,,,,,,space,2.9996714999997494,None,None,3,None,1.183583400000316,0.1974897999998575,0,0,0,0,,,,,1,0,1,0,,,,,47,0,47,0,1032.7991576000004,,,,,,,,,,,,,,,,,,,,,,,,,,,,,,,,,,,,,,,,,,,,,,,,,,,,,,,,,Bus,4.1216,1032.7843081,1032.7849885000005,1032.7850997000005,1032.7991576000004,1036.9316374,1036.9161438,1036.9191182000004,1036.9316374,1036.9316374,1036.9316374,1036.9316374,1038.9319295000005,1038.9319295000005,1038.9319295000005,1038.9319295000005,1038.9169557000005,3,None,1.183583400000316,0.1974897999998575,,,,,,,,,,,,,,,,,,,,,,3098,1,2025-10-31_09h55.28.706,sm,2024.2.4,59.960234372539105,2025-10-31 09h56.23.971073 +0100,
48,0,48,,,,,,space,2.9996714999997494,None,None,2,None,1.467171700000108,0.20991620000040712,0,0,0,0,,,,,1,0,1,0,,,,,48,0,48,0,1038.9319295000005,,,,,,,,,,,,,,,,,,,,,,,,,,,,,,,,,,,,,,,,,,,,,,,,,,,,,,,,,Geschichte,3.304,1038.9174645000003,1038.9179644000005,1038.9180718000007,1038.9319295000005,1042.2483200000006,1042.2325953,1042.2362957000005,1042.2483200000006,1042.2483200000006,1042.2483200000006,1042.2483200000006,1044.2482045000006,1044.2482045000006,1044.2482045000006,1044.2482045000006,1044.2326763,2,None,1.467171700000108,0.20991620000040712,,,,,,,,,,,,,,,,,,,,,,3098,1,2025-10-31_09h55.28.706,sm,2024.2.4,59.960234372539105,2025-10-31 09h56.23.971073 +0100,
49,0,49,,,,,,space,2.9996714999997494,None,None,2,None,1.4488607000002958,0.21075909999944997,0,0,0,0,,,,,1,0,1,0,,,,,49,0,49,0,1044.2482045000006,,,,,,,,,,,,,,,,,,,,,,,,,,,,,,,,,,,,,,,,,,,,,,,,,,,,,,,,,Film,4.9153,1044.2331967999999,1044.2337043000007,1044.2338082000006,1044.2482045000006,1049.1645164000001,1049.1488088000006,1049.1524123,1049.1645164000001,1049.1645164000001,1049.1645164000001,1049.1645164000001,1051.1644716,1051.1644716,1051.1644716,1051.1644716,1051.1490251000005,2,None,1.4488607000002958,0.21075909999944997,,,,,,,,,,,,,,,,,,,,,,3098,1,2025-10-31_09h55.28.706,sm,2024.2.4,59.960234372539105,2025-10-31 09h56.23.971073 +0100,
50,0,50,,,,,,space,2.9996714999997494,None,None,3,None,0.7403896000005261,0.21447559999978694,0,0,0,0,,,,,1,0,1,0,,,,,50,0,50,0,1051.1644716,,,,,,,,,,,,,,,,,,,,,,,,,,,,,,,,,,,,,,,,,,,,,,,,,,,,,,,,,Schnee,4.7659,1051.1495473000004,1051.1500424000005,1051.1501466,1051.1644716,1055.9307853,1055.9152607000005,1055.9202036000006,1055.9307853,1055.9307853,1055.9307853,1055.9307853,1057.9310038000003,1057.9310038000003,1057.9310038000003,1057.9310038000003,1057.9157636999998,3,None,0.7403896000005261,0.21447559999978694,,,,,,,,,,,,,,,,,,,,,,3098,1,2025-10-31_09h55.28.706,sm,2024.2.4,59.960234372539105,2025-10-31 09h56.23.971073 +0100,
51,0,51,,,,,,space,2.9996714999997494,None,None,3,None,1.0676002999998673,0.20782260000032693,0,0,0,0,,,,,1,0,1,0,,,,,51,0,51,0,1057.9310038000003,,,,,,,,,,,,,,,,,,,,,,,,,,,,,,,,,,,,,,,,,,,,,,,,,,,,,,,,,Spülung,2.4605,1057.9162706000006,1057.9168522,1057.9169551000005,1057.9310038000003,1060.3972135000004,1060.3813746000005,1060.3846703,1060.3972135000004,1060.3972135000004,1060.3972135000004,1060.3972135000004,1062.3974134,1062.3974134,1062.3974134,1062.3974134,1062.3816686,3,None,1.0676002999998673,0.20782260000032693,,,,,,,,,,,,,,,,,,,,,,3098,1,2025-10-31_09h55.28.706,sm,2024.2.4,59.960234372539105,2025-10-31 09h56.23.971073 +0100,
52,0,52,,,,,,space,2.9996714999997494,None,None,2,None,0.8026795000005222,0.17056009999942034,0,0,0,0,,,,,1,0,1,0,,,,,52,0,52,0,1062.3974134,,,,,,,,,,,,,,,,,,,,,,,,,,,,,,,,,,,,,,,,,,,,,,,,,,,,,,,,,Leute,2.0694,1062.3821828,1062.3826991000005,1062.3828057,1062.3974134,1064.4806261000003,1064.4648318,1064.4689476000003,1064.4806261000003,1064.4806261000003,1064.4806261000003,1064.4806261000003,1066.4805829000006,1066.4805829000006,1066.4805829000006,1066.4805829000006,1066.4647891000004,2,None,0.8026795000005222,0.17056009999942034,,,,,,,,,,,,,,,,,,,,,,3098,1,2025-10-31_09h55.28.706,sm,2024.2.4,59.960234372539105,2025-10-31 09h56.23.971073 +0100,
53,0,53,,,,,,space,2.9996714999997494,None,None,3,None,0.965836099999251,0.20232060000034835,0,0,0,0,,,,,1,0,1,0,,,,,53,0,53,0,1066.4805829000006,,,,,,,,,,,,,,,,,,,,,,,,,,,,,,,,,,,,,,,,,,,,,,,,,,,,,,,,,Auto,2.8174,1066.4653111000007,1066.4658187000005,1066.4659238000004,1066.4805829000006,1069.3135542,1069.2979706000006,1069.3016318999998,1069.3135542,1069.3135542,1069.3135542,1069.3135542,1071.3133686,1071.3133686,1071.3133686,1071.3133686,1071.2980157000002,3,None,0.965836099999251,0.20232060000034835,,,,,,,,,,,,,,,,,,,,,,3098,1,2025-10-31_09h55.28.706,sm,2024.2.4,59.960234372539105,2025-10-31 09h56.23.971073 +0100,
54,0,54,,,,,,space,2.9996714999997494,None,None,2,None,1.0376913999998578,0.17109400000026653,0,0,0,0,,,,,1,0,1,0,,,,,54,0,54,0,1071.3133686,,,,,,,,,,,,,,,,,,,,,,,,,,,,,,,,,,,,,,,,,,,,,,,,,,,,,,,,,Student,2.7268,1071.2985704000002,1071.2993217000003,1071.2994818000006,1071.3133686,1074.0467721000005,1074.0307904000001,1074.0348224,1074.0467721000005,1074.0467721000005,1074.0467721000005,1074.0467721000005,1076.0463546,1076.0463546,1076.0463546,1076.0463546,1076.0308021,2,None,1.0376913999998578,0.17109400000026653,,,,,,,,,,,,,,,,,,,,,,3098,1,2025-10-31_09h55.28.706,sm,2024.2.4,59.960234372539105,2025-10-31 09h56.23.971073 +0100,
55,0,55,,,,,,space,2.9996714999997494,None,None,3,None,0.8977784999997311,0.19149280000056024,0,0,0,0,,,,,1,0,1,0,,,,,55,0,55,0,1076.0463546,,,,,,,,,,,,,,,,,,,,,,,,,,,,,,,,,,,,,,,,,,,,,,,,,,,,,,,,,Postkarte,3.7738,1076.0313197000005,1076.0318284000004,1076.0319342000003,1076.0463546,1079.8294471,1079.8138850000005,1079.8178677000005,1079.8294471,1079.8294471,1079.8294471,1079.8294471,1081.8295271000006,1081.8295271000006,1081.8295271000006,1081.8295271000006,1081.8141428,3,None,0.8977784999997311,0.19149280000056024,,,,,,,,,,,,,,,,,,,,,,3098,1,2025-10-31_09h55.28.706,sm,2024.2.4,59.960234372539105,2025-10-31 09h56.23.971073 +0100,
56,0,56,,,,,,space,2.9996714999997494,None,None,2,None,1.1724946999993335,0.17026020000048447,0,0,0,0,,,,,1,0,1,0,,,,,56,0,56,0,1081.8295271000006,,,,,,,,,,,,,,,,,,,,,,,,,,,,,,,,,,,,,,,,,,,,,,,,,,,,,,,,,Knie,2.1705,1081.8146547000006,1081.8152031,1081.8153075999999,1081.8295271000006,1084.0129162000003,1083.9970309,1084.0004727000005,1084.0129162000003,1084.0129162000003,1084.0129162000003,1084.0129162000003,1086.0125515,1086.0125515,1086.0125515,1086.0125515,1085.9972337,2,None,1.1724946999993335,0.17026020000048447,,,,,,,,,,,,,,,,,,,,,,3098,1,2025-10-31_09h55.28.706,sm,2024.2.4,59.960234372539105,2025-10-31 09h56.23.971073 +0100,
57,0,57,,,,,,space,2.9996714999997494,None,None,3,None,0.9240577999999005,0.2060356000001775,0,0,0,0,,,,,1,0,1,0,,,,,57,0,57,0,1086.0125515,,,,,,,,,,,,,,,,,,,,,,,,,,,,,,,,,,,,,,,,,,,,,,,,,,,,,,,,,Tee,2.0433,1085.9977723000002,1085.9983071000006,1085.9984140000006,1086.0125515,1088.0623311,1088.0473313000002,1088.0517184999999,1088.0623311,1088.0623311,1088.0623311,1088.0623311,1090.0623069000003,1090.0623069000003,1090.0623069000003,1090.0623069000003,1090.0466780000006,3,None,0.9240577999999005,0.2060356000001775,,,,,,,,,,,,,,,,,,,,,,3098,1,2025-10-31_09h55.28.706,sm,2024.2.4,59.960234372539105,2025-10-31 09h56.23.971073 +0100,
58,0,58,,,,,,space,2.9996714999997494,None,None,3,None,1.3557104000001345,0.1915114999992511,0,0,0,0,,,,,1,0,1,0,,,,,58,0,58,0,1090.0623069000003,,,,,,,,,,,,,,,,,,,,,,,,,,,,,,,,,,,,,,,,,,,,,,,,,,,,,,,,,Vers,2.723,1090.0471912000003,1090.0478563000006,1090.0479638000006,1090.0623069000003,1092.7953412000006,1092.7797861,1092.7832961000004,1092.7953412000006,1092.7953412000006,1092.7953412000006,1092.7953412000006,1094.7955106,1094.7955106,1094.7955106,1094.7955106,1094.7799276000005,3,None,1.3557104000001345,0.1915114999992511,,,,,,,,,,,,,,,,,,,,,,3098,1,2025-10-31_09h55.28.706,sm,2024.2.4,59.960234372539105,2025-10-31 09h56.23.971073 +0100,
59,0,59,,,,,,space,2.9996714999997494,None,None,3,None,0.8430849999995189,0.18590890000086802,0,0,0,0,,,,,1,0,1,0,,,,,59,0,59,0,1094.7955106,,,,,,,,,,,,,,,,,,,,,,,,,,,,,,,,,,,,,,,,,,,,,,,,,,,,,,,,,Zeichnung,2.7768,1094.7804382000004,1094.7810805,1094.7811837,1094.7955106,1097.5785493000003,1097.5632863,1097.5673480000005,1097.5785493000003,1097.5785493000003,1097.5785493000003,1097.5785493000003,1099.5785064000002,1099.5785064000002,1099.5785064000002,1099.5785064000002,1099.5628857000002,3,None,0.8430849999995189,0.18590890000086802,,,,,,,,,,,,,,,,,,,,,,3098,1,2025-10-31_09h55.28.706,sm,2024.2.4,59.960234372539105,2025-10-31 09h56.23.971073 +0100,
60,0,60,,,,,,space,2.9996714999997494,None,None,2,None,0.9674910000003365,0.18274399999972957,0,0,0,0,,,,,1,0,1,0,,,,,60,0,60,0,1099.5785064000002,,,,,,,,,,,,,,,,,,,,,,,,,,,,,,,,,,,,,,,,,,,,,,,,,,,,,,,,,Gesicht,2.3538,1099.5634161000007,1099.5639152000003,1099.5640232000005,1099.5785064000002,1101.9448182000006,1101.9291786000003,1101.932925,1101.9448182000006,1101.9448182000006,1101.9448182000006,1101.9448182000006,1103.9448932000005,1103.9448932000005,1103.9448932000005,1103.9448932000005,1103.9291614000003,2,None,0.9674910000003365,0.18274399999972957,,,,,,,,,,,,,,,,,,,,,,3098,1,2025-10-31_09h55.28.706,sm,2024.2.4,59.960234372539105,2025-10-31 09h56.23.971073 +0100,
61,0,61,,,,,,space,2.9996714999997494,None,None,3,None,0.9935462000003099,0.21683350000057544,0,0,0,0,,,,,1,0,1,0,,,,,61,0,61,0,1103.9448932000005,,,,,,,,,,,,,,,,,,,,,,,,,,,,,,,,,,,,,,,,,,,,,,,,,,,,,,,,,Foto,2.0073,1103.9296098000004,1103.9302289000007,1103.9303215,1103.9448932000005,1105.9611959000003,1105.9458236,1105.9494463,1105.9611959000003,1105.9611959000003,1105.9611959000003,1105.9611959000003,1107.9616906,1107.9616906,1107.9616906,1107.9616906,1107.9456501000004,3,None,0.9935462000003099,0.21683350000057544,,,,,,,,,,,,,,,,,,,,,,3098,1,2025-10-31_09h55.28.706,sm,2024.2.4,59.960234372539105,2025-10-31 09h56.23.971073 +0100,
62,0,62,,,,,,space,2.9996714999997494,None,None,2,None,1.1010647000002791,0.21528809999927034,0,0,0,0,,,,,1,0,1,0,,,,,62,0,62,0,1107.9616906,,,,,,,,,,,,,,,,,,,,,,,,,,,,,,,,,,,,,,,,,,,,,,,,,,,,,,,,,Rebe,2.4923,1107.9461642000006,1107.9467417000005,1107.9468449000005,1107.9616906,1110.4612246000006,1110.4454241000003,1110.4486176,1110.4612246000006,1110.4612246000006,1110.4612246000006,1110.4612246000006,1112.4608647000005,1112.4608647000005,1112.4608647000005,1112.4608647000005,1112.4455838000003,2,None,1.1010647000002791,0.21528809999927034,,,,,,,,,,,,,,,,,,,,,,3098,1,2025-10-31_09h55.28.706,sm,2024.2.4,59.960234372539105,2025-10-31 09h56.23.971073 +0100,
63,0,63,,,,,,space,2.9996714999997494,None,None,2,None,1.2881471000000602,0.2088034999997035,0,0,0,0,,,,,1,0,1,0,,,,,63,0,63,0,1112.4608647000005,,,,,,,,,,,,,,,,,,,,,,,,,,,,,,,,,,,,,,,,,,,,,,,,,,,,,,,,,Musik,2.9966,1112.4461007,1112.4466112999999,1112.4467163,1112.4608647000005,1115.460478,1115.4449847000005,1115.4488426000007,1115.460478,1115.460478,1115.460478,1115.460478,1117.4606993000007,1117.4606993000007,1117.4606993000007,1117.4606993000007,1117.4451341000004,2,None,1.2881471000000602,0.2088034999997035,,,,,,,,,,,,,,,,,,,,,,3098,1,2025-10-31_09h55.28.706,sm,2024.2.4,59.960234372539105,2025-10-31 09h56.23.971073 +0100,
64,0,64,,,,,,space,2.9996714999997494,None,None,3,None,0.9158299000000625,0.1966229999998177,0,0,0,0,,,,,1,0,1,0,,,,,64,0,64,0,1117.4606993000007,,,,,,,,,,,,,,,,,,,,,,,,,,,,,,,,,,,,,,,,,,,,,,,,,,,,,,,,,Klinge,3.385,1117.4456531000005,1117.4461639,1117.4462699000005,1117.4606993000007,1120.8603837,1120.8448433000003,1120.8499445000007,1120.8603837,1120.8603837,1120.8603837,1120.8603837,1122.860321,1122.860321,1122.860321,1122.860321,1122.8451160000004,3,None,0.9158299000000625,0.1966229999998177,,,,,,,,,,,,,,,,,,,,,,3098,1,2025-10-31_09h55.28.706,sm,2024.2.4,59.960234372539105,2025-10-31 09h56.23.971073 +0100,
