thisN,thisTrialN,thisRepN,Cue,Target,Mediator1,Mediator2,iti,scanner_ready_press.keys,scanner_ready_press.rt,scanner_ready_press.duration,skip_trigger.keys,living_nonliving.keys,living_nonliving.rt,living_nonliving.duration,end_mapping.keys,blocks.thisRepN,blocks.thisTrialN,blocks.thisN,blocks.thisIndex,load_and_shuffle.thisRepN,load_and_shuffle.thisTrialN,load_and_shuffle.thisN,load_and_shuffle.thisIndex,runs.thisRepN,runs.thisTrialN,runs.thisN,runs.thisIndex,iti_loading_loop.thisRepN,iti_loading_loop.thisTrialN,iti_loading_loop.thisN,iti_loading_loop.thisIndex,semantic_mapping_run.thisRepN,semantic_mapping_run.thisTrialN,semantic_mapping_run.thisN,semantic_mapping_run.thisIndex,thisRow.t,notes,welcome.started,welcome_text.started,key_resp__welcome.started,welcome.stopped,key_resp__welcome.keys,key_resp__welcome.rt,key_resp__welcome.duration,scout.started,scout_text.started,key_resp.started,scout.stopped,key_resp.keys,key_resp.rt,key_resp.duration,instructions_semantic_mapping1.started,sm_instructions1_text.started,sm_instructions1_key.started,instructions_semantic_mapping1.stopped,sm_instructions1_key.keys,sm_instructions1_key.rt,sm_instructions1_key.duration,instructions_semantic_mapping2.started,sm_instructions2_text.started,sm_instructions2_key.started,instructions_semantic_mapping2.stopped,sm_instructions2_key.keys,sm_instructions2_key.rt,sm_instructions2_key.duration,reset_run.started,reset_run.stopped,shuffle_items.started,shuffle_items.stopped,set_up_runs.started,set_up_runs.stopped,load_iti.started,load_iti.stopped,prep_scanner.started,scanner_ready_press.started,ready_set_text.started,prep_scanner.stopped,runs.scanner_ready_press.keys,runs.scanner_ready_press.rt,runs.scanner_ready_press.duration,wait_for_trigger.started,starting_soon.started,skip_trigger.started,wait_for_trigger.stopped,runs.skip_trigger.keys,blank.started,begin_end_run_cross.started,sound_1.started,sound_1.stopped,sound_2.started,sound_2.stopped,blank.stopped,CurrentItem,CurrentITI,set_up_trial.started,set_up_trial.stopped,sm_iti.started,iti_cross.started,iti_cross.stopped,sm_iti.stopped,item.started,living_nonliving.started,end_mapping.started,living_nonliving_text.started,semantic_map_item.started,living_nonliving.stopped,end_mapping.stopped,living_nonliving_text.stopped,semantic_map_item.stopped,item.stopped,semantic_mapping_run.living_nonliving.keys,semantic_mapping_run.living_nonliving.rt,semantic_mapping_run.living_nonliving.duration,semantic_mapping_run.end_mapping.keys,fieldmap.started,fieldmap.stopped,runs.fm_key.keys,task_break.started,feeback_text.started,task_break_text.started,task_break_resp.started,feeback_text.stopped,task_break.stopped,runs.task_break_resp.keys,runs.task_break_resp.rt,runs.task_break_resp.duration,begin_end_run_cross.stopped,fm_text.started,fm_key.started,runs.fm_key.rt,runs.fm_key.duration,thanks.started,thanks_text.started,thanks_text.stopped,thanks.stopped,PID,MRI,date,expName,psychopyVersion,frameRate,expStart,
,,,,,,,,,,,,,,,,,,,,,,,,,,,,,,,,,,,,,,0.003946900003938936,0.009079700001166202,0.009079700001166202,38.03388709999854,space,37.92693739999959,None,,,,,,,,,,,,,,,,,,,,,,,,,,,,,,,,,,,,,,,,,,,,,,,,,,,,,,,,,,,,,,,,,,,,,,,,,,,,,,,,,,,,,,,,,,,,1167,1,2025-07-02_19h13.56.366,sm,2024.2.4,59.96631092567576,2025-07-02 19h14.11.716432 +0200,
,,,,,,,,,,,,,,,,,,,,,,,,,,,,,,,,,,,,,,,,,,,,,38.03400959999999,38.04319760000362,38.04319760000362,149.96669400000246,space,111.90838300000178,None,,,,,,,,,,,,,,,,,,,,,,,,,,,,,,,,,,,,,,,,,,,,,,,,,,,,,,,,,,,,,,,,,,,,,,,,,,,,,,,,,,,,,1167,1,2025-07-02_19h13.56.366,sm,2024.2.4,59.96631092567576,2025-07-02 19h14.11.716432 +0200,
,,,,,,,,,,,,,,,,,,,,,,,,,,,,,,,,,,,,,,,,,,,,,,,,,,,,149.9668160000001,149.98180780000257,149.98180780000257,158.8982068999976,2,8.908879499998875,None,,,,,,,,,,,,,,,,,,,,,,,,,,,,,,,,,,,,,,,,,,,,,,,,,,,,,,,,,,,,,,,,,,,,,,,,,,,,,,1167,1,2025-07-02_19h13.56.366,sm,2024.2.4,59.96631092567576,2025-07-02 19h14.11.716432 +0200,
,,,,,,,,,,,,,,,,,,,,,,,,,,,,,,,,,,,,,,,,,,,,,,,,,,,,,,,,,,,158.8983223000032,158.91279490000306,158.91279490000306,171.03066070000204,2,12.10394919999817,None,,,,,,,,,,,,,,,,,,,,,,,,,,,,,,,,,,,,,,,,,,,,,,,,,,,,,,,,,,,,,,,,,,,,,,,1167,1,2025-07-02_19h13.56.366,sm,2024.2.4,59.96631092567576,2025-07-02 19h14.11.716432 +0200,
0,0,0,Postkarte,Nachricht,Brief,Urlaub,5.6809,space,4.132589200002258,None,None,3,1.5438620999993873,0.2795665000012377,None,0,0,0,0,0,79,79,45,0,0,0,0,0,79,79,71,0,0,0,0,234.96014280000236,,,,,,,,,,,,,,,,,,,,,,,,,,,,,,171.03155510000215,171.03214730000036,171.0993113000004,171.0995808000007,171.104107500003,171.10438599999907,171.1356109000044,171.13581410000188,171.14246609999827,171.14654410000367,171.14654410000367,175.29844589999993,space,4.132589200002258,None,175.2986008000007,175.31362620000436,175.31362620000436,222.92743879999762,None,222.9365375999987,222.94461030000093,222.94256086666817,224.15506969999842,232.9269671666664,233.93547100000433,234.9438336000021,Bart,5.6809,234.94538669999747,234.9460861999978,234.94957499999873,234.96014280000236,240.64277410000068,240.62766430000192,240.63117950000014,240.64277410000068,240.64277410000068,240.64277410000068,240.64277410000068,242.64338919999864,242.64338919999864,242.64338919999864,242.64338919999864,242.62727050000103,3,1.5438620999993873,0.2795665000012377,None,,,,,,,,,,,,,,,,,,,,,,1167,1,2025-07-02_19h13.56.366,sm,2024.2.4,59.96631092567576,2025-07-02 19h14.11.716432 +0200,
1,0,1,,,,,,space,4.132589200002258,None,None,3,1.3565079000036349,0.26033019999886164,None,0,0,0,0,,,,,0,0,0,0,,,,,1,0,1,0,242.64338919999864,,,,,,,,,,,,,,,,,,,,,,,,,,,,,,,,,,,,,,,,,,,,,,,,,,,,,,,,,Schläger,2.5816,242.62771300000168,242.6282069000008,242.62829990000319,242.64338919999864,245.22602980000374,245.21065900000394,245.2146572999991,245.22602980000374,245.22602980000374,245.22602980000374,245.22602980000374,247.22627040000225,247.22627040000225,247.22627040000225,247.22627040000225,247.21076419999736,3,1.3565079000036349,0.26033019999886164,None,,,,,,,,,,,,,,,,,,,,,,1167,1,2025-07-02_19h13.56.366,sm,2024.2.4,59.96631092567576,2025-07-02 19h14.11.716432 +0200,
2,0,2,,,,,,space,4.132589200002258,None,None,3,1.2306198999940534,0.26186240000242833,None,0,0,0,0,,,,,0,0,0,0,,,,,2,0,2,0,247.22627040000225,,,,,,,,,,,,,,,,,,,,,,,,,,,,,,,,,,,,,,,,,,,,,,,,,,,,,,,,,Schwimmen,3.2724,247.21127920000436,247.21179570000095,247.21190470000147,247.22627040000225,250.5091173000037,250.4937346000006,250.49848819999897,250.5091173000037,250.5091173000037,250.5091173000037,250.5091173000037,252.5090429999982,252.5090429999982,252.5090429999982,252.5090429999982,252.49345170000015,3,1.2306198999940534,0.26186240000242833,None,,,,,,,,,,,,,,,,,,,,,,1167,1,2025-07-02_19h13.56.366,sm,2024.2.4,59.96631092567576,2025-07-02 19h14.11.716432 +0200,
3,0,3,,,,,,space,4.132589200002258,None,None,3,1.388342600002943,0.25732269999571145,None,0,0,0,0,,,,,0,0,0,0,,,,,3,0,3,0,252.5090429999982,,,,,,,,,,,,,,,,,,,,,,,,,,,,,,,,,,,,,,,,,,,,,,,,,,,,,,,,,Schlamm,2.637,252.49396259999776,252.4944738999984,252.49458459999732,252.5090429999982,255.15888480000285,255.14323210000293,255.1467468999981,255.15888480000285,255.15888480000285,255.15888480000285,255.15888480000285,257.15887150000344,257.15887150000344,257.15887150000344,257.15887150000344,257.1434982999999,3,1.388342600002943,0.25732269999571145,None,,,,,,,,,,,,,,,,,,,,,,1167,1,2025-07-02_19h13.56.366,sm,2024.2.4,59.96631092567576,2025-07-02 19h14.11.716432 +0200,
4,0,4,,,,,,space,4.132589200002258,None,None,2,0.9325562999947579,0.24030200000561308,None,0,0,0,0,,,,,0,0,0,0,,,,,4,0,4,0,257.15887150000344,,,,,,,,,,,,,,,,,,,,,,,,,,,,,,,,,,,,,,,,,,,,,,,,,,,,,,,,,Handwerker,4.079,257.1440111999982,257.1445345000029,257.14463989999786,257.15887150000344,261.2417715999982,261.22609000000375,261.23224130000017,261.2417715999982,261.2417715999982,261.2417715999982,261.2417715999982,263.24241800000163,263.24241800000163,263.24241800000163,263.24241800000163,263.2267045000044,2,0.9325562999947579,0.24030200000561308,None,,,,,,,,,,,,,,,,,,,,,,1167,1,2025-07-02_19h13.56.366,sm,2024.2.4,59.96631092567576,2025-07-02 19h14.11.716432 +0200,
5,0,5,,,,,,space,4.132589200002258,None,None,2,1.4627104999963194,0.2328018999978667,None,0,0,0,0,,,,,0,0,0,0,,,,,5,0,5,0,263.24241800000163,,,,,,,,,,,,,,,,,,,,,,,,,,,,,,,,,,,,,,,,,,,,,,,,,,,,,,,,,Fuß,2.6543,263.22722760000033,263.2278430000006,263.22802790000424,263.24241800000163,265.90807700000005,265.89259960000345,265.8974506000013,265.90807700000005,265.90807700000005,265.90807700000005,265.90807700000005,,,,,267.8942707000024,2,1.4627104999963194,0.2328018999978667,None,,,,,,,,,,,,,,,,,,,,,,1167,1,2025-07-02_19h13.56.366,sm,2024.2.4,59.96631092567576,2025-07-02 19h14.11.716432 +0200,
6,0,6,,,,,,space,4.132589200002258,None,None,3,1.1432172999993782,0.31010370000149123,None,0,0,0,0,,,,,0,0,0,0,,,,,6,0,6,0,267.90862059999927,,,,,,,,,,,,,,,,,,,,,,,,,,,,,,,,,,,,,,,,,,,,,,,,,,,,,,,,,Foto,3.5988,267.8947812999977,267.89564729999984,267.8957674999983,267.90862059999927,271.50795079999807,271.49239079999825,271.4954222000015,271.50795079999807,271.50795079999807,271.50795079999807,271.50795079999807,273.50795469999866,273.50795469999866,273.50795469999866,273.50795469999866,273.49246790000325,3,1.1432172999993782,0.31010370000149123,None,,,,,,,,,,,,,,,,,,,,,,1167,1,2025-07-02_19h13.56.366,sm,2024.2.4,59.96631092567576,2025-07-02 19h14.11.716432 +0200,
7,0,7,,,,,,space,4.132589200002258,None,None,3,0.8309710000030464,0.29562260000238894,None,0,0,0,0,,,,,0,0,0,0,,,,,7,0,7,0,273.50795469999866,,,,,,,,,,,,,,,,,,,,,,,,,,,,,,,,,,,,,,,,,,,,,,,,,,,,,,,,,Wohnung,2.4089,273.4929766999994,273.4936224999983,273.49373030000424,273.50795469999866,275.9245200000005,275.91169710000395,275.9154129000017,275.9245200000005,275.9245200000005,275.9245200000005,275.9245200000005,277.9245852000022,277.9245852000022,277.9245852000022,277.9245852000022,277.90888760000234,3,0.8309710000030464,0.29562260000238894,None,,,,,,,,,,,,,,,,,,,,,,1167,1,2025-07-02_19h13.56.366,sm,2024.2.4,59.96631092567576,2025-07-02 19h14.11.716432 +0200,
8,0,8,,,,,,space,4.132589200002258,None,None,3,1.1273122999991756,0.24991850000515115,None,0,0,0,0,,,,,0,0,0,0,,,,,8,0,8,0,277.9245852000022,,,,,,,,,,,,,,,,,,,,,,,,,,,,,,,,,,,,,,,,,,,,,,,,,,,,,,,,,Hügel,2.4748,277.9094055000023,277.90992279999773,277.9100297000041,277.9245852000022,280.4076098000005,280.39234679999936,280.39734780000435,280.4076098000005,280.4076098000005,280.4076098000005,280.4076098000005,282.40798650000215,282.40798650000215,282.40798650000215,282.40798650000215,282.3923775000003,3,1.1273122999991756,0.24991850000515115,None,,,,,,,,,,,,,,,,,,,,,,1167,1,2025-07-02_19h13.56.366,sm,2024.2.4,59.96631092567576,2025-07-02 19h14.11.716432 +0200,
9,0,9,,,,,,space,4.132589200002258,None,None,3,0.9066959999981918,0.24532779999572085,None,0,0,0,0,,,,,0,0,0,0,,,,,9,0,9,0,282.40798650000215,,,,,,,,,,,,,,,,,,,,,,,,,,,,,,,,,,,,,,,,,,,,,,,,,,,,,,,,,Salz,3.1297,282.39305559999775,282.3937281000035,282.3938842999996,282.40798650000215,285.54020899999887,285.52464760000294,285.5275177000003,285.54020899999887,285.54020899999887,285.54020899999887,285.54020899999887,287.5404004000011,287.5404004000011,287.5404004000011,287.5404004000011,287.5251600999982,3,0.9066959999981918,0.24532779999572085,None,,,,,,,,,,,,,,,,,,,,,,1167,1,2025-07-02_19h13.56.366,sm,2024.2.4,59.96631092567576,2025-07-02 19h14.11.716432 +0200,
10,0,10,,,,,,space,4.132589200002258,None,None,2,1.4257274999981746,0.20247620000009192,None,0,0,0,0,,,,,0,0,0,0,,,,,10,0,10,0,287.5404004000011,,,,,,,,,,,,,,,,,,,,,,,,,,,,,,,,,,,,,,,,,,,,,,,,,,,,,,,,,Service,3.426,287.52567680000357,287.52619380000397,287.5263039999991,287.5404004000011,290.97352050000336,290.95762829999876,290.96051530000113,290.97352050000336,290.97352050000336,290.97352050000336,290.97352050000336,292.9736374999993,292.9736374999993,292.9736374999993,292.9736374999993,292.9581924000013,2,1.4257274999981746,0.20247620000009192,None,,,,,,,,,,,,,,,,,,,,,,1167,1,2025-07-02_19h13.56.366,sm,2024.2.4,59.96631092567576,2025-07-02 19h14.11.716432 +0200,
11,0,11,,,,,,space,4.132589200002258,None,None,3,0.8608400999946753,0.25932590000593336,None,0,0,0,0,,,,,0,0,0,0,,,,,11,0,11,0,292.9736374999993,,,,,,,,,,,,,,,,,,,,,,,,,,,,,,,,,,,,,,,,,,,,,,,,,,,,,,,,,Bücher,3.9327,292.9587066000022,292.959285500001,292.95939160000125,292.9736374999993,296.9066493999999,296.89107859999785,296.895053799999,296.9066493999999,296.9066493999999,296.9066493999999,296.9066493999999,298.9068318999998,298.9068318999998,298.9068318999998,298.9068318999998,298.89153200000146,3,0.8608400999946753,0.25932590000593336,None,,,,,,,,,,,,,,,,,,,,,,1167,1,2025-07-02_19h13.56.366,sm,2024.2.4,59.96631092567576,2025-07-02 19h14.11.716432 +0200,
12,0,12,,,,,,space,4.132589200002258,None,None,2,1.4137019999980112,0.21736869999585906,None,0,0,0,0,,,,,0,0,0,0,,,,,12,0,12,0,298.9068318999998,,,,,,,,,,,,,,,,,,,,,,,,,,,,,,,,,,,,,,,,,,,,,,,,,,,,,,,,,Ehe,3.1315,298.8919581000009,298.89240099999734,298.8924879999977,298.9068318999998,302.03953410000395,302.0237316999992,302.02648000000045,302.03953410000395,302.03953410000395,302.03953410000395,302.03953410000395,304.03961290000007,304.03961290000007,304.03961290000007,304.03961290000007,304.02408650000143,2,1.4137019999980112,0.21736869999585906,None,,,,,,,,,,,,,,,,,,,,,,1167,1,2025-07-02_19h13.56.366,sm,2024.2.4,59.96631092567576,2025-07-02 19h14.11.716432 +0200,
13,0,13,,,,,,space,4.132589200002258,None,None,2,1.2813963000007789,0.24303489999874728,None,0,0,0,0,,,,,0,0,0,0,,,,,13,0,13,0,304.03961290000007,,,,,,,,,,,,,,,,,,,,,,,,,,,,,,,,,,,,,,,,,,,,,,,,,,,,,,,,,Rose,2.8322,304.02460820000124,304.02516379999724,304.0252722000005,304.03961290000007,306.8727482000031,306.8571377000044,306.8608002000037,306.8727482000031,306.8727482000031,306.8727482000031,306.8727482000031,308.8729628000001,308.8729628000001,308.8729628000001,308.8729628000001,308.8570964000028,2,1.2813963000007789,0.24303489999874728,None,,,,,,,,,,,,,,,,,,,,,,1167,1,2025-07-02_19h13.56.366,sm,2024.2.4,59.96631092567576,2025-07-02 19h14.11.716432 +0200,
14,0,14,,,,,,space,4.132589200002258,None,None,3,1.0597160999968764,0.2853991000010865,None,0,0,0,0,,,,,0,0,0,0,,,,,14,0,14,0,308.8729628000001,,,,,,,,,,,,,,,,,,,,,,,,,,,,,,,,,,,,,,,,,,,,,,,,,,,,,,,,,Tube,2.2523,308.8576061999993,308.858135399998,308.8582421000028,308.8729628000001,311.1391225000043,311.1238869000008,311.12763339999947,311.1391225000043,311.1391225000043,311.1391225000043,311.1391225000043,313.13934660000086,313.13934660000086,313.13934660000086,313.13934660000086,313.12364620000153,3,1.0597160999968764,0.2853991000010865,None,,,,,,,,,,,,,,,,,,,,,,1167,1,2025-07-02_19h13.56.366,sm,2024.2.4,59.96631092567576,2025-07-02 19h14.11.716432 +0200,
15,0,15,,,,,,space,4.132589200002258,None,None,3,0.7899269000045024,0.30018790000031004,None,0,0,0,0,,,,,0,0,0,0,,,,,15,0,15,0,313.13934660000086,,,,,,,,,,,,,,,,,,,,,,,,,,,,,,,,,,,,,,,,,,,,,,,,,,,,,,,,,Brief,3.6011,313.1241585000025,313.1246710999985,313.12477650000073,313.13934660000086,316.7553377000004,316.74030949999724,316.7449056999976,316.7553377000004,316.7553377000004,316.7553377000004,316.7553377000004,318.755367800004,318.755367800004,318.755367800004,318.755367800004,318.7399007999993,3,0.7899269000045024,0.30018790000031004,None,,,,,,,,,,,,,,,,,,,,,,1167,1,2025-07-02_19h13.56.366,sm,2024.2.4,59.96631092567576,2025-07-02 19h14.11.716432 +0200,
16,0,16,,,,,,space,4.132589200002258,None,None,3,1.2628552999958629,0.2602638000025763,None,0,0,0,0,,,,,0,0,0,0,,,,,16,0,16,0,318.755367800004,,,,,,,,,,,,,,,,,,,,,,,,,,,,,,,,,,,,,,,,,,,,,,,,,,,,,,,,,Feuer,2.0007,318.7404146999979,318.7411495999986,318.741257200003,318.755367800004,320.75541879999946,320.7398261999988,320.74381159999757,320.75541879999946,320.75541879999946,320.75541879999946,320.75541879999946,322.75542739999946,322.75542739999946,322.75542739999946,322.75542739999946,322.73966720000317,3,1.2628552999958629,0.2602638000025763,None,,,,,,,,,,,,,,,,,,,,,,1167,1,2025-07-02_19h13.56.366,sm,2024.2.4,59.96631092567576,2025-07-02 19h14.11.716432 +0200,
17,0,17,,,,,,space,4.132589200002258,None,None,2,1.3020309999992605,0.3330755999995745,None,0,0,0,0,,,,,0,0,0,0,,,,,17,0,17,0,322.75542739999946,,,,,,,,,,,,,,,,,,,,,,,,,,,,,,,,,,,,,,,,,,,,,,,,,,,,,,,,,Monster,2.156,322.7401585999978,322.74065020000126,322.7407521999994,322.75542739999946,324.92202080000425,324.9060694,324.9098882000035,324.92202080000425,324.92202080000425,324.92202080000425,324.92202080000425,326.9216043999986,326.9216043999986,326.9216043999986,326.9216043999986,326.90600500000437,2,1.3020309999992605,0.3330755999995745,None,,,,,,,,,,,,,,,,,,,,,,1167,1,2025-07-02_19h13.56.366,sm,2024.2.4,59.96631092567576,2025-07-02 19h14.11.716432 +0200,
18,0,18,,,,,,space,4.132589200002258,None,None,3,0.7246744000003673,0.3227783000038471,None,0,0,0,0,,,,,0,0,0,0,,,,,18,0,18,0,326.9216043999986,,,,,,,,,,,,,,,,,,,,,,,,,,,,,,,,,,,,,,,,,,,,,,,,,,,,,,,,,Lava,2.0202,326.9065148000009,326.9072567000039,326.9073675000036,326.9216043999986,328.95469369999773,328.93910940000205,328.9420148999998,328.95469369999773,328.95469369999773,328.95469369999773,328.95469369999773,330.9547915000003,330.9547915000003,330.9547915000003,330.9547915000003,330.939194700004,3,0.7246744000003673,0.3227783000038471,None,,,,,,,,,,,,,,,,,,,,,,1167,1,2025-07-02_19h13.56.366,sm,2024.2.4,59.96631092567576,2025-07-02 19h14.11.716432 +0200,
19,0,19,,,,,,space,4.132589200002258,None,None,3,0.8726783000020077,0.263177300003008,None,0,0,0,0,,,,,0,0,0,0,,,,,19,0,19,0,330.9547915000003,,,,,,,,,,,,,,,,,,,,,,,,,,,,,,,,,,,,,,,,,,,,,,,,,,,,,,,,,Essen,2.2596,330.93964360000246,330.9402537999995,330.9403519999978,330.9547915000003,333.22138650000124,333.20585859999846,333.20941049999965,333.22138650000124,333.22138650000124,333.22138650000124,333.22138650000124,335.221226200003,335.221226200003,335.221226200003,335.221226200003,335.2061517999973,3,0.8726783000020077,0.263177300003008,None,,,,,,,,,,,,,,,,,,,,,,1167,1,2025-07-02_19h13.56.366,sm,2024.2.4,59.96631092567576,2025-07-02 19h14.11.716432 +0200,
20,0,20,,,,,,space,4.132589200002258,None,None,3,1.0196350999976858,0.2373449000006076,None,0,0,0,0,,,,,0,0,0,0,,,,,20,0,20,0,335.221226200003,,,,,,,,,,,,,,,,,,,,,,,,,,,,,,,,,,,,,,,,,,,,,,,,,,,,,,,,,Beugen,3.3611,335.2066722000018,335.207267400001,335.20737299999746,335.221226200003,338.58775170000445,338.5720435999974,338.57599140000093,338.58775170000445,338.58775170000445,338.58775170000445,338.58775170000445,340.5878823000021,340.5878823000021,340.5878823000021,340.5878823000021,340.5719695000007,3,1.0196350999976858,0.2373449000006076,None,,,,,,,,,,,,,,,,,,,,,,1167,1,2025-07-02_19h13.56.366,sm,2024.2.4,59.96631092567576,2025-07-02 19h14.11.716432 +0200,
21,0,21,,,,,,space,4.132589200002258,None,None,3,1.4994920999961323,0.2961991000047419,None,0,0,0,0,,,,,0,0,0,0,,,,,21,0,21,0,340.5878823000021,,,,,,,,,,,,,,,,,,,,,,,,,,,,,,,,,,,,,,,,,,,,,,,,,,,,,,,,,Zeichnung,5.4638,340.5724904000017,340.5730040999988,340.57311080000363,340.5878823000021,346.0535490999973,346.0380090000035,346.0443568999981,346.0535490999973,346.0535490999973,346.0535490999973,346.0535490999973,348.0558882000041,348.0558882000041,348.0558882000041,348.0558882000041,348.0383284999989,3,1.4994920999961323,0.2961991000047419,None,,,,,,,,,,,,,,,,,,,,,,1167,1,2025-07-02_19h13.56.366,sm,2024.2.4,59.96631092567576,2025-07-02 19h14.11.716432 +0200,
22,0,22,,,,,,space,4.132589200002258,None,None,3,1.8394944000028772,None,None,0,0,0,0,,,,,0,0,0,0,,,,,22,0,22,0,348.0558882000041,,,,,,,,,,,,,,,,,,,,,,,,,,,,,,,,,,,,,,,,,,,,,,,,,,,,,,,,,Herbst,2.9791,348.03883510000014,348.039488800001,348.0395963999981,348.0558882000041,351.036852199999,351.0212025000001,351.0249116999985,351.036852199999,351.036852199999,351.036852199999,351.036852199999,353.0368434999982,353.0368434999982,353.0368434999982,353.0368434999982,353.02136579999933,3,1.8394944000028772,None,None,,,,,,,,,,,,,,,,,,,,,,1167,1,2025-07-02_19h13.56.366,sm,2024.2.4,59.96631092567576,2025-07-02 19h14.11.716432 +0200,
23,0,23,,,,,,space,4.132589200002258,None,None,3,1.1999349999969127,0.2386659999974654,None,0,0,0,0,,,,,0,0,0,0,,,,,23,0,23,0,353.0368434999982,,,,,,,,,,,,,,,,,,,,,,,,,,,,,,,,,,,,,,,,,,,,,,,,,,,,,,,,,Büro,2.9493,353.02188390000083,353.0224381000007,353.02254769999854,353.0368434999982,355.9865815000012,355.97091280000313,355.974596,355.9865815000012,355.9865815000012,355.9865815000012,355.9865815000012,357.98668929999985,357.98668929999985,357.98668929999985,357.98668929999985,357.97106129999884,3,1.1999349999969127,0.2386659999974654,None,,,,,,,,,,,,,,,,,,,,,,1167,1,2025-07-02_19h13.56.366,sm,2024.2.4,59.96631092567576,2025-07-02 19h14.11.716432 +0200,
24,0,24,,,,,,space,4.132589200002258,None,None,3,0.9240309000015259,0.32875399999466026,None,0,0,0,0,,,,,0,0,0,0,,,,,24,0,24,0,357.98668929999985,,,,,,,,,,,,,,,,,,,,,,,,,,,,,,,,,,,,,,,,,,,,,,,,,,,,,,,,,Weiß,2.5898,357.9715731000033,357.9720870000019,357.97219400000176,357.98668929999985,360.5864689000009,360.5710066000029,360.57453220000025,360.5864689000009,360.5864689000009,360.5864689000009,360.5864689000009,362.58640269999887,362.58640269999887,362.58640269999887,362.58640269999887,362.57059400000435,3,0.9240309000015259,0.32875399999466026,None,,,,,,,,,,,,,,,,,,,,,,1167,1,2025-07-02_19h13.56.366,sm,2024.2.4,59.96631092567576,2025-07-02 19h14.11.716432 +0200,
25,0,25,,,,,,space,4.132589200002258,None,None,3,0.7623271999982535,0.2809370000031777,None,0,0,0,0,,,,,0,0,0,0,,,,,25,0,25,0,362.58640269999887,,,,,,,,,,,,,,,,,,,,,,,,,,,,,,,,,,,,,,,,,,,,,,,,,,,,,,,,,Tasse,2.0986,362.5710504000017,362.5715322000033,362.5716253999999,362.58640269999887,364.6860807999983,364.6702383000011,364.67366030000267,364.6860807999983,364.6860807999983,364.6860807999983,364.6860807999983,366.6865194999991,366.6865194999991,366.6865194999991,366.6865194999991,366.6706140000024,3,0.7623271999982535,0.2809370000031777,None,,,,,,,,,,,,,,,,,,,,,,1167,1,2025-07-02_19h13.56.366,sm,2024.2.4,59.96631092567576,2025-07-02 19h14.11.716432 +0200,
26,0,26,,,,,,space,4.132589200002258,None,None,3,0.7895300999953179,0.2706647000013618,None,0,0,0,0,,,,,0,0,0,0,,,,,26,0,26,0,366.6865194999991,,,,,,,,,,,,,,,,,,,,,,,,,,,,,,,,,,,,,,,,,,,,,,,,,,,,,,,,,Brille,2.1713,366.67112640000414,366.671660400003,366.6717682000017,366.6865194999991,368.8692071999976,368.8534435000038,368.85728850000305,368.8692071999976,368.8692071999976,368.8692071999976,368.8692071999976,370.86944380000205,370.86944380000205,370.86944380000205,370.86944380000205,370.85427029999846,3,0.7895300999953179,0.2706647000013618,None,,,,,,,,,,,,,,,,,,,,,,1167,1,2025-07-02_19h13.56.366,sm,2024.2.4,59.96631092567576,2025-07-02 19h14.11.716432 +0200,
27,0,27,,,,,,space,4.132589200002258,None,None,2,0.9203333999976167,0.26826730000175303,None,0,0,0,0,,,,,0,0,0,0,,,,,27,0,27,0,370.86944380000205,,,,,,,,,,,,,,,,,,,,,,,,,,,,,,,,,,,,,,,,,,,,,,,,,,,,,,,,,Geschwister,2.3814,370.8547830000025,370.8554368999976,370.8555434000009,370.86944380000205,373.25228739999875,373.2366538999995,373.24110400000063,373.25228739999875,373.25228739999875,373.25228739999875,373.25228739999875,375.2523579999979,375.2523579999979,375.2523579999979,375.2523579999979,375.2365807000024,2,0.9203333999976167,0.26826730000175303,None,,,,,,,,,,,,,,,,,,,,,,1167,1,2025-07-02_19h13.56.366,sm,2024.2.4,59.96631092567576,2025-07-02 19h14.11.716432 +0200,
28,0,28,,,,,,space,4.132589200002258,None,None,2,0.7783861999996589,0.29783420000603655,None,0,0,0,0,,,,,0,0,0,0,,,,,28,0,28,0,375.2523579999979,,,,,,,,,,,,,,,,,,,,,,,,,,,,,,,,,,,,,,,,,,,,,,,,,,,,,,,,,Vogel,2.298,375.23705589999736,375.23762890000216,375.2377317999999,375.2523579999979,377.55202409999765,377.5363817000034,377.5405524000016,377.55202409999765,377.55202409999765,377.55202409999765,377.55202409999765,379.55196640000213,379.55196640000213,379.55196640000213,379.55196640000213,379.53655889999936,2,0.7783861999996589,0.29783420000603655,None,,,,,,,,,,,,,,,,,,,,,,1167,1,2025-07-02_19h13.56.366,sm,2024.2.4,59.96631092567576,2025-07-02 19h14.11.716432 +0200,
29,0,29,,,,,,space,4.132589200002258,None,None,2,0.7836711999989348,0.254533100000117,None,0,0,0,0,,,,,0,0,0,0,,,,,29,0,29,0,379.55196640000213,,,,,,,,,,,,,,,,,,,,,,,,,,,,,,,,,,,,,,,,,,,,,,,,,,,,,,,,,Finger,2.5756,379.5370703000008,379.5377318000028,379.537848699998,379.55196640000213,382.13475270000345,382.12012759999925,382.1235244999989,382.13475270000345,382.13475270000345,382.13475270000345,382.13475270000345,384.13520060000155,384.13520060000155,384.13520060000155,384.13520060000155,384.1197430000029,2,0.7836711999989348,0.254533100000117,None,,,,,,,,,,,,,,,,,,,,,,1167,1,2025-07-02_19h13.56.366,sm,2024.2.4,59.96631092567576,2025-07-02 19h14.11.716432 +0200,
30,0,30,,,,,,space,4.132589200002258,None,None,2,0.9341802999988431,0.2661775000015041,None,0,0,0,0,,,,,0,0,0,0,,,,,30,0,30,0,384.13520060000155,,,,,,,,,,,,,,,,,,,,,,,,,,,,,,,,,,,,,,,,,,,,,,,,,,,,,,,,,Schulter,3.9211,384.1202510000003,384.1208076000039,384.12091520000104,384.13520060000155,388.0681301000004,388.0525274000029,388.0568815000006,388.0681301000004,388.0681301000004,388.0681301000004,388.0681301000004,390.06860320000123,390.06860320000123,390.06860320000123,390.06860320000123,390.05247899999813,2,0.9341802999988431,0.2661775000015041,None,,,,,,,,,,,,,,,,,,,,,,1167,1,2025-07-02_19h13.56.366,sm,2024.2.4,59.96631092567576,2025-07-02 19h14.11.716432 +0200,
31,0,31,,,,,,space,4.132589200002258,None,None,3,1.492611500005296,0.2158664999951725,None,0,0,0,0,,,,,0,0,0,0,,,,,31,0,31,0,390.06860320000123,,,,,,,,,,,,,,,,,,,,,,,,,,,,,,,,,,,,,,,,,,,,,,,,,,,,,,,,,Riechen,3.5791,390.0529907000018,390.05350049999834,390.0536093999981,390.06860320000123,393.65168780000386,393.63534210000216,393.63874500000384,393.65168780000386,393.65168780000386,393.65168780000386,393.65168780000386,395.6512464000043,395.6512464000043,395.6512464000043,395.6512464000043,395.6354202000002,3,1.492611500005296,0.2158664999951725,None,,,,,,,,,,,,,,,,,,,,,,1167,1,2025-07-02_19h13.56.366,sm,2024.2.4,59.96631092567576,2025-07-02 19h14.11.716432 +0200,
32,0,32,,,,,,space,4.132589200002258,None,None,3,0.9858834999977262,0.2712813999969512,None,0,0,0,0,,,,,0,0,0,0,,,,,32,0,32,0,395.6512464000043,,,,,,,,,,,,,,,,,,,,,,,,,,,,,,,,,,,,,,,,,,,,,,,,,,,,,,,,,Gold,3.6007,395.6359403000024,395.6364446000007,395.63655629999994,395.6512464000043,399.2674358000004,399.25207310000405,399.2556508999987,399.2674358000004,399.2674358000004,399.2674358000004,399.2674358000004,401.2677029999977,401.2677029999977,401.2677029999977,401.2677029999977,401.2519056000019,3,0.9858834999977262,0.2712813999969512,None,,,,,,,,,,,,,,,,,,,,,,1167,1,2025-07-02_19h13.56.366,sm,2024.2.4,59.96631092567576,2025-07-02 19h14.11.716432 +0200,
33,0,33,,,,,,space,4.132589200002258,None,None,3,0.978188200002478,0.2930659999983618,None,0,0,0,0,,,,,0,0,0,0,,,,,33,0,33,0,401.2677029999977,,,,,,,,,,,,,,,,,,,,,,,,,,,,,,,,,,,,,,,,,,,,,,,,,,,,,,,,,Kerzen,3.1867,401.25241970000206,401.2529476999989,401.2530525999973,401.2677029999977,404.46713889999955,404.45182719999866,404.4578174999988,404.46713889999955,404.46713889999955,404.46713889999955,404.46713889999955,406.46720279999863,406.46720279999863,406.46720279999863,406.46720279999863,406.45167760000186,3,0.978188200002478,0.2930659999983618,None,,,,,,,,,,,,,,,,,,,,,,1167,1,2025-07-02_19h13.56.366,sm,2024.2.4,59.96631092567576,2025-07-02 19h14.11.716432 +0200,
34,0,34,,,,,,space,4.132589200002258,None,None,3,1.4469585999977426,0.2551845999987563,None,0,0,0,0,,,,,0,0,0,0,,,,,34,0,34,0,406.46720279999863,,,,,,,,,,,,,,,,,,,,,,,,,,,,,,,,,,,,,,,,,,,,,,,,,,,,,,,,,Sterne,2.0388,406.45217160000175,406.45284260000335,406.4529672999997,406.46720279999863,408.5171451999995,408.50135389999923,408.50635100000363,408.5171451999995,408.5171451999995,408.5171451999995,408.5171451999995,410.51695830000244,410.51695830000244,410.51695830000244,410.51695830000244,410.50137550000363,3,1.4469585999977426,0.2551845999987563,None,,,,,,,,,,,,,,,,,,,,,,1167,1,2025-07-02_19h13.56.366,sm,2024.2.4,59.96631092567576,2025-07-02 19h14.11.716432 +0200,
35,0,35,,,,,,space,4.132589200002258,None,None,3,0.9955922000008286,0.2849774999995134,None,0,0,0,0,,,,,0,0,0,0,,,,,35,0,35,0,410.51695830000244,,,,,,,,,,,,,,,,,,,,,,,,,,,,,,,,,,,,,,,,,,,,,,,,,,,,,,,,,Anhänger,2.4315,410.50188440000056,410.50248110000393,410.5025889000026,410.51695830000244,412.9500426000013,412.9343860000008,412.9380530999988,412.9500426000013,412.9500426000013,412.9500426000013,412.9500426000013,414.9504858,414.9504858,414.9504858,414.9504858,414.9345719999983,3,0.9955922000008286,0.2849774999995134,None,,,,,,,,,,,,,,,,,,,,,,1167,1,2025-07-02_19h13.56.366,sm,2024.2.4,59.96631092567576,2025-07-02 19h14.11.716432 +0200,
36,0,36,,,,,,space,4.132589200002258,None,None,3,1.2092768000002252,0.2822113000001991,None,0,0,0,0,,,,,0,0,0,0,,,,,36,0,36,0,414.9504858,,,,,,,,,,,,,,,,,,,,,,,,,,,,,,,,,,,,,,,,,,,,,,,,,,,,,,,,,Party,2.063,414.9351001000032,414.9356199000031,414.93572600000334,414.9504858,417.01737460000004,417.0008756000025,417.00964750000276,417.01737460000004,417.01737460000004,417.01737460000004,417.01737460000004,419.01644240000314,419.01644240000314,419.01644240000314,419.01644240000314,419.00109430000157,3,1.2092768000002252,0.2822113000001991,None,,,,,,,,,,,,,,,,,,,,,,1167,1,2025-07-02_19h13.56.366,sm,2024.2.4,59.96631092567576,2025-07-02 19h14.11.716432 +0200,
37,0,37,,,,,,space,4.132589200002258,None,None,3,1.0147600999989663,0.2929632000013953,None,0,0,0,0,,,,,0,0,0,0,,,,,37,0,37,0,419.01644240000314,,,,,,,,,,,,,,,,,,,,,,,,,,,,,,,,,,,,,,,,,,,,,,,,,,,,,,,,,Statue,2.2843,419.00160699999833,419.00214000000415,419.0022478000028,419.01644240000314,421.29959750000125,421.28416619999916,421.28807750000124,421.29959750000125,421.29959750000125,421.29959750000125,421.29959750000125,423.29954759999964,423.29954759999964,423.29954759999964,423.29954759999964,423.28434930000367,3,1.0147600999989663,0.2929632000013953,None,,,,,,,,,,,,,,,,,,,,,,1167,1,2025-07-02_19h13.56.366,sm,2024.2.4,59.96631092567576,2025-07-02 19h14.11.716432 +0200,
38,0,38,,,,,,space,4.132589200002258,None,None,3,1.0718151000037324,0.25368289999460103,None,0,0,0,0,,,,,0,0,0,0,,,,,38,0,38,0,423.29954759999964,,,,,,,,,,,,,,,,,,,,,,,,,,,,,,,,,,,,,,,,,,,,,,,,,,,,,,,,,Ei,2.8383,423.28482590000203,423.28545219999796,423.28555269999924,423.29954759999964,426.1499874000001,426.1336666999996,426.1369074000031,426.1499874000001,426.1499874000001,426.1499874000001,426.1499874000001,428.14925570000196,428.14925570000196,428.14925570000196,428.14925570000196,428.1336630000005,3,1.0718151000037324,0.25368289999460103,None,,,,,,,,,,,,,,,,,,,,,,1167,1,2025-07-02_19h13.56.366,sm,2024.2.4,59.96631092567576,2025-07-02 19h14.11.716432 +0200,
39,0,39,,,,,,space,4.132589200002258,None,None,3,1.0795510000025388,0.2686812999963877,None,0,0,0,0,,,,,0,0,0,0,,,,,39,0,39,0,428.14925570000196,,,,,,,,,,,,,,,,,,,,,,,,,,,,,,,,,,,,,,,,,,,,,,,,,,,,,,,,,Sicherheit,2.573,428.13417599999957,428.1346893000009,428.1347950999989,428.14925570000196,430.732367800003,430.7167369000017,430.7210238999978,430.732367800003,430.732367800003,430.732367800003,430.732367800003,432.7322843000002,432.7322843000002,432.7322843000002,432.7322843000002,432.71654359999957,3,1.0795510000025388,0.2686812999963877,None,,,,,,,,,,,,,,,,,,,,,,1167,1,2025-07-02_19h13.56.366,sm,2024.2.4,59.96631092567576,2025-07-02 19h14.11.716432 +0200,
40,0,40,,,,,,space,4.132589200002258,None,None,3,0.862324499998067,0.2217501000050106,None,0,0,0,0,,,,,0,0,0,0,,,,,40,0,40,0,432.7322843000002,,,,,,,,,,,,,,,,,,,,,,,,,,,,,,,,,,,,,,,,,,,,,,,,,,,,,,,,,Hütte,2.5915,432.7169713999974,432.7174706000005,432.7175666000039,432.7322843000002,435.3318803000002,435.31653209999786,435.3210085000028,435.3318803000002,435.3318803000002,435.3318803000002,435.3318803000002,437.3320815000043,437.3320815000043,437.3320815000043,437.3320815000043,437.3164958999987,3,0.862324499998067,0.2217501000050106,None,,,,,,,,,,,,,,,,,,,,,,1167,1,2025-07-02_19h13.56.366,sm,2024.2.4,59.96631092567576,2025-07-02 19h14.11.716432 +0200,
41,0,41,,,,,,space,4.132589200002258,None,None,3,0.947470400002203,0.36002490000100806,None,0,0,0,0,,,,,0,0,0,0,,,,,41,0,41,0,437.3320815000043,,,,,,,,,,,,,,,,,,,,,,,,,,,,,,,,,,,,,,,,,,,,,,,,,,,,,,,,,Ordner,2.1609,437.31701330000215,437.3175296000045,437.3176384000035,437.3320815000043,439.49830590000056,439.4829450000034,439.48898629999894,439.49830590000056,439.49830590000056,439.49830590000056,439.49830590000056,441.49843020000117,441.49843020000117,441.49843020000117,441.49843020000117,441.48307249999925,3,0.947470400002203,0.36002490000100806,None,,,,,,,,,,,,,,,,,,,,,,1167,1,2025-07-02_19h13.56.366,sm,2024.2.4,59.96631092567576,2025-07-02 19h14.11.716432 +0200,
42,0,42,,,,,,space,4.132589200002258,None,None,2,0.9736730000004172,0.2663329999995767,None,0,0,0,0,,,,,0,0,0,0,,,,,42,0,42,0,441.49843020000117,,,,,,,,,,,,,,,,,,,,,,,,,,,,,,,,,,,,,,,,,,,,,,,,,,,,,,,,,Mund,3.0154,441.48357000000397,441.48407289999886,441.48418030000175,441.49843020000117,444.51502900000196,444.4995162999985,444.50314380000054,444.51502900000196,444.51502900000196,444.51502900000196,444.51502900000196,446.5148906000031,446.5148906000031,446.5148906000031,446.5148906000031,446.49975650000124,2,0.9736730000004172,0.2663329999995767,None,,,,,,,,,,,,,,,,,,,,,,1167,1,2025-07-02_19h13.56.366,sm,2024.2.4,59.96631092567576,2025-07-02 19h14.11.716432 +0200,
43,0,43,,,,,,space,4.132589200002258,None,None,2,1.8197013000026345,None,None,0,0,0,0,,,,,0,0,0,0,,,,,43,0,43,0,446.5148906000031,,,,,,,,,,,,,,,,,,,,,,,,,,,,,,,,,,,,,,,,,,,,,,,,,,,,,,,,,Afrika,2.2294,446.50023579999834,446.50093030000426,446.5010487000036,446.5148906000031,448.74830620000284,448.7326239000031,448.7367971999993,448.74830620000284,448.74830620000284,448.74830620000284,448.74830620000284,450.74828980000166,450.74828980000166,450.74828980000166,450.74828980000166,450.7324812000006,2,1.8197013000026345,None,None,,,,,,,,,,,,,,,,,,,,,,1167,1,2025-07-02_19h13.56.366,sm,2024.2.4,59.96631092567576,2025-07-02 19h14.11.716432 +0200,
44,0,44,,,,,,space,4.132589200002258,None,None,2,1.5488135999985388,0.2814211000004434,None,0,0,0,0,,,,,0,0,0,0,,,,,44,0,44,0,450.74828980000166,,,,,,,,,,,,,,,,,,,,,,,,,,,,,,,,,,,,,,,,,,,,,,,,,,,,,,,,,Luft,2.7129,450.7329946000027,450.73355620000075,450.73366250000254,450.74828980000166,453.4646589999975,453.44904929999757,453.45260319999943,453.4646589999975,453.4646589999975,453.4646589999975,453.4646589999975,455.4644514000029,455.4644514000029,455.4644514000029,455.4644514000029,455.44895689999976,2,1.5488135999985388,0.2814211000004434,None,,,,,,,,,,,,,,,,,,,,,,1167,1,2025-07-02_19h13.56.366,sm,2024.2.4,59.96631092567576,2025-07-02 19h14.11.716432 +0200,
45,0,45,,,,,,space,4.132589200002258,None,None,3,1.6096768000061275,0.24583879999408964,None,0,0,0,0,,,,,0,0,0,0,,,,,45,0,45,0,455.4644514000029,,,,,,,,,,,,,,,,,,,,,,,,,,,,,,,,,,,,,,,,,,,,,,,,,,,,,,,,,Universität,2.3527,455.4494704000026,455.45022210000025,455.45033110000077,455.4644514000029,457.830681600004,457.8154896999986,457.8223214000027,457.830681600004,457.830681600004,457.830681600004,457.830681600004,459.830747,459.830747,459.830747,459.830747,459.81544310000027,3,1.6096768000061275,0.24583879999408964,None,,,,,,,,,,,,,,,,,,,,,,1167,1,2025-07-02_19h13.56.366,sm,2024.2.4,59.96631092567576,2025-07-02 19h14.11.716432 +0200,
46,0,46,,,,,,space,4.132589200002258,None,None,None,,,None,0,0,0,0,,,,,0,0,0,0,,,,,46,0,46,0,459.830747,,,,,,,,,,,,,,,,,,,,,,,,,,,,,,,,,,,,,,,,,,,,,,,,,,,,,,,,,Wissen,2.5394,459.8159652000031,459.8164753000019,459.81658310000057,459.830747,462.38078210000094,462.36488010000176,462.3692357000036,462.38078210000094,462.38078210000094,462.38078210000094,462.38078210000094,464.3806282000005,464.3806282000005,464.3806282000005,464.3806282000005,464.3652862000017,None,,,None,,,,,,,,,,,,,,,,,,,,,,1167,1,2025-07-02_19h13.56.366,sm,2024.2.4,59.96631092567576,2025-07-02 19h14.11.716432 +0200,
47,0,47,,,,,,space,4.132589200002258,None,None,3,1.0516489000001457,0.27574530000129016,None,0,0,0,0,,,,,0,0,0,0,,,,,47,0,47,0,464.3806282000005,,,,,,,,,,,,,,,,,,,,,,,,,,,,,,,,,,,,,,,,,,,,,,,,,,,,,,,,,Netz,2.0332,464.3657624000043,464.3665222999989,464.3666327000028,464.3806282000005,466.41374160000123,466.39840189999813,466.40213270000095,466.41374160000123,466.41374160000123,466.41374160000123,466.41374160000123,468.4139043000032,468.4139043000032,468.4139043000032,468.4139043000032,468.39828610000404,3,1.0516489000001457,0.27574530000129016,None,,,,,,,,,,,,,,,,,,,,,,1167,1,2025-07-02_19h13.56.366,sm,2024.2.4,59.96631092567576,2025-07-02 19h14.11.716432 +0200,
48,0,48,,,,,,space,4.132589200002258,None,None,3,0.719634799999767,0.2766743999964092,None,0,0,0,0,,,,,0,0,0,0,,,,,48,0,48,0,468.4139043000032,,,,,,,,,,,,,,,,,,,,,,,,,,,,,,,,,,,,,,,,,,,,,,,,,,,,,,,,,Zimt,2.9946,468.39880370000174,468.3993227000028,468.3994375999973,468.4139043000032,471.41330279999966,471.3976763000028,471.4006322999994,471.41330279999966,471.41330279999966,471.41330279999966,471.41330279999966,473.4135568999991,473.4135568999991,473.4135568999991,473.4135568999991,473.39800030000333,3,0.719634799999767,0.2766743999964092,None,,,,,,,,,,,,,,,,,,,,,,1167,1,2025-07-02_19h13.56.366,sm,2024.2.4,59.96631092567576,2025-07-02 19h14.11.716432 +0200,
49,0,49,,,,,,space,4.132589200002258,None,None,2,0.9318218000043998,0.24271569999837084,None,0,0,0,0,,,,,0,0,0,0,,,,,49,0,49,0,473.4135568999991,,,,,,,,,,,,,,,,,,,,,,,,,,,,,,,,,,,,,,,,,,,,,,,,,,,,,,,,,Blumen,4.0003,473.39851250000356,473.3991718000034,473.39927990000433,473.4135568999991,477.4133348000032,477.3974254999994,477.4012664000038,477.4133348000032,477.4133348000032,477.4133348000032,477.4133348000032,479.4135338999986,479.4135338999986,479.4135338999986,479.4135338999986,479.39773530000093,2,0.9318218000043998,0.24271569999837084,None,,,,,,,,,,,,,,,,,,,,,,1167,1,2025-07-02_19h13.56.366,sm,2024.2.4,59.96631092567576,2025-07-02 19h14.11.716432 +0200,
50,0,50,,,,,,space,4.132589200002258,None,None,3,0.8486120000015944,0.29120590000093216,None,0,0,0,0,,,,,0,0,0,0,,,,,50,0,50,0,479.4135338999986,,,,,,,,,,,,,,,,,,,,,,,,,,,,,,,,,,,,,,,,,,,,,,,,,,,,,,,,,Harmonie,2.579,479.3982546000043,479.398904499998,479.3990133000043,479.4135338999986,481.9963476999983,481.9807460000011,481.9850116000016,481.9963476999983,481.9963476999983,481.9963476999983,481.9963476999983,483.9964058999976,483.9964058999976,483.9964058999976,483.9964058999976,483.98067280000396,3,0.8486120000015944,0.29120590000093216,None,,,,,,,,,,,,,,,,,,,,,,1167,1,2025-07-02_19h13.56.366,sm,2024.2.4,59.96631092567576,2025-07-02 19h14.11.716432 +0200,
51,0,51,,,,,,space,4.132589200002258,None,None,3,1.0042033999998239,0.3055353000017931,None,0,0,0,0,,,,,0,0,0,0,,,,,51,0,51,0,483.9964058999976,,,,,,,,,,,,,,,,,,,,,,,,,,,,,,,,,,,,,,,,,,,,,,,,,,,,,,,,,Erbe,2.1293,483.9811789000014,483.98192940000445,483.98203710000234,483.9964058999976,486.12928520000423,486.1138912000024,486.1176751000021,486.12928520000423,486.12928520000423,486.12928520000423,486.12928520000423,488.1292362000022,488.1292362000022,488.1292362000022,488.1292362000022,488.11406340000394,3,1.0042033999998239,0.3055353000017931,None,,,,,,,,,,,,,,,,,,,,,,1167,1,2025-07-02_19h13.56.366,sm,2024.2.4,59.96631092567576,2025-07-02 19h14.11.716432 +0200,
52,0,52,,,,,,space,4.132589200002258,None,None,3,1.1721402000039234,0.2679178999969736,None,0,0,0,0,,,,,0,0,0,0,,,,,52,0,52,0,488.1292362000022,,,,,,,,,,,,,,,,,,,,,,,,,,,,,,,,,,,,,,,,,,,,,,,,,,,,,,,,,Zeit,2.0504,488.1147041000004,488.1152193000016,488.1153357000003,488.1292362000022,490.1791005999985,490.16335940000135,490.1664854999981,490.1791005999985,490.1791005999985,490.1791005999985,490.1791005999985,492.17908270000044,492.17908270000044,492.17908270000044,492.17908270000044,492.1633215999973,3,1.1721402000039234,0.2679178999969736,None,,,,,,,,,,,,,,,,,,,,,,1167,1,2025-07-02_19h13.56.366,sm,2024.2.4,59.96631092567576,2025-07-02 19h14.11.716432 +0200,
53,0,53,,,,,,space,4.132589200002258,None,None,3,1.292845899995882,0.2859164999972563,None,0,0,0,0,,,,,0,0,0,0,,,,,53,0,53,0,492.17908270000044,,,,,,,,,,,,,,,,,,,,,,,,,,,,,,,,,,,,,,,,,,,,,,,,,,,,,,,,,Angriff,3.2921,492.1638355000032,492.1644863000038,492.164592000001,492.17908270000044,495.47862840000016,495.4630030999979,495.46711309999955,495.47862840000016,495.47862840000016,495.47862840000016,495.47862840000016,497.47885040000256,497.47885040000256,497.47885040000256,497.47885040000256,497.46310339999764,3,1.292845899995882,0.2859164999972563,None,,,,,,,,,,,,,,,,,,,,,,1167,1,2025-07-02_19h13.56.366,sm,2024.2.4,59.96631092567576,2025-07-02 19h14.11.716432 +0200,
54,0,54,,,,,,space,4.132589200002258,None,None,3,0.8929892000014661,0.28480880000279285,None,0,0,0,0,,,,,0,0,0,0,,,,,54,0,54,0,497.47885040000256,,,,,,,,,,,,,,,,,,,,,,,,,,,,,,,,,,,,,,,,,,,,,,,,,,,,,,,,,Hemd,3.0207,497.46361360000446,497.4641569000014,497.4642662999977,497.47885040000256,500.5115033999973,500.4962119999982,500.49936020000314,500.5115033999973,500.5115033999973,500.5115033999973,500.5115033999973,502.5119515999977,502.5119515999977,502.5119515999977,502.5119515999977,502.49673930000426,3,0.8929892000014661,0.28480880000279285,None,,,,,,,,,,,,,,,,,,,,,,1167,1,2025-07-02_19h13.56.366,sm,2024.2.4,59.96631092567576,2025-07-02 19h14.11.716432 +0200,
55,0,55,,,,,,space,4.132589200002258,None,None,3,0.8026914000001852,0.2693017999990843,None,0,0,0,0,,,,,0,0,0,0,,,,,55,0,55,0,502.5119515999977,,,,,,,,,,,,,,,,,,,,,,,,,,,,,,,,,,,,,,,,,,,,,,,,,,,,,,,,,Küche,2.0205,502.4973033999995,502.497832699999,502.4979425999991,502.5119515999977,504.5445866000009,504.5290074000004,504.53241569999955,504.5445866000009,504.5445866000009,504.5445866000009,504.5445866000009,506.54474160000245,506.54474160000245,506.54474160000245,506.54474160000245,506.52953620000335,3,0.8026914000001852,0.2693017999990843,None,,,,,,,,,,,,,,,,,,,,,,1167,1,2025-07-02_19h13.56.366,sm,2024.2.4,59.96631092567576,2025-07-02 19h14.11.716432 +0200,
56,0,56,,,,,,space,4.132589200002258,None,None,2,1.1099269999976968,0.26493610000034096,None,0,0,0,0,,,,,0,0,0,0,,,,,56,0,56,0,506.54474160000245,,,,,,,,,,,,,,,,,,,,,,,,,,,,,,,,,,,,,,,,,,,,,,,,,,,,,,,,,Applaus,3.7937,506.53005239999766,506.5305692000038,506.5306802999985,506.54474160000245,510.3445387000029,510.3291793000026,510.3328588000004,510.3445387000029,510.3445387000029,510.3445387000029,510.3445387000029,512.3444735000012,512.3444735000012,512.3444735000012,512.3444735000012,512.3289749000032,2,1.1099269999976968,0.26493610000034096,None,,,,,,,,,,,,,,,,,,,,,,1167,1,2025-07-02_19h13.56.366,sm,2024.2.4,59.96631092567576,2025-07-02 19h14.11.716432 +0200,
57,0,57,,,,,,space,4.132589200002258,None,None,3,0.9673127999994904,0.2562677000023541,None,0,0,0,0,,,,,0,0,0,0,,,,,57,0,57,0,512.3444735000012,,,,,,,,,,,,,,,,,,,,,,,,,,,,,,,,,,,,,,,,,,,,,,,,,,,,,,,,,Wanne,4.1401,512.3294950999989,512.3300013000044,512.3301085999992,512.3444735000012,516.4943765999997,516.478750000002,516.4826411000031,516.4943765999997,516.4943765999997,516.4943765999997,516.4943765999997,518.494612100003,518.494612100003,518.494612100003,518.494612100003,518.4785458000042,3,0.9673127999994904,0.2562677000023541,None,,,,,,,,,,,,,,,,,,,,,,1167,1,2025-07-02_19h13.56.366,sm,2024.2.4,59.96631092567576,2025-07-02 19h14.11.716432 +0200,
58,0,58,,,,,,space,4.132589200002258,None,None,2,0.9398724999991828,0.24542749999818625,None,0,0,0,0,,,,,0,0,0,0,,,,,58,0,58,0,518.494612100003,,,,,,,,,,,,,,,,,,,,,,,,,,,,,,,,,,,,,,,,,,,,,,,,,,,,,,,,,Besucher,2.7916,518.4789753000005,518.4794289999991,518.4795242000037,518.494612100003,521.2939840000035,521.2783628000034,521.2823360999973,521.2939840000035,521.2939840000035,521.2939840000035,521.2939840000035,523.2938024000032,523.2938024000032,523.2938024000032,523.2938024000032,523.2782989999978,2,0.9398724999991828,0.24542749999818625,None,,,,,,,,,,,,,,,,,,,,,,1167,1,2025-07-02_19h13.56.366,sm,2024.2.4,59.96631092567576,2025-07-02 19h14.11.716432 +0200,
59,0,59,,,,,,space,4.132589200002258,None,None,None,,,None,0,0,0,0,,,,,0,0,0,0,,,,,59,0,59,0,523.2938024000032,,,,,,,,,,,,,,,,,,,,,,,,,,,,,,,,,,,,,,,,,,,,,,,,,,,,,,,,,Olympia,3.8562,523.2788187000042,523.2793280000042,523.2794367000024,523.2938024000032,527.1605740000014,527.1448614000037,527.1504077999998,527.1605740000014,527.1605740000014,527.1605740000014,527.1605740000014,529.1603467000023,529.1603467000023,529.1603467000023,529.1603467000023,529.1448788999987,None,,,None,,,,,,,,,,,,,,,,,,,,,,1167,1,2025-07-02_19h13.56.366,sm,2024.2.4,59.96631092567576,2025-07-02 19h14.11.716432 +0200,
60,0,60,,,,,,space,4.132589200002258,None,None,3,0.9544124000021839,0.2891810000000987,None,0,0,0,0,,,,,0,0,0,0,,,,,60,0,60,0,529.1603467000023,,,,,,,,,,,,,,,,,,,,,,,,,,,,,,,,,,,,,,,,,,,,,,,,,,,,,,,,,Geheimnis,4.3241,529.1453564999974,529.1458778000015,529.1459840000025,529.1603467000023,533.4934262000024,533.4776210999989,533.481927300003,533.4934262000024,533.4934262000024,533.4934262000024,533.4934262000024,535.4932038999978,535.4932038999978,535.4932038999978,535.4932038999978,535.4775608999989,3,0.9544124000021839,0.2891810000000987,None,,,,,,,,,,,,,,,,,,,,,,1167,1,2025-07-02_19h13.56.366,sm,2024.2.4,59.96631092567576,2025-07-02 19h14.11.716432 +0200,
61,0,61,,,,,,space,4.132589200002258,None,None,3,1.0691202000016347,0.262326000003668,None,0,0,0,0,,,,,0,0,0,0,,,,,61,0,61,0,535.4932038999978,,,,,,,,,,,,,,,,,,,,,,,,,,,,,,,,,,,,,,,,,,,,,,,,,,,,,,,,,Apfel,5.259,535.4780710999985,535.4785962000024,535.4787027999992,535.4932038999978,540.7599571000028,540.7440619000045,540.7482418,540.7599571000028,540.7599571000028,540.7599571000028,540.7599571000028,542.7594403999974,542.7594403999974,542.7594403999974,542.7594403999974,542.7440761000034,3,1.0691202000016347,0.262326000003668,None,,,,,,,,,,,,,,,,,,,,,,1167,1,2025-07-02_19h13.56.366,sm,2024.2.4,59.96631092567576,2025-07-02 19h14.11.716432 +0200,
62,0,62,,,,,,space,4.132589200002258,None,None,3,1.2284983999998076,0.23488499999803025,None,0,0,0,0,,,,,0,0,0,0,,,,,62,0,62,0,542.7594403999974,,,,,,,,,,,,,,,,,,,,,,,,,,,,,,,,,,,,,,,,,,,,,,,,,,,,,,,,,Anruf,2.0848,542.744597500001,542.7451138000033,542.7452200999978,542.7594403999974,544.8589955999996,544.8434687000045,544.8466277999978,544.8589955999996,544.8589955999996,544.8589955999996,544.8589955999996,546.8594576000032,546.8594576000032,546.8594576000032,546.8594576000032,546.8438090999989,3,1.2284983999998076,0.23488499999803025,None,,,,,,,,,,,,,,,,,,,,,,1167,1,2025-07-02_19h13.56.366,sm,2024.2.4,59.96631092567576,2025-07-02 19h14.11.716432 +0200,
63,0,63,,,,,,space,4.132589200002258,None,None,2,0.8953284999952302,0.29578220000257716,None,0,0,0,0,,,,,0,0,0,0,,,,,63,0,63,0,546.8594576000032,,,,,,,,,,,,,,,,,,,,,,,,,,,,,,,,,,,,,,,,,,,,,,,,,,,,,,,,,Wurm,4.32,546.8443339000005,546.8448384000003,546.8449451999986,546.8594576000032,551.1924279000013,551.1770180000021,551.1801560000022,551.1924279000013,551.1924279000013,551.1924279000013,551.1924279000013,553.1923910999976,553.1923910999976,553.1923910999976,553.1923910999976,553.1765005999987,2,0.8953284999952302,0.29578220000257716,None,,,,,,,,,,,,,,,,,,,,,,1167,1,2025-07-02_19h13.56.366,sm,2024.2.4,59.96631092567576,2025-07-02 19h14.11.716432 +0200,
64,0,64,,,,,,space,4.132589200002258,None,None,3,0.8306814999959897,0.25829430000158027,None,0,0,0,0,,,,,0,0,0,0,,,,,64,0,64,0,553.1923910999976,,,,,,,,,,,,,,,,,,,,,,,,,,,,,,,,,,,,,,,,,,,,,,,,,,,,,,,,,Kino,2.0898,553.1770013999994,553.1774991999991,553.177601000003,553.1923910999976,555.2919666000016,555.2762350999983,555.2792384999993,555.2919666000016,555.2919666000016,555.2919666000016,555.2919666000016,557.2919941,557.2919941,557.2919941,557.2919941,557.2765857999984,3,0.8306814999959897,0.25829430000158027,None,,,,,,,,,,,,,,,,,,,,,,1167,1,2025-07-02_19h13.56.366,sm,2024.2.4,59.96631092567576,2025-07-02 19h14.11.716432 +0200,
65,0,65,,,,,,space,4.132589200002258,None,None,3,1.2178960000019288,0.2307887999995728,None,0,0,0,0,,,,,0,0,0,0,,,,,65,0,65,0,557.2919941,,,,,,,,,,,,,,,,,,,,,,,,,,,,,,,,,,,,,,,,,,,,,,,,,,,,,,,,,Radio,2.7875,557.2771426000036,557.277665499998,557.2777776000003,557.2919941,560.0918577999983,560.0762918000037,560.0803669000015,560.0918577999983,560.0918577999983,560.0918577999983,560.0918577999983,562.0917811000036,562.0917811000036,562.0917811000036,562.0917811000036,562.0761483000024,3,1.2178960000019288,0.2307887999995728,None,,,,,,,,,,,,,,,,,,,,,,1167,1,2025-07-02_19h13.56.366,sm,2024.2.4,59.96631092567576,2025-07-02 19h14.11.716432 +0200,
66,0,66,,,,,,space,4.132589200002258,None,None,3,0.9666001000005053,0.34306209999340354,None,0,0,0,0,,,,,0,0,0,0,,,,,66,0,66,0,562.0917811000036,,,,,,,,,,,,,,,,,,,,,,,,,,,,,,,,,,,,,,,,,,,,,,,,,,,,,,,,,Dachboden,2.9161,562.0766616000037,562.0773469999986,562.0774539999984,562.0917811000036,565.008109800001,564.9927547000043,564.9993404999987,565.008109800001,565.008109800001,565.008109800001,565.008109800001,567.0081881000006,567.0081881000006,567.0081881000006,567.0081881000006,566.9926190999977,3,0.9666001000005053,0.34306209999340354,None,,,,,,,,,,,,,,,,,,,,,,1167,1,2025-07-02_19h13.56.366,sm,2024.2.4,59.96631092567576,2025-07-02 19h14.11.716432 +0200,
67,0,67,,,,,,space,4.132589200002258,None,None,3,1.0174024000007194,0.23936719999619527,None,0,0,0,0,,,,,0,0,0,0,,,,,67,0,67,0,567.0081881000006,,,,,,,,,,,,,,,,,,,,,,,,,,,,,,,,,,,,,,,,,,,,,,,,,,,,,,,,,Soße,4.2986,566.9931356000016,566.9938022999995,566.9939086000013,567.0081881000006,571.308108600002,571.2920392000015,571.295028200002,571.308108600002,571.308108600002,571.308108600002,571.308108600002,573.3080330000012,573.3080330000012,573.3080330000012,573.3080330000012,573.2922082000005,3,1.0174024000007194,0.23936719999619527,None,,,,,,,,,,,,,,,,,,,,,,1167,1,2025-07-02_19h13.56.366,sm,2024.2.4,59.96631092567576,2025-07-02 19h14.11.716432 +0200,
68,0,68,,,,,,space,4.132589200002258,None,None,3,1.190602900001977,0.2975702000039746,None,0,0,0,0,,,,,0,0,0,0,,,,,68,0,68,0,573.3080330000012,,,,,,,,,,,,,,,,,,,,,,,,,,,,,,,,,,,,,,,,,,,,,,,,,,,,,,,,,Poesie,4.5257,573.2927371000042,573.2932579999979,573.2933669999984,573.3080330000012,577.8407666999992,577.8250333000033,577.8284937999997,577.8407666999992,577.8407666999992,577.8407666999992,577.8407666999992,579.8407052999974,579.8407052999974,579.8407052999974,579.8407052999974,579.8251530999987,3,1.190602900001977,0.2975702000039746,None,,,,,,,,,,,,,,,,,,,,,,1167,1,2025-07-02_19h13.56.366,sm,2024.2.4,59.96631092567576,2025-07-02 19h14.11.716432 +0200,
69,0,69,,,,,,space,4.132589200002258,None,None,2,1.233334600001399,0.25587280000036117,None,0,0,0,0,,,,,0,0,0,0,,,,,69,0,69,0,579.8407052999974,,,,,,,,,,,,,,,,,,,,,,,,,,,,,,,,,,,,,,,,,,,,,,,,,,,,,,,,,Blatt,2.6235,579.8256495000023,579.8261606000015,579.8262708000038,579.8407052999974,582.4735999999975,582.4582379999993,582.4615281000006,582.4735999999975,582.4735999999975,582.4735999999975,582.4735999999975,584.4739572000035,584.4739572000035,584.4739572000035,584.4739572000035,584.4581508999981,2,1.233334600001399,0.25587280000036117,None,,,,,,,,,,,,,,,,,,,,,,1167,1,2025-07-02_19h13.56.366,sm,2024.2.4,59.96631092567576,2025-07-02 19h14.11.716432 +0200,
70,0,70,,,,,,space,4.132589200002258,None,None,3,0.9213951999990968,0.2722855000029085,None,0,0,0,0,,,,,0,0,0,0,,,,,70,0,70,0,584.4739572000035,,,,,,,,,,,,,,,,,,,,,,,,,,,,,,,,,,,,,,,,,,,,,,,,,,,,,,,,,Klinge,2.3874,584.4586702000015,584.459188300003,584.4592986999996,584.4739572000035,586.8741577000037,586.8578988000008,586.861441699999,586.8741577000037,586.8741577000037,586.8741577000037,586.8741577000037,588.8734460999985,588.8734460999985,588.8734460999985,588.8734460999985,588.8580984,3,0.9213951999990968,0.2722855000029085,None,,,,,,,,,,,,,,,,,,,,,,1167,1,2025-07-02_19h13.56.366,sm,2024.2.4,59.96631092567576,2025-07-02 19h14.11.716432 +0200,
71,0,71,,,,,,space,4.132589200002258,None,None,3,0.918914699999732,0.29065280000213534,None,0,0,0,0,,,,,0,0,0,0,,,,,71,0,71,0,588.8734460999985,,,,,,,,,,,,,,,,,,,,,,,,,,,,,,,,,,,,,,,,,,,,,,,,,,,,,,,,,Shampoo,4.7562,588.8586174000011,588.8592189999981,588.8593266000025,588.8734460999985,593.6398743000027,593.6241773000002,593.6276050000015,593.6398743000027,593.6398743000027,593.6398743000027,593.6398743000027,595.6396846999996,595.6396846999996,595.6396846999996,595.6396846999996,595.6248467000041,3,0.918914699999732,0.29065280000213534,None,,,,,,,,,,,,,,,,,,,,,,1167,1,2025-07-02_19h13.56.366,sm,2024.2.4,59.96631092567576,2025-07-02 19h14.11.716432 +0200,
72,0,72,,,,,,space,4.132589200002258,None,None,3,1.0680634000018472,0.30208110000239685,None,0,0,0,0,,,,,0,0,0,0,,,,,72,0,72,0,595.6396846999996,,,,,,,,,,,,,,,,,,,,,,,,,,,,,,,,,,,,,,,,,,,,,,,,,,,,,,,,,Gleis,3.232,595.6253672000021,595.6258845999982,595.6260058000044,595.6396846999996,598.8727765000003,598.8570457000023,598.8604013000004,598.8727765000003,598.8727765000003,598.8727765000003,598.8727765000003,600.8728831000044,600.8728831000044,600.8728831000044,600.8728831000044,600.8574473000044,3,1.0680634000018472,0.30208110000239685,None,,,,,,,,,,,,,,,,,,,,,,1167,1,2025-07-02_19h13.56.366,sm,2024.2.4,59.96631092567576,2025-07-02 19h14.11.716432 +0200,
73,0,73,,,,,,space,4.132589200002258,None,None,2,1.098906299994269,0.27540610000141896,None,0,0,0,0,,,,,0,0,0,0,,,,,73,0,73,0,600.8728831000044,,,,,,,,,,,,,,,,,,,,,,,,,,,,,,,,,,,,,,,,,,,,,,,,,,,,,,,,,Lachen,3.4411,600.8579666000005,600.8584745000044,600.8585805000039,600.8728831000044,604.3224810000029,604.3071849999978,604.3123001999993,604.3224810000029,604.3224810000029,604.3224810000029,604.3224810000029,606.3225053999995,606.3225053999995,606.3225053999995,606.3225053999995,606.3070627999987,2,1.098906299994269,0.27540610000141896,None,,,,,,,,,,,,,,,,,,,,,,1167,1,2025-07-02_19h13.56.366,sm,2024.2.4,59.96631092567576,2025-07-02 19h14.11.716432 +0200,
74,0,74,,,,,,space,4.132589200002258,None,None,3,1.1686547000063001,0.24566919999779202,None,0,0,0,0,,,,,0,0,0,0,,,,,74,0,74,0,606.3225053999995,,,,,,,,,,,,,,,,,,,,,,,,,,,,,,,,,,,,,,,,,,,,,,,,,,,,,,,,,Wüste,3.2479,606.3074848000033,606.3080622999987,606.3082331000041,606.3225053999995,609.5731358999983,609.5566626,609.5602992999993,609.5731358999983,609.5731358999983,609.5731358999983,609.5731358999983,611.5727970000007,611.5727970000007,611.5727970000007,611.5727970000007,611.5567985000016,3,1.1686547000063001,0.24566919999779202,None,,,,,,,,,,,,,,,,,,,,,,1167,1,2025-07-02_19h13.56.366,sm,2024.2.4,59.96631092567576,2025-07-02 19h14.11.716432 +0200,
75,0,75,,,,,,space,4.132589200002258,None,None,2,1.1645570999971824,0.26190309999947203,None,0,0,0,0,,,,,0,0,0,0,,,,,75,0,75,0,611.5727970000007,,,,,,,,,,,,,,,,,,,,,,,,,,,,,,,,,,,,,,,,,,,,,,,,,,,,,,,,,Rasen,2.0035,611.5573156000028,611.5578327000039,611.5579414000022,611.5727970000007,613.5889909000034,613.5732939000009,613.576933700002,613.5889909000034,613.5889909000034,613.5889909000034,613.5889909000034,615.5887874000036,615.5887874000036,615.5887874000036,615.5887874000036,615.573012599998,2,1.1645570999971824,0.26190309999947203,None,,,,,,,,,,,,,,,,,,,,,,1167,1,2025-07-02_19h13.56.366,sm,2024.2.4,59.96631092567576,2025-07-02 19h14.11.716432 +0200,
76,0,76,,,,,,space,4.132589200002258,None,None,3,0.9991632999954163,0.2443545999994967,None,0,0,0,0,,,,,0,0,0,0,,,,,76,0,76,0,615.5887874000036,,,,,,,,,,,,,,,,,,,,,,,,,,,,,,,,,,,,,,,,,,,,,,,,,,,,,,,,,Schlüssel,3.5332,615.5735063000029,615.5740005000043,615.5741026000032,615.5887874000036,619.1215226999993,619.1064397000009,619.110074199998,619.1215226999993,619.1215226999993,619.1215226999993,619.1215226999993,621.1216866000032,621.1216866000032,621.1216866000032,621.1216866000032,621.1063591999991,3,0.9991632999954163,0.2443545999994967,None,,,,,,,,,,,,,,,,,,,,,,1167,1,2025-07-02_19h13.56.366,sm,2024.2.4,59.96631092567576,2025-07-02 19h14.11.716432 +0200,
77,0,77,,,,,,space,4.132589200002258,None,None,3,1.040136600000551,0.29023749999760184,None,0,0,0,0,,,,,0,0,0,0,,,,,77,0,77,0,621.1216866000032,,,,,,,,,,,,,,,,,,,,,,,,,,,,,,,,,,,,,,,,,,,,,,,,,,,,,,,,,Beutel,2.0856,621.1068941999984,621.107404800001,621.1075133999984,621.1216866000032,623.2215015999973,623.2061828000005,623.2101945000031,623.2215015999973,623.2215015999973,623.2215015999973,623.2215015999973,625.221643900004,625.221643900004,625.221643900004,625.221643900004,625.2062069000021,3,1.040136600000551,0.29023749999760184,None,,,,,,,,,,,,,,,,,,,,,,1167,1,2025-07-02_19h13.56.366,sm,2024.2.4,59.96631092567576,2025-07-02 19h14.11.716432 +0200,
78,0,78,,,,,,space,4.132589200002258,None,None,2,1.1403920000011567,0.25943599999300204,None,0,0,0,0,,,,,0,0,0,0,,,,,78,0,78,0,625.221643900004,,,,,,,,,,,,,,,,,,,,,,,,,,,,,,,,,,,,,,,,,,,,,,,,,,,,,,,,,Turnerin,2.2737,625.2067296000023,625.2072399000026,625.2073486000008,625.221643900004,627.5045845999994,627.4888672000016,627.4923215000017,627.5045845999994,627.5045845999994,627.5045845999994,627.5045845999994,629.5046655000042,629.5046655000042,629.5046655000042,629.5046655000042,629.4891702000023,2,1.1403920000011567,0.25943599999300204,None,,,,,,,,,,,,,,,,,,,,,,1167,1,2025-07-02_19h13.56.366,sm,2024.2.4,59.96631092567576,2025-07-02 19h14.11.716432 +0200,
79,0,79,,,,,,space,4.132589200002258,None,None,3,0.7999498999997741,0.26035589999810327,None,0,0,0,0,,,,,0,0,0,0,,,,,79,0,79,0,629.5046655000042,,,,,,,,,,,,,,,,,,,,,,,,,,,,,,,,,,,,,,,,,,,,,,,,,,,,,,,,,Helm,2.9356,629.4896869000004,629.4903374999994,629.4904429000017,629.5046655000042,632.4543544000044,632.4389451000025,632.4426624000043,632.4543544000044,632.4543544000044,632.4543544000044,632.4543544000044,634.4659919000042,634.4659919000042,634.4659919000042,634.4659919000042,634.4389789999987,3,0.7999498999997741,0.26035589999810327,None,,,,,,,,,,,,,,,,,,,,,,1167,1,2025-07-02_19h13.56.366,sm,2024.2.4,59.96631092567576,2025-07-02 19h14.11.716432 +0200,
0,0,0,,,,,2.5394,space,2.5739638000013656,None,None,3,1.47330559999682,0.28778849999798695,None,0,0,0,0,,,,,1,0,1,0,0,79,79,2,0,0,0,0,682.2680611000033,,,,,,,,,,,,,,,,,,,,,,,,,,,,,,,,,,,,654.8683526000023,654.8686181000012,654.8748965999985,654.8813899000015,654.8813899000015,657.4714213999978,space,2.5739638000013656,None,657.4715796000019,657.4862321000037,657.4862321000037,670.2523008999997,None,670.2596178000022,670.2689996000045,670.2672463666643,671.4747881000003,680.2516722666662,681.2552063999974,682.2525701999984,Maske,2.5394,682.2538490000006,682.2543874000039,682.2544837000023,682.2680611000033,684.8177483000036,684.8022698999994,684.8063459999976,684.8177483000036,684.8177483000036,684.8177483000036,684.8177483000036,686.8180598000035,686.8180598000035,686.8180598000035,686.8180598000035,686.802503400002,3,1.47330559999682,0.28778849999798695,None,646.4541883999991,646.4542638999992,None,646.4620359000037,646.4702526000037,650.4702020999976,650.4702020999976,650.4702020999976,654.8215849000044,2,4.348379200004274,None,682.2680611000033,,,,,,,,,1167,1,2025-07-02_19h13.56.366,sm,2024.2.4,59.96631092567576,2025-07-02 19h14.11.716432 +0200,
1,0,1,,,,,,space,2.5739638000013656,None,None,2,1.5017022999963956,0.2413449000014225,None,0,0,0,0,,,,,1,0,1,0,,,,,1,0,1,0,686.8180598000035,,,,,,,,,,,,,,,,,,,,,,,,,,,,,,,,,,,,,,,,,,,,,,,,,,,,,,,,,Gemüse,2.2596,686.8030266999995,686.8035630000013,686.8036864000023,686.8180598000035,689.084577900001,689.0688359999986,689.0726814000009,689.084577900001,689.084577900001,689.084577900001,689.084577900001,691.0846363000019,691.0846363000019,691.0846363000019,691.0846363000019,691.0690906000018,2,1.5017022999963956,0.2413449000014225,None,,,,,,,,,,,,,,,,,,,,,,1167,1,2025-07-02_19h13.56.366,sm,2024.2.4,59.96631092567576,2025-07-02 19h14.11.716432 +0200,
2,0,2,,,,,,space,2.5739638000013656,None,None,2,1.1253470000010566,0.331701900002372,None,0,0,0,0,,,,,1,0,1,0,,,,,2,0,2,0,691.0846363000019,,,,,,,,,,,,,,,,,,,,,,,,,,,,,,,,,,,,,,,,,,,,,,,,,,,,,,,,,Weinen,2.4748,691.0696045000004,691.0701319,691.0702396999986,691.0846363000019,693.5674010000002,693.5518582000004,693.5554160000029,693.5674010000002,693.5674010000002,693.5674010000002,693.5674010000002,695.5675410999975,695.5675410999975,695.5675410999975,695.5675410999975,695.5519557000007,2,1.1253470000010566,0.331701900002372,None,,,,,,,,,,,,,,,,,,,,,,1167,1,2025-07-02_19h13.56.366,sm,2024.2.4,59.96631092567576,2025-07-02 19h14.11.716432 +0200,
3,0,3,,,,,,space,2.5739638000013656,None,None,2,0.8417109000001801,0.2798691000061808,None,0,0,0,0,,,,,1,0,1,0,,,,,3,0,3,0,695.5675410999975,,,,,,,,,,,,,,,,,,,,,,,,,,,,,,,,,,,,,,,,,,,,,,,,,,,,,,,,,Arbeit,4.1401,695.552472000003,695.5529861000032,695.5530941000034,695.5675410999975,699.7171452999974,699.7015178000001,699.7052954000028,699.7171452999974,699.7171452999974,699.7171452999974,699.7171452999974,701.717332500004,701.717332500004,701.717332500004,701.717332500004,701.7015967999978,2,0.8417109000001801,0.2798691000061808,None,,,,,,,,,,,,,,,,,,,,,,1167,1,2025-07-02_19h13.56.366,sm,2024.2.4,59.96631092567576,2025-07-02 19h14.11.716432 +0200,
4,0,4,,,,,,space,2.5739638000013656,None,None,3,1.4290768999999273,0.27690390000498155,None,0,0,0,0,,,,,1,0,1,0,,,,,4,0,4,0,701.717332500004,,,,,,,,,,,,,,,,,,,,,,,,,,,,,,,,,,,,,,,,,,,,,,,,,,,,,,,,,Kartoffel,2.4315,701.702111300001,701.702629200001,701.7027348999982,701.717332500004,704.1505306000035,704.1349925000031,704.1393715000013,704.1505306000035,704.1505306000035,704.1505306000035,704.1505306000035,706.1503040000025,706.1503040000025,706.1503040000025,706.1503040000025,706.1348254999975,3,1.4290768999999273,0.27690390000498155,None,,,,,,,,,,,,,,,,,,,,,,1167,1,2025-07-02_19h13.56.366,sm,2024.2.4,59.96631092567576,2025-07-02 19h14.11.716432 +0200,
5,0,5,,,,,,space,2.5739638000013656,None,None,3,0.9302544999954989,0.28921200000331737,None,0,0,0,0,,,,,1,0,1,0,,,,,5,0,5,0,706.1503040000025,,,,,,,,,,,,,,,,,,,,,,,,,,,,,,,,,,,,,,,,,,,,,,,,,,,,,,,,,Stiefel,2.0898,706.1353450000024,706.1358617000005,706.1359688000011,706.1503040000025,708.2501904000019,708.2343302000008,708.2386740000002,708.2501904000019,708.2501904000019,708.2501904000019,708.2501904000019,710.2505634000045,710.2505634000045,710.2505634000045,710.2505634000045,710.2346837000005,3,0.9302544999954989,0.28921200000331737,None,,,,,,,,,,,,,,,,,,,,,,1167,1,2025-07-02_19h13.56.366,sm,2024.2.4,59.96631092567576,2025-07-02 19h14.11.716432 +0200,
6,0,6,,,,,,space,2.5739638000013656,None,None,3,1.0354445000048145,0.26351559999602614,None,0,0,0,0,,,,,1,0,1,0,,,,,6,0,6,0,710.2505634000045,,,,,,,,,,,,,,,,,,,,,,,,,,,,,,,,,,,,,,,,,,,,,,,,,,,,,,,,,Gipfel,3.1297,710.2351978000006,710.235947000001,710.2360515000037,710.2505634000045,713.3829885000014,713.3676133999979,713.3712660000019,713.3829885000014,713.3829885000014,713.3829885000014,713.3829885000014,715.3832688999973,715.3832688999973,715.3832688999973,715.3832688999973,715.3676085999978,3,1.0354445000048145,0.26351559999602614,None,,,,,,,,,,,,,,,,,,,,,,1167,1,2025-07-02_19h13.56.366,sm,2024.2.4,59.96631092567576,2025-07-02 19h14.11.716432 +0200,
7,0,7,,,,,,space,2.5739638000013656,None,None,2,0.9007930000007036,0.28906239999923855,None,0,0,0,0,,,,,1,0,1,0,,,,,7,0,7,0,715.3832688999973,,,,,,,,,,,,,,,,,,,,,,,,,,,,,,,,,,,,,,,,,,,,,,,,,,,,,,,,,Student,4.7562,715.3681178999977,715.3686443999977,715.368753900002,715.3832688999973,720.1496953000023,720.1338971000005,720.1384860000035,720.1496953000023,720.1496953000023,720.1496953000023,720.1496953000023,722.1493485000028,722.1493485000028,722.1493485000028,722.1493485000028,722.1337552000041,2,0.9007930000007036,0.28906239999923855,None,,,,,,,,,,,,,,,,,,,,,,1167,1,2025-07-02_19h13.56.366,sm,2024.2.4,59.96631092567576,2025-07-02 19h14.11.716432 +0200,
8,0,8,,,,,,space,2.5739638000013656,None,None,3,1.067565299999842,0.25927729999966687,None,0,0,0,0,,,,,1,0,1,0,,,,,8,0,8,0,722.1493485000028,,,,,,,,,,,,,,,,,,,,,,,,,,,,,,,,,,,,,,,,,,,,,,,,,,,,,,,,,Lied,3.5988,722.1342760000043,722.1348606000029,722.134967500002,722.1493485000028,725.7491771999994,725.7335082999998,725.737174300004,725.7491771999994,725.7491771999994,725.7491771999994,725.7491771999994,727.749072700004,727.749072700004,727.749072700004,727.749072700004,727.7334448999973,3,1.067565299999842,0.25927729999966687,None,,,,,,,,,,,,,,,,,,,,,,1167,1,2025-07-02_19h13.56.366,sm,2024.2.4,59.96631092567576,2025-07-02 19h14.11.716432 +0200,
9,0,9,,,,,,space,2.5739638000013656,None,None,3,1.1731575000012526,0.22941420000279322,None,0,0,0,0,,,,,1,0,1,0,,,,,9,0,9,0,727.749072700004,,,,,,,,,,,,,,,,,,,,,,,,,,,,,,,,,,,,,,,,,,,,,,,,,,,,,,,,,Fernseher,2.7875,727.7339610999989,727.7346040999983,727.7347091999982,727.749072700004,730.5490064000041,730.5334374000013,730.5373536999978,730.5490064000041,730.5490064000041,730.5490064000041,730.5490064000041,732.5490646000035,732.5490646000035,732.5490646000035,732.5490646000035,732.5332756999996,3,1.1731575000012526,0.22941420000279322,None,,,,,,,,,,,,,,,,,,,,,,1167,1,2025-07-02_19h13.56.366,sm,2024.2.4,59.96631092567576,2025-07-02 19h14.11.716432 +0200,
10,0,10,,,,,,space,2.5739638000013656,None,None,2,1.2667863999959081,0.2412776000055601,None,0,0,0,0,,,,,1,0,1,0,,,,,10,0,10,0,732.5490646000035,,,,,,,,,,,,,,,,,,,,,,,,,,,,,,,,,,,,,,,,,,,,,,,,,,,,,,,,,Sport,2.0986,732.5337962999984,732.5343371999988,732.5344441999987,732.5490646000035,734.6485665,734.6331046999985,734.6371215000036,734.6485665,734.6485665,734.6485665,734.6485665,736.6485792000021,736.6485792000021,736.6485792000021,736.6485792000021,736.6330402000021,2,1.2667863999959081,0.2412776000055601,None,,,,,,,,,,,,,,,,,,,,,,1167,1,2025-07-02_19h13.56.366,sm,2024.2.4,59.96631092567576,2025-07-02 19h14.11.716432 +0200,
11,0,11,,,,,,space,2.5739638000013656,None,None,2,0.9758558999965317,0.28821910000260687,None,0,0,0,0,,,,,1,0,1,0,,,,,11,0,11,0,736.6485792000021,,,,,,,,,,,,,,,,,,,,,,,,,,,,,,,,,,,,,,,,,,,,,,,,,,,,,,,,,Koch,3.6011,736.6335491999998,736.6342024999976,736.6343090000009,736.6485792000021,740.2650246999983,740.2493207000007,740.2526216999977,740.2650246999983,740.2650246999983,740.2650246999983,740.2650246999983,742.2649885999999,742.2649885999999,742.2649885999999,742.2649885999999,742.2495215000017,2,0.9758558999965317,0.28821910000260687,None,,,,,,,,,,,,,,,,,,,,,,1167,1,2025-07-02_19h13.56.366,sm,2024.2.4,59.96631092567576,2025-07-02 19h14.11.716432 +0200,
12,0,12,,,,,,space,2.5739638000013656,None,None,2,0.961719599996286,0.24094590000458993,None,0,0,0,0,,,,,1,0,1,0,,,,,12,0,12,0,742.2649885999999,,,,,,,,,,,,,,,,,,,,,,,,,,,,,,,,,,,,,,,,,,,,,,,,,,,,,,,,,Journalistin,4.079,742.2500447999992,742.2505609,742.250670100002,742.2649885999999,746.3475008000023,746.332316,746.3381752999994,746.3475008000023,746.3475008000023,746.3475008000023,746.3475008000023,748.347984699998,748.347984699998,748.347984699998,748.347984699998,748.3325878000032,2,0.961719599996286,0.24094590000458993,None,,,,,,,,,,,,,,,,,,,,,,1167,1,2025-07-02_19h13.56.366,sm,2024.2.4,59.96631092567576,2025-07-02 19h14.11.716432 +0200,
13,0,13,,,,,,space,2.5739638000013656,None,None,2,1.0024924999961513,0.21835409999766853,None,0,0,0,0,,,,,1,0,1,0,,,,,13,0,13,0,748.347984699998,,,,,,,,,,,,,,,,,,,,,,,,,,,,,,,,,,,,,,,,,,,,,,,,,,,,,,,,,Publikum,2.5756,748.3331031999987,748.33367,748.3337794000036,748.347984699998,750.9310648000028,750.9153026999993,750.919982899999,750.9310648000028,750.9310648000028,750.9310648000028,750.9310648000028,752.9311379999999,752.9311379999999,752.9311379999999,752.9311379999999,752.9153894999981,2,1.0024924999961513,0.21835409999766853,None,,,,,,,,,,,,,,,,,,,,,,1167,1,2025-07-02_19h13.56.366,sm,2024.2.4,59.96631092567576,2025-07-02 19h14.11.716432 +0200,
14,0,14,,,,,,space,2.5739638000013656,None,None,3,1.084489200002281,0.2503020000003744,None,0,0,0,0,,,,,1,0,1,0,,,,,14,0,14,0,752.9311379999999,,,,,,,,,,,,,,,,,,,,,,,,,,,,,,,,,,,,,,,,,,,,,,,,,,,,,,,,,Dorn,4.5257,752.915903400004,752.9165636000034,752.9166716000036,752.9311379999999,757.4640543999994,757.4487080000035,757.4519986000014,757.4640543999994,757.4640543999994,757.4640543999994,757.4640543999994,759.4641201999984,759.4641201999984,759.4641201999984,759.4641201999984,759.4485781999974,3,1.084489200002281,0.2503020000003744,None,,,,,,,,,,,,,,,,,,,,,,1167,1,2025-07-02_19h13.56.366,sm,2024.2.4,59.96631092567576,2025-07-02 19h14.11.716432 +0200,
15,0,15,,,,,,space,2.5739638000013656,None,None,3,1.0649015000017243,0.26350470000033965,None,0,0,0,0,,,,,1,0,1,0,,,,,15,0,15,0,759.4641201999984,,,,,,,,,,,,,,,,,,,,,,,,,,,,,,,,,,,,,,,,,,,,,,,,,,,,,,,,,Kälte,5.259,759.4490901000026,759.4498380000005,759.4499490000017,759.4641201999984,764.7302955999985,764.714224299998,764.7172000999999,764.7302955999985,764.7302955999985,764.7302955999985,764.7302955999985,766.7306892999986,766.7306892999986,766.7306892999986,766.7306892999986,766.714688,3,1.0649015000017243,0.26350470000033965,None,,,,,,,,,,,,,,,,,,,,,,1167,1,2025-07-02_19h13.56.366,sm,2024.2.4,59.96631092567576,2025-07-02 19h14.11.716432 +0200,
16,0,16,,,,,,space,2.5739638000013656,None,None,2,0.8562929000036092,0.24244590000307653,None,0,0,0,0,,,,,1,0,1,0,,,,,16,0,16,0,766.7306892999986,,,,,,,,,,,,,,,,,,,,,,,,,,,,,,,,,,,,,,,,,,,,,,,,,,,,,,,,,Freund,2.5816,766.7152055000042,766.715726800001,766.7158359000023,766.7306892999986,769.3133739999976,769.2977957999974,769.3017986999985,769.3133739999976,769.3133739999976,769.3133739999976,769.3133739999976,771.3138417000009,771.3138417000009,771.3138417000009,771.3138417000009,771.2977052999995,2,0.8562929000036092,0.24244590000307653,None,,,,,,,,,,,,,,,,,,,,,,1167,1,2025-07-02_19h13.56.366,sm,2024.2.4,59.96631092567576,2025-07-02 19h14.11.716432 +0200,
17,0,17,,,,,,space,2.5739638000013656,None,None,3,1.381968699999561,0.22433820000151172,None,0,0,0,0,,,,,1,0,1,0,,,,,17,0,17,0,771.3138417000009,,,,,,,,,,,,,,,,,,,,,,,,,,,,,,,,,,,,,,,,,,,,,,,,,,,,,,,,,Bildung,2.637,771.2981693999973,771.2987715999989,771.2988657000024,771.3138417000009,773.9631530999977,773.9475114000015,773.9513079000026,773.9631530999977,773.9631530999977,773.9631530999977,773.9631530999977,775.9629771000036,775.9629771000036,775.9629771000036,775.9629771000036,775.9473559000035,3,1.381968699999561,0.22433820000151172,None,,,,,,,,,,,,,,,,,,,,,,1167,1,2025-07-02_19h13.56.366,sm,2024.2.4,59.96631092567576,2025-07-02 19h14.11.716432 +0200,
18,0,18,,,,,,space,2.5739638000013656,None,None,3,0.9705801000018255,0.26073880000330973,None,0,0,0,0,,,,,1,0,1,0,,,,,18,0,18,0,775.9629771000036,,,,,,,,,,,,,,,,,,,,,,,,,,,,,,,,,,,,,,,,,,,,,,,,,,,,,,,,,Puppe,2.6235,775.9478384000031,775.948616200003,775.9487167999978,775.9629771000036,778.5962626000037,778.5806568999978,778.584611899998,778.5962626000037,778.5962626000037,778.5962626000037,778.5962626000037,780.5962340000042,780.5962340000042,780.5962340000042,780.5962340000042,780.5807204000012,3,0.9705801000018255,0.26073880000330973,None,,,,,,,,,,,,,,,,,,,,,,1167,1,2025-07-02_19h13.56.366,sm,2024.2.4,59.96631092567576,2025-07-02 19h14.11.716432 +0200,
19,0,19,,,,,,space,2.5739638000013656,None,None,3,1.0973272999981418,0.28422990000399295,None,0,0,0,0,,,,,1,0,1,0,,,,,19,0,19,0,780.5962340000042,,,,,,,,,,,,,,,,,,,,,,,,,,,,,,,,,,,,,,,,,,,,,,,,,,,,,,,,,Lokomotive,2.0332,780.581233500001,780.5818883000029,780.5819942000016,780.5962340000042,782.6291195000013,782.613683100004,782.617977300004,782.6291195000013,782.6291195000013,782.6291195000013,782.6291195000013,784.6295242999986,784.6295242999986,784.6295242999986,784.6295242999986,784.6138624000014,3,1.0973272999981418,0.28422990000399295,None,,,,,,,,,,,,,,,,,,,,,,1167,1,2025-07-02_19h13.56.366,sm,2024.2.4,59.96631092567576,2025-07-02 19h14.11.716432 +0200,
20,0,20,,,,,,space,2.5739638000013656,None,None,3,1.1855666999981622,0.23833770000055665,None,0,0,0,0,,,,,1,0,1,0,,,,,20,0,20,0,784.6295242999986,,,,,,,,,,,,,,,,,,,,,,,,,,,,,,,,,,,,,,,,,,,,,,,,,,,,,,,,,Zapfen,2.9356,784.6143830000001,784.615020600002,784.6151252999989,784.6295242999986,787.579083800003,787.5635182000042,787.5682854999977,787.579083800003,787.579083800003,787.579083800003,787.579083800003,789.5789861000012,789.5789861000012,789.5789861000012,789.5789861000012,789.5635036000022,3,1.1855666999981622,0.23833770000055665,None,,,,,,,,,,,,,,,,,,,,,,1167,1,2025-07-02_19h13.56.366,sm,2024.2.4,59.96631092567576,2025-07-02 19h14.11.716432 +0200,
21,0,21,,,,,,space,2.5739638000013656,None,None,3,1.0259256999997888,0.2762134000004153,None,0,0,0,0,,,,,1,0,1,0,,,,,21,0,21,0,789.5789861000012,,,,,,,,,,,,,,,,,,,,,,,,,,,,,,,,,,,,,,,,,,,,,,,,,,,,,,,,,Teller,2.9946,789.5640217000037,789.5645356000023,789.5646462000004,789.5789861000012,792.5788268000033,792.5627561000001,792.5659566000031,792.5788268000033,792.5788268000033,792.5788268000033,792.5788268000033,794.5787928999998,794.5787928999998,794.5787928999998,794.5787928999998,794.5632777999999,3,1.0259256999997888,0.2762134000004153,None,,,,,,,,,,,,,,,,,,,,,,1167,1,2025-07-02_19h13.56.366,sm,2024.2.4,59.96631092567576,2025-07-02 19h14.11.716432 +0200,
22,0,22,,,,,,space,2.5739638000013656,None,None,2,0.9131772999971872,0.2684869000004255,None,0,0,0,0,,,,,1,0,1,0,,,,,22,0,22,0,794.5787928999998,,,,,,,,,,,,,,,,,,,,,,,,,,,,,,,,,,,,,,,,,,,,,,,,,,,,,,,,,Nase,2.2523,794.5637970000025,794.5643296999988,794.5644356999983,794.5787928999998,796.8453351999997,796.8295015999975,796.8325708999982,796.8453351999997,796.8453351999997,796.8453351999997,796.8453351999997,798.8452505000023,798.8452505000023,798.8452505000023,798.8452505000023,798.829472999998,2,0.9131772999971872,0.2684869000004255,None,,,,,,,,,,,,,,,,,,,,,,1167,1,2025-07-02_19h13.56.366,sm,2024.2.4,59.96631092567576,2025-07-02 19h14.11.716432 +0200,
23,0,23,,,,,,space,2.5739638000013656,None,None,2,0.9410672999947565,0.34503200000472134,None,0,0,0,0,,,,,1,0,1,0,,,,,23,0,23,0,798.8452505000023,,,,,,,,,,,,,,,,,,,,,,,,,,,,,,,,,,,,,,,,,,,,,,,,,,,,,,,,,Alligator,5.6809,798.8299350000016,798.8304949000012,798.8305911999996,798.8452505000023,804.5280627000029,804.5125171000036,804.516970800003,804.5280627000029,804.5280627000029,804.5280627000029,804.5280627000029,806.5279553,806.5279553,806.5279553,806.5279553,806.5122497999982,2,0.9410672999947565,0.34503200000472134,None,,,,,,,,,,,,,,,,,,,,,,1167,1,2025-07-02_19h13.56.366,sm,2024.2.4,59.96631092567576,2025-07-02 19h14.11.716432 +0200,
24,0,24,,,,,,space,2.5739638000013656,None,None,3,1.0252608000009786,0.26887799999531126,None,0,0,0,0,,,,,1,0,1,0,,,,,24,0,24,0,806.5279553,,,,,,,,,,,,,,,,,,,,,,,,,,,,,,,,,,,,,,,,,,,,,,,,,,,,,,,,,Geschmack,3.3611,806.5126799999998,806.513223599999,806.513311200004,806.5279553,809.8942759999991,809.8786806999997,809.8824891999975,809.8942759999991,809.8942759999991,809.8942759999991,809.8942759999991,811.8947454000008,811.8947454000008,811.8947454000008,811.8947454000008,811.8788413000002,3,1.0252608000009786,0.26887799999531126,None,,,,,,,,,,,,,,,,,,,,,,1167,1,2025-07-02_19h13.56.366,sm,2024.2.4,59.96631092567576,2025-07-02 19h14.11.716432 +0200,
25,0,25,,,,,,space,2.5739638000013656,None,None,2,0.9087889000002178,0.27967539999372093,None,0,0,0,0,,,,,1,0,1,0,,,,,25,0,25,0,811.8947454000008,,,,,,,,,,,,,,,,,,,,,,,,,,,,,,,,,,,,,,,,,,,,,,,,,,,,,,,,,Hase,2.1713,811.8793573000003,811.8798756000033,811.8799827000039,811.8947454000008,814.0774262999985,814.0616225999984,814.0647280999983,814.0774262999985,814.0774262999985,814.0774262999985,814.0774262999985,816.0774190000011,816.0774190000011,816.0774190000011,816.0774190000011,816.0617541000029,2,0.9087889000002178,0.27967539999372093,None,,,,,,,,,,,,,,,,,,,,,,1167,1,2025-07-02_19h13.56.366,sm,2024.2.4,59.96631092567576,2025-07-02 19h14.11.716432 +0200,
26,0,26,,,,,,space,2.5739638000013656,None,None,2,1.0110350000031758,0.2589181000003009,None,0,0,0,0,,,,,1,0,1,0,,,,,26,0,26,0,816.0774190000011,,,,,,,,,,,,,,,,,,,,,,,,,,,,,,,,,,,,,,,,,,,,,,,,,,,,,,,,,Kunde,2.8322,816.0622749000031,816.0627961999999,816.0629049999989,816.0774190000011,818.9104240000015,818.8951554000014,818.8991910999976,818.9104240000015,818.9104240000015,818.9104240000015,818.9104240000015,820.9106328999987,820.9106328999987,820.9106328999987,820.9106328999987,820.8955831999992,2,1.0110350000031758,0.2589181000003009,None,,,,,,,,,,,,,,,,,,,,,,1167,1,2025-07-02_19h13.56.366,sm,2024.2.4,59.96631092567576,2025-07-02 19h14.11.716432 +0200,
27,0,27,,,,,,space,2.5739638000013656,None,None,3,1.116567999997642,0.263155699998606,None,0,0,0,0,,,,,1,0,1,0,,,,,27,0,27,0,820.9106328999987,,,,,,,,,,,,,,,,,,,,,,,,,,,,,,,,,,,,,,,,,,,,,,,,,,,,,,,,,Ball,2.9161,820.8961056000044,820.8966216999979,820.8967376,820.9106328999987,823.8271308000039,823.8113623000027,823.8157980000033,823.8271308000039,823.8271308000039,823.8271308000039,823.8271308000039,825.8269172,825.8269172,825.8269172,825.8269172,825.8114836000022,3,1.116567999997642,0.263155699998606,None,,,,,,,,,,,,,,,,,,,,,,1167,1,2025-07-02_19h13.56.366,sm,2024.2.4,59.96631092567576,2025-07-02 19h14.11.716432 +0200,
28,0,28,,,,,,space,2.5739638000013656,None,None,3,1.708601099999214,None,None,0,0,0,0,,,,,1,0,1,0,,,,,28,0,28,0,825.8269172,,,,,,,,,,,,,,,,,,,,,,,,,,,,,,,,,,,,,,,,,,,,,,,,,,,,,,,,,Frieden,2.573,825.8119993,825.8126620999974,825.8127708000029,825.8269172,828.4100978999995,828.3947706000035,828.3990220999985,828.4100978999995,828.4100978999995,828.4100978999995,828.4100978999995,830.4098167999982,830.4098167999982,830.4098167999982,830.4098167999982,830.3947100000005,3,1.708601099999214,None,None,,,,,,,,,,,,,,,,,,,,,,1167,1,2025-07-02_19h13.56.366,sm,2024.2.4,59.96631092567576,2025-07-02 19h14.11.716432 +0200,
29,0,29,,,,,,space,2.5739638000013656,None,None,3,1.228652099998726,0.2554216000062297,None,0,0,0,0,,,,,1,0,1,0,,,,,29,0,29,0,830.4098167999982,,,,,,,,,,,,,,,,,,,,,,,,,,,,,,,,,,,,,,,,,,,,,,,,,,,,,,,,,Himmel,2.0856,830.3952215000027,830.3957462000035,830.3958540000021,830.4098167999982,832.5099470999994,832.4941951000001,832.4984704000017,832.5099470999994,832.5099470999994,832.5099470999994,832.5099470999994,834.5097135000033,834.5097135000033,834.5097135000033,834.5097135000033,834.4943140000032,3,1.228652099998726,0.2554216000062297,None,,,,,,,,,,,,,,,,,,,,,,1167,1,2025-07-02_19h13.56.366,sm,2024.2.4,59.96631092567576,2025-07-02 19h14.11.716432 +0200,
30,0,30,,,,,,space,2.5739638000013656,None,None,2,1.4094260999991093,0.2260427000001073,None,0,0,0,0,,,,,1,0,1,0,,,,,30,0,30,0,834.5097135000033,,,,,,,,,,,,,,,,,,,,,,,,,,,,,,,,,,,,,,,,,,,,,,,,,,,,,,,,,Klee,3.8562,834.4948195000034,834.4954636999973,834.4955700999999,834.5097135000033,838.3760441999984,838.3606844000024,838.3642552000019,838.3760441999984,838.3760441999984,838.3760441999984,838.3760441999984,840.3762071000019,840.3762071000019,840.3762071000019,840.3762071000019,840.3605481999984,2,1.4094260999991093,0.2260427000001073,None,,,,,,,,,,,,,,,,,,,,,,1167,1,2025-07-02_19h13.56.366,sm,2024.2.4,59.96631092567576,2025-07-02 19h14.11.716432 +0200,
31,0,31,,,,,,space,2.5739638000013656,None,None,2,1.3155283000014606,0.2482679000022472,None,0,0,0,0,,,,,1,0,1,0,,,,,31,0,31,0,840.3762071000019,,,,,,,,,,,,,,,,,,,,,,,,,,,,,,,,,,,,,,,,,,,,,,,,,,,,,,,,,Humor,3.2724,840.361066999998,840.3615950000021,840.3617033999981,840.3762071000019,843.6591750000007,843.6435927999992,843.6475456000044,843.6591750000007,843.6591750000007,843.6591750000007,843.6591750000007,845.658971900004,845.658971900004,845.658971900004,845.658971900004,845.6436526000034,2,1.3155283000014606,0.2482679000022472,None,,,,,,,,,,,,,,,,,,,,,,1167,1,2025-07-02_19h13.56.366,sm,2024.2.4,59.96631092567576,2025-07-02 19h14.11.716432 +0200,
32,0,32,,,,,,space,2.5739638000013656,None,None,2,1.0392531000034069,0.27628700000059325,None,0,0,0,0,,,,,1,0,1,0,,,,,32,0,32,0,845.658971900004,,,,,,,,,,,,,,,,,,,,,,,,,,,,,,,,,,,,,,,,,,,,,,,,,,,,,,,,,Gruppe,2.3527,845.6441712000014,845.6449386000022,845.6450435000006,845.658971900004,848.0255593999973,848.0097481999983,848.0131579000008,848.0255593999973,848.0255593999973,848.0255593999973,848.0255593999973,850.0255211999975,850.0255211999975,850.0255211999975,850.0255211999975,850.0106814000028,2,1.0392531000034069,0.27628700000059325,None,,,,,,,,,,,,,,,,,,,,,,1167,1,2025-07-02_19h13.56.366,sm,2024.2.4,59.96631092567576,2025-07-02 19h14.11.716432 +0200,
33,0,33,,,,,,space,2.5739638000013656,None,None,2,1.470053299999563,None,None,0,0,0,0,,,,,1,0,1,0,,,,,33,0,33,0,850.0255211999975,,,,,,,,,,,,,,,,,,,,,,,,,,,,,,,,,,,,,,,,,,,,,,,,,,,,,,,,,Nebel,2.9493,850.011198799999,850.0117095000023,850.0118160999991,850.0255211999975,852.9756195000009,852.9597341999979,852.9638449999984,852.9756195000009,852.9756195000009,852.9756195000009,852.9756195000009,854.9752918000013,854.9752918000013,854.9752918000013,854.9752918000013,854.9596582000013,2,1.470053299999563,None,None,,,,,,,,,,,,,,,,,,,,,,1167,1,2025-07-02_19h13.56.366,sm,2024.2.4,59.96631092567576,2025-07-02 19h14.11.716432 +0200,
34,0,34,,,,,,space,2.5739638000013656,None,None,3,1.056636499997694,0.24737699999968754,None,0,0,0,0,,,,,1,0,1,0,,,,,34,0,34,0,854.9752918000013,,,,,,,,,,,,,,,,,,,,,,,,,,,,,,,,,,,,,,,,,,,,,,,,,,,,,,,,,Klippe,2.5898,854.9600682000018,854.9605642000024,854.9606509000005,854.9752918000013,857.5750761000018,857.559431499998,857.5657457999987,857.5750761000018,857.5750761000018,857.5750761000018,857.5750761000018,859.5750371000031,859.5750371000031,859.5750371000031,859.5750371000031,859.5595067000031,3,1.056636499997694,0.24737699999968754,None,,,,,,,,,,,,,,,,,,,,,,1167,1,2025-07-02_19h13.56.366,sm,2024.2.4,59.96631092567576,2025-07-02 19h14.11.716432 +0200,
35,0,35,,,,,,space,2.5739638000013656,None,None,2,1.1601709999958985,0.25090240000281483,None,0,0,0,0,,,,,1,0,1,0,,,,,35,0,35,0,859.5750371000031,,,,,,,,,,,,,,,,,,,,,,,,,,,,,,,,,,,,,,,,,,,,,,,,,,,,,,,,,Gelenk,2.3814,859.5600056999974,859.5605079000015,859.5606177000009,859.5750371000031,861.9581380000018,861.9426059000034,861.9468469999993,861.9581380000018,861.9581380000018,861.9581380000018,861.9581380000018,863.958295299999,863.958295299999,863.958295299999,863.958295299999,863.9425575999994,2,1.1601709999958985,0.25090240000281483,None,,,,,,,,,,,,,,,,,,,,,,1167,1,2025-07-02_19h13.56.366,sm,2024.2.4,59.96631092567576,2025-07-02 19h14.11.716432 +0200,
36,0,36,,,,,,space,2.5739638000013656,None,None,3,1.4391937000036705,0.23089489999983925,None,0,0,0,0,,,,,1,0,1,0,,,,,36,0,36,0,863.958295299999,,,,,,,,,,,,,,,,,,,,,,,,,,,,,,,,,,,,,,,,,,,,,,,,,,,,,,,,,Schwarz,3.2921,863.9430769000028,863.9435836999983,863.9436883000017,863.958295299999,867.2576554000043,867.2423079,867.2460876999976,867.2576554000043,867.2576554000043,867.2576554000043,867.2576554000043,869.2581006000037,869.2581006000037,869.2581006000037,869.2581006000037,869.2424921999991,3,1.4391937000036705,0.23089489999983925,None,,,,,,,,,,,,,,,,,,,,,,1167,1,2025-07-02_19h13.56.366,sm,2024.2.4,59.96631092567576,2025-07-02 19h14.11.716432 +0200,
37,0,37,,,,,,space,2.5739638000013656,None,None,2,1.8068924999970477,None,None,0,0,0,0,,,,,1,0,1,0,,,,,37,0,37,0,869.2581006000037,,,,,,,,,,,,,,,,,,,,,,,,,,,,,,,,,,,,,,,,,,,,,,,,,,,,,,,,,Zähne,3.0154,869.2430176999987,869.2437118000016,869.2438271999999,869.2581006000037,872.2739197999981,872.2587429999985,872.2622300000003,872.2739197999981,872.2739197999981,872.2739197999981,872.2739197999981,874.2746337999997,874.2746337999997,874.2746337999997,874.2746337999997,874.2586520999976,2,1.8068924999970477,None,None,,,,,,,,,,,,,,,,,,,,,,1167,1,2025-07-02_19h13.56.366,sm,2024.2.4,59.96631092567576,2025-07-02 19h14.11.716432 +0200,
38,0,38,,,,,,space,2.5739638000013656,None,None,3,1.0416232999996282,0.23192389999894658,None,0,0,0,0,,,,,1,0,1,0,,,,,38,0,38,0,874.2746337999997,,,,,,,,,,,,,,,,,,,,,,,,,,,,,,,,,,,,,,,,,,,,,,,,,,,,,,,,,Spaghetti,2.8383,874.2591666000008,874.259844799999,874.259954000001,874.2746337999997,877.1256998000026,877.1083975000001,877.1126674000043,877.1256998000026,877.1256998000026,877.1256998000026,877.1256998000026,,,,,879.1242475000035,3,1.0416232999996282,0.23192389999894658,None,,,,,,,,,,,,,,,,,,,,,,1167,1,2025-07-02_19h13.56.366,sm,2024.2.4,59.96631092567576,2025-07-02 19h14.11.716432 +0200,
39,0,39,,,,,,space,2.5739638000013656,None,None,2,1.3734286000035354,0.2113887999948929,None,0,0,0,0,,,,,1,0,1,0,,,,,39,0,39,0,879.140711,,,,,,,,,,,,,,,,,,,,,,,,,,,,,,,,,,,,,,,,,,,,,,,,,,,,,,,,,Safari,2.579,879.1247613000014,879.1254215000008,879.1255363000018,879.140711,881.7242710999999,881.7083151999977,881.7124355999986,881.7242710999999,881.7242710999999,881.7242710999999,881.7242710999999,883.7236749000003,883.7236749000003,883.7236749000003,883.7236749000003,883.7083879999991,2,1.3734286000035354,0.2113887999948929,None,,,,,,,,,,,,,,,,,,,,,,1167,1,2025-07-02_19h13.56.366,sm,2024.2.4,59.96631092567576,2025-07-02 19h14.11.716432 +0200,
40,0,40,,,,,,space,2.5739638000013656,None,None,3,1.0027625000002445,0.25230329999612877,None,0,0,0,0,,,,,1,0,1,0,,,,,40,0,40,0,883.7236749000003,,,,,,,,,,,,,,,,,,,,,,,,,,,,,,,,,,,,,,,,,,,,,,,,,,,,,,,,,Zucker,3.0207,883.7089291000011,883.7095889999982,883.7096994000021,883.7236749000003,886.7568897000019,886.7409045000022,886.7444376999993,886.7568897000019,886.7568897000019,886.7568897000019,886.7568897000019,888.756602100002,888.756602100002,888.756602100002,888.756602100002,888.7409409000029,3,1.0027625000002445,0.25230329999612877,None,,,,,,,,,,,,,,,,,,,,,,1167,1,2025-07-02_19h13.56.366,sm,2024.2.4,59.96631092567576,2025-07-02 19h14.11.716432 +0200,
41,0,41,,,,,,space,2.5739638000013656,None,None,2,0.928608100002748,0.2593228999976418,None,0,0,0,0,,,,,1,0,1,0,,,,,41,0,41,0,888.756602100002,,,,,,,,,,,,,,,,,,,,,,,,,,,,,,,,,,,,,,,,,,,,,,,,,,,,,,,,,Fledermaus,3.5791,888.7414647999976,888.7419698000012,888.7420796000006,888.756602100002,892.340143100002,892.3239582000024,892.3288031999982,892.340143100002,892.340143100002,892.340143100002,892.340143100002,894.3397182000044,894.3397182000044,894.3397182000044,894.3397182000044,894.324220100003,2,0.928608100002748,0.2593228999976418,None,,,,,,,,,,,,,,,,,,,,,,1167,1,2025-07-02_19h13.56.366,sm,2024.2.4,59.96631092567576,2025-07-02 19h14.11.716432 +0200,
42,0,42,,,,,,space,2.5739638000013656,None,None,3,0.8524249999973108,0.24111899999843445,None,0,0,0,0,,,,,1,0,1,0,,,,,42,0,42,0,894.3397182000044,,,,,,,,,,,,,,,,,,,,,,,,,,,,,,,,,,,,,,,,,,,,,,,,,,,,,,,,,Wein,2.3874,894.3247413999998,894.3252570000041,894.3253681999995,894.3397182000044,896.7393930000035,896.7239415000004,896.727495799998,896.7393930000035,896.7393930000035,896.7393930000035,896.7393930000035,898.7394887999981,898.7394887999981,898.7394887999981,898.7394887999981,898.7238533999989,3,0.8524249999973108,0.24111899999843445,None,,,,,,,,,,,,,,,,,,,,,,1167,1,2025-07-02_19h13.56.366,sm,2024.2.4,59.96631092567576,2025-07-02 19h14.11.716432 +0200,
43,0,43,,,,,,space,2.5739638000013656,None,None,3,1.0019009000025108,0.2572617999976501,None,0,0,0,0,,,,,1,0,1,0,,,,,43,0,43,0,898.7394887999981,,,,,,,,,,,,,,,,,,,,,,,,,,,,,,,,,,,,,,,,,,,,,,,,,,,,,,,,,Tür,4.0003,898.7243452999974,898.7248399000018,898.7249435999984,898.7394887999981,902.7392257000029,902.7235720000026,902.7272282999984,902.7392257000029,902.7392257000029,902.7392257000029,902.7392257000029,904.7391848000043,904.7391848000043,904.7391848000043,904.7391848000043,904.7235772999993,3,1.0019009000025108,0.2572617999976501,None,,,,,,,,,,,,,,,,,,,,,,1167,1,2025-07-02_19h13.56.366,sm,2024.2.4,59.96631092567576,2025-07-02 19h14.11.716432 +0200,
44,0,44,,,,,,space,2.5739638000013656,None,None,2,1.643459899998561,0.2160680000015418,None,0,0,0,0,,,,,1,0,1,0,,,,,44,0,44,0,904.7391848000043,,,,,,,,,,,,,,,,,,,,,,,,,,,,,,,,,,,,,,,,,,,,,,,,,,,,,,,,,Weihnachten,4.2986,904.7240909000029,904.7247427000038,904.7248489999984,904.7391848000043,909.0387802999976,909.0238881999976,909.0284236000007,909.0387802999976,909.0387802999976,909.0387802999976,909.0387802999976,911.0386608000044,911.0386608000044,911.0386608000044,911.0386608000044,911.0232536999974,2,1.643459899998561,0.2160680000015418,None,,,,,,,,,,,,,,,,,,,,,,1167,1,2025-07-02_19h13.56.366,sm,2024.2.4,59.96631092567576,2025-07-02 19h14.11.716432 +0200,
45,0,45,,,,,,space,2.5739638000013656,None,None,2,1.6344700000045123,0.27046429999609245,None,0,0,0,0,,,,,1,0,1,0,,,,,45,0,45,0,911.0386608000044,,,,,,,,,,,,,,,,,,,,,,,,,,,,,,,,,,,,,,,,,,,,,,,,,,,,,,,,,Wahrheit,3.4411,911.0237781000033,911.0243421999985,911.0244533000005,911.0386608000044,914.4882909000007,914.4727667999978,914.4765924000021,914.4882909000007,914.4882909000007,914.4882909000007,914.4882909000007,916.4886875000011,916.4886875000011,916.4886875000011,916.4886875000011,916.4728490999987,2,1.6344700000045123,0.27046429999609245,None,,,,,,,,,,,,,,,,,,,,,,1167,1,2025-07-02_19h13.56.366,sm,2024.2.4,59.96631092567576,2025-07-02 19h14.11.716432 +0200,
46,0,46,,,,,,space,2.5739638000013656,None,None,2,1.4439372000051662,0.24690949999785516,None,0,0,0,0,,,,,1,0,1,0,,,,,46,0,46,0,916.4886875000011,,,,,,,,,,,,,,,,,,,,,,,,,,,,,,,,,,,,,,,,,,,,,,,,,,,,,,,,,Nachricht,3.1867,916.4733711000008,916.4738795000012,916.4739866000018,916.4886875000011,919.6882102000018,919.6726779000019,919.6769290000011,919.6882102000018,919.6882102000018,919.6882102000018,919.6882102000018,921.6882885000014,921.6882885000014,921.6882885000014,921.6882885000014,921.6725510000033,2,1.4439372000051662,0.24690949999785516,None,,,,,,,,,,,,,,,,,,,,,,1167,1,2025-07-02_19h13.56.366,sm,2024.2.4,59.96631092567576,2025-07-02 19h14.11.716432 +0200,
47,0,47,,,,,,space,2.5739638000013656,None,None,3,1.034120800002711,0.2560334000008879,None,0,0,0,0,,,,,1,0,1,0,,,,,47,0,47,0,921.6882885000014,,,,,,,,,,,,,,,,,,,,,,,,,,,,,,,,,,,,,,,,,,,,,,,,,,,,,,,,,Sitzgurt,2.0205,921.6730649000019,921.6737252000021,921.6738373000044,921.6882885000014,923.7210814999999,923.705801600001,923.7095403999992,923.7210814999999,923.7210814999999,923.7210814999999,923.7210814999999,925.7213215000011,925.7213215000011,925.7213215000011,925.7213215000011,925.7058458000029,3,1.034120800002711,0.2560334000008879,None,,,,,,,,,,,,,,,,,,,,,,1167,1,2025-07-02_19h13.56.366,sm,2024.2.4,59.96631092567576,2025-07-02 19h14.11.716432 +0200,
48,0,48,,,,,,space,2.5739638000013656,None,None,3,0.9120257000031415,0.24970529999700375,None,0,0,0,0,,,,,1,0,1,0,,,,,48,0,48,0,925.7213215000011,,,,,,,,,,,,,,,,,,,,,,,,,,,,,,,,,,,,,,,,,,,,,,,,,,,,,,,,,Karton,3.9327,925.7063609000033,925.7069892,925.7070997999981,925.7213215000011,929.654246500002,929.6388336000018,929.6439976999973,929.654246500002,929.654246500002,929.654246500002,929.654246500002,931.6543191000019,931.6543191000019,931.6543191000019,931.6543191000019,931.6387718000042,3,0.9120257000031415,0.24970529999700375,None,,,,,,,,,,,,,,,,,,,,,,1167,1,2025-07-02_19h13.56.366,sm,2024.2.4,59.96631092567576,2025-07-02 19h14.11.716432 +0200,
49,0,49,,,,,,space,2.5739638000013656,None,None,3,1.2385948000010103,0.291049400002521,None,0,0,0,0,,,,,1,0,1,0,,,,,49,0,49,0,931.6543191000019,,,,,,,,,,,,,,,,,,,,,,,,,,,,,,,,,,,,,,,,,,,,,,,,,,,,,,,,,Trocken,2.0202,931.6392915000033,931.6398076999976,931.6399219000014,931.6543191000019,933.6873988000007,933.6716349999988,933.6750860000029,933.6873988000007,933.6873988000007,933.6873988000007,933.6873988000007,935.6875078000012,935.6875078000012,935.6875078000012,935.6875078000012,935.6717248999994,3,1.2385948000010103,0.291049400002521,None,,,,,,,,,,,,,,,,,,,,,,1167,1,2025-07-02_19h13.56.366,sm,2024.2.4,59.96631092567576,2025-07-02 19h14.11.716432 +0200,
50,0,50,,,,,,space,2.5739638000013656,None,None,3,1.390738699999929,0.2617067000028328,None,0,0,0,0,,,,,1,0,1,0,,,,,50,0,50,0,935.6875078000012,,,,,,,,,,,,,,,,,,,,,,,,,,,,,,,,,,,,,,,,,,,,,,,,,,,,,,,,,Brise,2.0007,935.6722531999985,935.6727828000003,935.6728952999983,935.6875078000012,937.6872989999974,937.6717589000036,937.6756773000016,937.6872989999974,937.6872989999974,937.6872989999974,937.6872989999974,939.687208000003,939.687208000003,939.687208000003,939.687208000003,939.671554200002,3,1.390738699999929,0.2617067000028328,None,,,,,,,,,,,,,,,,,,,,,,1167,1,2025-07-02_19h13.56.366,sm,2024.2.4,59.96631092567576,2025-07-02 19h14.11.716432 +0200,
51,0,51,,,,,,space,2.5739638000013656,None,None,3,0.9429839000003994,0.2901385000004666,None,0,0,0,0,,,,,1,0,1,0,,,,,51,0,51,0,939.687208000003,,,,,,,,,,,,,,,,,,,,,,,,,,,,,,,,,,,,,,,,,,,,,,,,,,,,,,,,,Tasche,5.4638,939.672070200002,939.6725885999986,939.6726954999976,939.687208000003,945.1535371999998,945.1378983000031,945.1421401000043,945.1535371999998,945.1535371999998,945.1535371999998,945.1535371999998,947.1536257000043,947.1536257000043,947.1536257000043,947.1536257000043,947.1378836000004,3,0.9429839000003994,0.2901385000004666,None,,,,,,,,,,,,,,,,,,,,,,1167,1,2025-07-02_19h13.56.366,sm,2024.2.4,59.96631092567576,2025-07-02 19h14.11.716432 +0200,
52,0,52,,,,,,space,2.5739638000013656,None,None,3,1.203207200000179,0.2709192000038456,None,0,0,0,0,,,,,1,0,1,0,,,,,52,0,52,0,947.1536257000043,,,,,,,,,,,,,,,,,,,,,,,,,,,,,,,,,,,,,,,,,,,,,,,,,,,,,,,,,Spülung,2.1293,947.1384078999981,947.1389337,947.1390436000002,947.1536257000043,949.286652499999,949.2731471000006,949.2773424000043,949.286652499999,949.286652499999,949.286652499999,949.286652499999,951.2865710000042,951.2865710000042,951.2865710000042,951.2865710000042,951.2710029000009,3,1.203207200000179,0.2709192000038456,None,,,,,,,,,,,,,,,,,,,,,,1167,1,2025-07-02_19h13.56.366,sm,2024.2.4,59.96631092567576,2025-07-02 19h14.11.716432 +0200,
53,0,53,,,,,,space,2.5739638000013656,None,None,2,1.740282999999181,None,None,0,0,0,0,,,,,1,0,1,0,,,,,53,0,53,0,951.2865710000042,,,,,,,,,,,,,,,,,,,,,,,,,,,,,,,,,,,,,,,,,,,,,,,,,,,,,,,,,Anführer,2.298,951.2715241999977,951.2720531000014,951.2721582000013,951.2865710000042,953.5863454999999,953.5709429999988,953.575196800004,953.5863454999999,953.5863454999999,953.5863454999999,953.5863454999999,955.5864157000033,955.5864157000033,955.5864157000033,955.5864157000033,955.5710404999991,2,1.740282999999181,None,None,,,,,,,,,,,,,,,,,,,,,,1167,1,2025-07-02_19h13.56.366,sm,2024.2.4,59.96631092567576,2025-07-02 19h14.11.716432 +0200,
54,0,54,,,,,,space,2.5739638000013656,None,None,3,1.0762455000003683,0.25830300000234274,None,0,0,0,0,,,,,1,0,1,0,,,,,54,0,54,0,955.5864157000033,,,,,,,,,,,,,,,,,,,,,,,,,,,,,,,,,,,,,,,,,,,,,,,,,,,,,,,,,Sauber,2.1609,955.5715513000032,955.5720800999989,955.5721869000045,955.5864157000033,957.7527865000011,957.7368228999985,957.7403688999984,957.7527865000011,957.7527865000011,957.7527865000011,957.7527865000011,959.7526845000029,959.7526845000029,959.7526845000029,959.7526845000029,959.7374352999977,3,1.0762455000003683,0.25830300000234274,None,,,,,,,,,,,,,,,,,,,,,,1167,1,2025-07-02_19h13.56.366,sm,2024.2.4,59.96631092567576,2025-07-02 19h14.11.716432 +0200,
55,0,55,,,,,,space,2.5739638000013656,None,None,3,1.02783969999291,0.21680580000247573,None,0,0,0,0,,,,,1,0,1,0,,,,,55,0,55,0,959.7526845000029,,,,,,,,,,,,,,,,,,,,,,,,,,,,,,,,,,,,,,,,,,,,,,,,,,,,,,,,,Rock,3.5332,959.7379433000024,959.7387699000028,959.7388782999988,959.7526845000029,963.286371000002,963.2698758999977,963.2734684000025,963.286371000002,963.286371000002,963.286371000002,963.286371000002,965.2858897999977,965.2858897999977,965.2858897999977,965.2858897999977,965.2700293000016,3,1.02783969999291,0.21680580000247573,None,,,,,,,,,,,,,,,,,,,,,,1167,1,2025-07-02_19h13.56.366,sm,2024.2.4,59.96631092567576,2025-07-02 19h14.11.716432 +0200,
56,0,56,,,,,,space,2.5739638000013656,None,None,3,1.4597913999969023,0.23997319999762112,None,0,0,0,0,,,,,1,0,1,0,,,,,56,0,56,0,965.2858897999977,,,,,,,,,,,,,,,,,,,,,,,,,,,,,,,,,,,,,,,,,,,,,,,,,,,,,,,,,Mäher,4.3241,965.2705499000003,965.2710645000043,965.2711701000007,965.2858897999977,969.6185754000035,969.6031629999998,969.6068795000028,969.6185754000035,969.6185754000035,969.6185754000035,969.6185754000035,971.6187972000043,971.6187972000043,971.6187972000043,971.6187972000043,971.6031975000005,3,1.4597913999969023,0.23997319999762112,None,,,,,,,,,,,,,,,,,,,,,,1167,1,2025-07-02_19h13.56.366,sm,2024.2.4,59.96631092567576,2025-07-02 19h14.11.716432 +0200,
57,0,57,,,,,,space,2.5739638000013656,None,None,3,0.9501411000019289,0.23519259999739006,None,0,0,0,0,,,,,1,0,1,0,,,,,57,0,57,0,971.6187972000043,,,,,,,,,,,,,,,,,,,,,,,,,,,,,,,,,,,,,,,,,,,,,,,,,,,,,,,,,Album,4.32,971.6036536000029,971.6042778999981,971.6043726999997,971.6187972000043,975.9524856999997,975.9359283000013,975.9392446999991,975.9524856999997,975.9524856999997,975.9524856999997,975.9524856999997,977.9517896000034,977.9517896000034,977.9517896000034,977.9517896000034,977.9362833999985,3,0.9501411000019289,0.23519259999739006,None,,,,,,,,,,,,,,,,,,,,,,1167,1,2025-07-02_19h13.56.366,sm,2024.2.4,59.96631092567576,2025-07-02 19h14.11.716432 +0200,
58,0,58,,,,,,space,2.5739638000013656,None,None,3,1.000916299999517,0.2311587000003783,None,0,0,0,0,,,,,1,0,1,0,,,,,58,0,58,0,977.9517896000034,,,,,,,,,,,,,,,,,,,,,,,,,,,,,,,,,,,,,,,,,,,,,,,,,,,,,,,,,Fahrrad,2.0035,977.9367945999984,977.9374857000003,977.9375950000031,977.9517896000034,979.9680590999997,979.9523543000032,979.9557997000011,979.9680590999997,979.9680590999997,979.9680590999997,979.9680590999997,981.9683052000037,981.9683052000037,981.9683052000037,981.9683052000037,981.9525319000022,3,1.000916299999517,0.2311587000003783,None,,,,,,,,,,,,,,,,,,,,,,1167,1,2025-07-02_19h13.56.366,sm,2024.2.4,59.96631092567576,2025-07-02 19h14.11.716432 +0200,
59,0,59,,,,,,space,2.5739638000013656,None,None,2,0.8014923999944585,0.21145630000683013,None,0,0,0,0,,,,,1,0,1,0,,,,,59,0,59,0,981.9683052000037,,,,,,,,,,,,,,,,,,,,,,,,,,,,,,,,,,,,,,,,,,,,,,,,,,,,,,,,,Augen,2.2843,981.9530565000023,981.953568900004,981.953714700001,981.9683052000037,984.2678251000034,984.2523843000017,984.2563397999984,984.2678251000034,984.2678251000034,984.2678251000034,984.2678251000034,986.2681719000029,986.2681719000029,986.2681719000029,986.2681719000029,986.2522475000005,2,0.8014923999944585,0.21145630000683013,None,,,,,,,,,,,,,,,,,,,,,,1167,1,2025-07-02_19h13.56.366,sm,2024.2.4,59.96631092567576,2025-07-02 19h14.11.716432 +0200,
60,0,60,,,,,,space,2.5739638000013656,None,None,2,0.8277063999994425,0.2536723000011989,None,0,0,0,0,,,,,1,0,1,0,,,,,60,0,60,0,986.2681719000029,,,,,,,,,,,,,,,,,,,,,,,,,,,,,,,,,,,,,,,,,,,,,,,,,,,,,,,,,Schwester,3.1315,986.2527687999973,986.2532837000035,986.2533909999984,986.2681719000029,989.4012915999992,989.385022800001,989.3880314999988,989.4012915999992,989.4012915999992,989.4012915999992,989.4012915999992,991.4008278000038,991.4008278000038,991.4008278000038,991.4008278000038,991.3849986999994,2,0.8277063999994425,0.2536723000011989,None,,,,,,,,,,,,,,,,,,,,,,1167,1,2025-07-02_19h13.56.366,sm,2024.2.4,59.96631092567576,2025-07-02 19h14.11.716432 +0200,
61,0,61,,,,,,space,2.5739638000013656,None,None,3,0.8145451999953366,0.22551250000105938,None,0,0,0,0,,,,,1,0,1,0,,,,,61,0,61,0,991.4008278000038,,,,,,,,,,,,,,,,,,,,,,,,,,,,,,,,,,,,,,,,,,,,,,,,,,,,,,,,,Gel,2.0388,991.3854540000029,991.3859291999979,991.3860220999995,991.4008278000038,993.4506408000016,993.4351977999977,993.4387672000012,993.4506408000016,993.4506408000016,993.4506408000016,993.4506408000016,995.4509144999975,995.4509144999975,995.4509144999975,995.4509144999975,995.4352951000037,3,0.8145451999953366,0.22551250000105938,None,,,,,,,,,,,,,,,,,,,,,,1167,1,2025-07-02_19h13.56.366,sm,2024.2.4,59.96631092567576,2025-07-02 19h14.11.716432 +0200,
62,0,62,,,,,,space,2.5739638000013656,None,None,2,0.9320903000043472,0.24220249999780208,None,0,0,0,0,,,,,1,0,1,0,,,,,62,0,62,0,995.4509144999975,,,,,,,,,,,,,,,,,,,,,,,,,,,,,,,,,,,,,,,,,,,,,,,,,,,,,,,,,Spion,3.232,995.4358185000019,995.4363308000029,995.4364387000023,995.4509144999975,998.6838102999973,998.6680868999974,998.6725463999974,998.6838102999973,998.6838102999973,998.6838102999973,998.6838102999973,1000.6838025000034,1000.6838025000034,1000.6838025000034,1000.6838025000034,1000.668336499999,2,0.9320903000043472,0.24220249999780208,None,,,,,,,,,,,,,,,,,,,,,,1167,1,2025-07-02_19h13.56.366,sm,2024.2.4,59.96631092567576,2025-07-02 19h14.11.716432 +0200,
