thisN,thisTrialN,thisRepN,Cue,Target,Mediator1,Mediator2,iti,scanner_ready_press.keys,scanner_ready_press.rt,scanner_ready_press.duration,skip_trigger.keys,living_nonliving.keys,end_mapping.keys,living_nonliving.rt,living_nonliving.duration,blocks.thisRepN,blocks.thisTrialN,blocks.thisN,blocks.thisIndex,load_and_shuffle.thisRepN,load_and_shuffle.thisTrialN,load_and_shuffle.thisN,load_and_shuffle.thisIndex,runs.thisRepN,runs.thisTrialN,runs.thisN,runs.thisIndex,iti_loading_loop.thisRepN,iti_loading_loop.thisTrialN,iti_loading_loop.thisN,iti_loading_loop.thisIndex,semantic_mapping_run.thisRepN,semantic_mapping_run.thisTrialN,semantic_mapping_run.thisN,semantic_mapping_run.thisIndex,thisRow.t,notes,welcome.started,welcome_text.started,key_resp__welcome.started,welcome.stopped,key_resp__welcome.keys,key_resp__welcome.rt,key_resp__welcome.duration,scout.started,scout_text.started,key_resp.started,scout.stopped,key_resp.keys,key_resp.rt,key_resp.duration,instructions_semantic_mapping1.started,sm_instructions1_text.started,sm_instructions1_key.started,instructions_semantic_mapping1.stopped,sm_instructions1_key.keys,sm_instructions1_key.rt,sm_instructions1_key.duration,instructions_semantic_mapping2.started,sm_instructions2_text.started,sm_instructions2_key.started,instructions_semantic_mapping2.stopped,sm_instructions2_key.keys,sm_instructions2_key.rt,sm_instructions2_key.duration,reset_run.started,reset_run.stopped,shuffle_items.started,shuffle_items.stopped,set_up_runs.started,set_up_runs.stopped,load_iti.started,load_iti.stopped,prep_scanner.started,scanner_ready_press.started,ready_set_text.started,prep_scanner.stopped,runs.scanner_ready_press.keys,runs.scanner_ready_press.rt,runs.scanner_ready_press.duration,wait_for_trigger.started,starting_soon.started,skip_trigger.started,wait_for_trigger.stopped,runs.skip_trigger.keys,blank.started,begin_end_run_cross.started,sound_1.started,sound_1.stopped,sound_2.started,sound_2.stopped,blank.stopped,CurrentItem,CurrentITI,set_up_trial.started,set_up_trial.stopped,sm_iti.started,iti_cross.started,iti_cross.stopped,sm_iti.stopped,item.started,living_nonliving.started,end_mapping.started,living_nonliving_text.started,semantic_map_item.started,living_nonliving.stopped,end_mapping.stopped,living_nonliving_text.stopped,semantic_map_item.stopped,item.stopped,semantic_mapping_run.living_nonliving.keys,semantic_mapping_run.end_mapping.keys,semantic_mapping_run.living_nonliving.rt,semantic_mapping_run.living_nonliving.duration,fieldmap.started,fieldmap.stopped,runs.fm_key.keys,task_break.started,feeback_text.started,task_break_text.started,task_break_resp.started,feeback_text.stopped,task_break.stopped,runs.task_break_resp.keys,runs.task_break_resp.rt,runs.task_break_resp.duration,begin_end_run_cross.stopped,fm_text.started,fm_key.started,runs.fm_key.rt,runs.fm_key.duration,thanks.started,thanks_text.started,thanks_text.stopped,thanks.stopped,PID,MRI,date,expName,psychopyVersion,frameRate,expStart,
,,,,,,,,,,,,,,,,,,,,,,,,,,,,,,,,,,,,,,0.0035352000004422734,0.0162239999999656,0.0162239999999656,61.22146679999969,space,61.19277809999949,None,,,,,,,,,,,,,,,,,,,,,,,,,,,,,,,,,,,,,,,,,,,,,,,,,,,,,,,,,,,,,,,,,,,,,,,,,,,,,,,,,,,,,,,,,,,,8752,1,2025-06-25_19h05.37.345,sm,2024.2.4,59.97375548450806,2025-06-25 19h05.45.898143 +0200,
,,,,,,,,,,,,,,,,,,,,,,,,,,,,,,,,,,,,,,,,,,,,,61.221588899999915,61.23059420000027,61.23059420000027,161.8761783,space,100.63297430000057,None,,,,,,,,,,,,,,,,,,,,,,,,,,,,,,,,,,,,,,,,,,,,,,,,,,,,,,,,,,,,,,,,,,,,,,,,,,,,,,,,,,,,,8752,1,2025-06-25_19h05.37.345,sm,2024.2.4,59.97375548450806,2025-06-25 19h05.45.898143 +0200,
,,,,,,,,,,,,,,,,,,,,,,,,,,,,,,,,,,,,,,,,,,,,,,,,,,,,161.8763097000001,161.89079680000032,161.89079680000032,170.10684540000057,2,8.213534299999992,None,,,,,,,,,,,,,,,,,,,,,,,,,,,,,,,,,,,,,,,,,,,,,,,,,,,,,,,,,,,,,,,,,,,,,,,,,,,,,,8752,1,2025-06-25_19h05.37.345,sm,2024.2.4,59.97375548450806,2025-06-25 19h05.45.898143 +0200,
,,,,,,,,,,,,,,,,,,,,,,,,,,,,,,,,,,,,,,,,,,,,,,,,,,,,,,,,,,,170.10696050000024,170.1220433999997,170.1220433999997,182.42288840000037,2,12.289900400000079,None,,,,,,,,,,,,,,,,,,,,,,,,,,,,,,,,,,,,,,,,,,,,,,,,,,,,,,,,,,,,,,,,,,,,,,,8752,1,2025-06-25_19h05.37.345,sm,2024.2.4,59.97375548450806,2025-06-25 19h05.45.898143 +0200,
0,0,0,Vampir,Monster,Blut,Fledermaus,2.3253,space,2.3801977000002807,None,None,None,None,,,0,0,0,0,0,79,79,74,0,0,0,0,0,79,79,7,0,0,0,0,243.7193397000001,,,,,,,,,,,,,,,,,,,,,,,,,,,,,,182.42379059999985,182.4245923999997,182.49336310000035,182.49363129999983,182.49810460000026,182.4983855999999,182.5288440000004,182.5290369000004,182.53565499999968,182.53958609999972,182.53958609999972,184.92272839999987,space,2.3801977000002807,None,184.92288110000027,184.9397583,184.9397583,231.6884187000005,None,231.69725610000023,231.70619700000043,231.7037971666671,232.90340790000027,241.70321276666644,242.70428040000024,243.70307830000002,Feier,2.3253,243.7045005,243.7051908000003,243.7084789999999,243.7193397000001,246.05233880000014,246.0369412,246.04273590000048,246.05233880000014,246.05233880000014,246.05233880000014,246.05233880000014,248.05256310000004,248.05256310000004,248.05256310000004,248.05256310000004,248.03695590000007,None,None,,,,,,,,,,,,,,,,,,,,,,,,8752,1,2025-06-25_19h05.37.345,sm,2024.2.4,59.97375548450806,2025-06-25 19h05.45.898143 +0200,
1,0,1,,,,,,space,2.3801977000002807,None,None,2,None,0.945095200000651,0.2961427999998705,0,0,0,0,,,,,0,0,0,0,,,,,1,0,1,0,248.05256310000004,,,,,,,,,,,,,,,,,,,,,,,,,,,,,,,,,,,,,,,,,,,,,,,,,,,,,,,,,Löwe,2.3409,248.03743219999978,248.03800909999973,248.03811589999987,248.05256310000004,250.40258950000043,250.38680290000048,250.3914563999997,250.40258950000043,250.40258950000043,250.40258950000043,250.40258950000043,252.40246560000014,252.40246560000014,252.40246560000014,252.40246560000014,252.38700750000044,2,None,0.945095200000651,0.2961427999998705,,,,,,,,,,,,,,,,,,,,,,8752,1,2025-06-25_19h05.37.345,sm,2024.2.4,59.97375548450806,2025-06-25 19h05.45.898143 +0200,
2,0,2,,,,,,space,2.3801977000002807,None,None,2,None,0.7413140999997267,0.35999489999994694,0,0,0,0,,,,,0,0,0,0,,,,,2,0,2,0,252.40246560000014,,,,,,,,,,,,,,,,,,,,,,,,,,,,,,,,,,,,,,,,,,,,,,,,,,,,,,,,,Bruder,4.2007,252.38751890000003,252.3880353000004,252.38814340000044,252.40246560000014,256.61863110000013,256.60293900000033,256.60628989999987,256.61863110000013,256.61863110000013,256.61863110000013,256.61863110000013,258.61855430000014,258.61855430000014,258.61855430000014,258.61855430000014,258.6033760999999,2,None,0.7413140999997267,0.35999489999994694,,,,,,,,,,,,,,,,,,,,,,8752,1,2025-06-25_19h05.37.345,sm,2024.2.4,59.97375548450806,2025-06-25 19h05.45.898143 +0200,
3,0,3,,,,,,space,2.3801977000002807,None,None,2,None,1.1846712999995361,0.3061500000003434,0,0,0,0,,,,,0,0,0,0,,,,,3,0,3,0,258.61855430000014,,,,,,,,,,,,,,,,,,,,,,,,,,,,,,,,,,,,,,,,,,,,,,,,,,,,,,,,,Schleim,3.627,258.60388280000006,258.60446820000016,258.6045761000005,258.61855430000014,262.25140980000015,262.23603600000024,262.23945449999974,262.25140980000015,262.25140980000015,262.25140980000015,262.25140980000015,264.2515684,264.2515684,264.2515684,264.2515684,264.23613470000055,2,None,1.1846712999995361,0.3061500000003434,,,,,,,,,,,,,,,,,,,,,,8752,1,2025-06-25_19h05.37.345,sm,2024.2.4,59.97375548450806,2025-06-25 19h05.45.898143 +0200,
4,0,4,,,,,,space,2.3801977000002807,None,None,2,None,0.7040473999995811,0.2942609000001539,0,0,0,0,,,,,0,0,0,0,,,,,4,0,4,0,264.2515684,,,,,,,,,,,,,,,,,,,,,,,,,,,,,,,,,,,,,,,,,,,,,,,,,,,,,,,,,Publikum,3.3562,264.23664720000033,264.2371567,264.23727000000054,264.2515684,267.6176746000001,267.6024118000005,267.6084216999998,267.6176746000001,267.6176746000001,267.6176746000001,267.6176746000001,269.6180108999997,269.6180108999997,269.6180108999997,269.6180108999997,269.60243309999987,2,None,0.7040473999995811,0.2942609000001539,,,,,,,,,,,,,,,,,,,,,,8752,1,2025-06-25_19h05.37.345,sm,2024.2.4,59.97375548450806,2025-06-25 19h05.45.898143 +0200,
5,0,5,,,,,,space,2.3801977000002807,None,None,2,None,0.8313251999998101,0.2991857999995773,0,0,0,0,,,,,0,0,0,0,,,,,5,0,5,0,269.6180108999997,,,,,,,,,,,,,,,,,,,,,,,,,,,,,,,,,,,,,,,,,,,,,,,,,,,,,,,,,Nachricht,2.6556,269.60294760000033,269.6034368999999,269.6035431,269.6180108999997,272.2847862999997,272.26871670000037,272.2727630999998,272.2847862999997,272.2847862999997,272.2847862999997,272.2847862999997,274.28439849999995,274.28439849999995,274.28439849999995,274.28439849999995,274.26871329999994,2,None,0.8313251999998101,0.2991857999995773,,,,,,,,,,,,,,,,,,,,,,8752,1,2025-06-25_19h05.37.345,sm,2024.2.4,59.97375548450806,2025-06-25 19h05.45.898143 +0200,
6,0,6,,,,,,space,2.3801977000002807,None,None,2,None,1.016764900000453,0.30853990000014164,0,0,0,0,,,,,0,0,0,0,,,,,6,0,6,0,274.28439849999995,,,,,,,,,,,,,,,,,,,,,,,,,,,,,,,,,,,,,,,,,,,,,,,,,,,,,,,,,Zeigen,2.184,274.26919590000034,274.2698360000004,274.26993760000005,274.28439849999995,276.46752019999985,276.4524032999998,276.4580329999999,276.46752019999985,276.46752019999985,276.46752019999985,276.46752019999985,278.4679493000003,278.4679493000003,278.4679493000003,278.4679493000003,278.4520586999997,2,None,1.016764900000453,0.30853990000014164,,,,,,,,,,,,,,,,,,,,,,8752,1,2025-06-25_19h05.37.345,sm,2024.2.4,59.97375548450806,2025-06-25 19h05.45.898143 +0200,
7,0,7,,,,,,space,2.3801977000002807,None,None,2,None,0.7664656000006289,0.32106799999928626,0,0,0,0,,,,,0,0,0,0,,,,,7,0,7,0,278.4679493000003,,,,,,,,,,,,,,,,,,,,,,,,,,,,,,,,,,,,,,,,,,,,,,,,,,,,,,,,,Film,2.1385,278.45256979999976,278.4530923000002,278.453211,278.4679493000003,280.61796400000003,280.6014686999997,280.60529790000055,280.61796400000003,280.61796400000003,280.61796400000003,280.61796400000003,282.61755919999996,282.61755919999996,282.61755919999996,282.61755919999996,282.60167790000014,2,None,0.7664656000006289,0.32106799999928626,,,,,,,,,,,,,,,,,,,,,,8752,1,2025-06-25_19h05.37.345,sm,2024.2.4,59.97375548450806,2025-06-25 19h05.45.898143 +0200,
8,0,8,,,,,,space,2.3801977000002807,None,None,2,None,0.783019499999682,0.32704850000027363,0,0,0,0,,,,,0,0,0,0,,,,,8,0,8,0,282.61755919999996,,,,,,,,,,,,,,,,,,,,,,,,,,,,,,,,,,,,,,,,,,,,,,,,,,,,,,,,,Weihnachten,2.0689,282.6021903999999,282.60270949999995,282.6028186000003,282.61755919999996,284.7019814000005,284.68483650000053,284.68887540000014,284.7019814000005,284.7019814000005,284.7019814000005,284.7019814000005,,,,,286.7008361999997,2,None,0.783019499999682,0.32704850000027363,,,,,,,,,,,,,,,,,,,,,,8752,1,2025-06-25_19h05.37.345,sm,2024.2.4,59.97375548450806,2025-06-25 19h05.45.898143 +0200,
9,0,9,,,,,,space,2.3801977000002807,None,None,2,None,0.7267162999996799,0.32785580000017944,0,0,0,0,,,,,0,0,0,0,,,,,9,0,9,0,286.7171030999998,,,,,,,,,,,,,,,,,,,,,,,,,,,,,,,,,,,,,,,,,,,,,,,,,,,,,,,,,Präsident,5.1098,286.7013533999998,286.7020207000005,286.7021371999999,286.7171030999998,291.8333182000006,291.8177373999997,291.82161540000016,291.8333182000006,291.8333182000006,291.8333182000006,291.8333182000006,293.83341519999976,293.83341519999976,293.83341519999976,293.83341519999976,293.8177086000005,2,None,0.7267162999996799,0.32785580000017944,,,,,,,,,,,,,,,,,,,,,,8752,1,2025-06-25_19h05.37.345,sm,2024.2.4,59.97375548450806,2025-06-25 19h05.45.898143 +0200,
10,0,10,,,,,,space,2.3801977000002807,None,None,2,None,1.2985453999999663,0.29116180000073655,0,0,0,0,,,,,0,0,0,0,,,,,10,0,10,0,293.83341519999976,,,,,,,,,,,,,,,,,,,,,,,,,,,,,,,,,,,,,,,,,,,,,,,,,,,,,,,,,Bus,2.1391,293.8182314000005,293.8187300999998,293.8188435000002,293.83341519999976,295.98298239999986,295.96733289999975,295.97054600000047,295.98298239999986,295.98298239999986,295.98298239999986,295.98298239999986,297.98310519999995,297.98310519999995,297.98310519999995,297.98310519999995,297.9676193000005,2,None,1.2985453999999663,0.29116180000073655,,,,,,,,,,,,,,,,,,,,,,8752,1,2025-06-25_19h05.37.345,sm,2024.2.4,59.97375548450806,2025-06-25 19h05.45.898143 +0200,
11,0,11,,,,,,space,2.3801977000002807,None,None,3,None,1.3546588999997766,0.4241963000004034,0,0,0,0,,,,,0,0,0,0,,,,,11,0,11,0,297.98310519999995,,,,,,,,,,,,,,,,,,,,,,,,,,,,,,,,,,,,,,,,,,,,,,,,,,,,,,,,,Tasche,2.2678,297.96813440000005,297.96865549999984,297.9687620000004,297.98310519999995,300.26613869999983,300.2505670999999,300.2543691000001,300.26613869999983,300.26613869999983,300.26613869999983,300.26613869999983,302.2660999999998,302.2660999999998,302.2660999999998,302.2660999999998,302.25047040000027,3,None,1.3546588999997766,0.4241963000004034,,,,,,,,,,,,,,,,,,,,,,8752,1,2025-06-25_19h05.37.345,sm,2024.2.4,59.97375548450806,2025-06-25 19h05.45.898143 +0200,
12,0,12,,,,,,space,2.3801977000002807,None,None,2,None,0.9483212999994066,0.30131770000025426,0,0,0,0,,,,,0,0,0,0,,,,,12,0,12,0,302.2660999999998,,,,,,,,,,,,,,,,,,,,,,,,,,,,,,,,,,,,,,,,,,,,,,,,,,,,,,,,,Eule,4.8284,302.25098460000027,302.25149000000056,302.25160080000023,302.2660999999998,307.09911250000005,307.08354770000005,307.0870537999999,307.09911250000005,307.09911250000005,307.09911250000005,307.09911250000005,309.09914149999986,309.09914149999986,309.09914149999986,309.09914149999986,309.08380000000034,2,None,0.9483212999994066,0.30131770000025426,,,,,,,,,,,,,,,,,,,,,,8752,1,2025-06-25_19h05.37.345,sm,2024.2.4,59.97375548450806,2025-06-25 19h05.45.898143 +0200,
13,0,13,,,,,,space,2.3801977000002807,None,None,2,None,0.9297646999993958,0.2853772000007666,0,0,0,0,,,,,0,0,0,0,,,,,13,0,13,0,309.09914149999986,,,,,,,,,,,,,,,,,,,,,,,,,,,,,,,,,,,,,,,,,,,,,,,,,,,,,,,,,Anwalt,2.9399,309.08430990000033,309.08481740000025,309.0849231000002,309.09914149999986,312.04893790000006,312.0332937000003,312.03719770000043,312.04893790000006,312.04893790000006,312.04893790000006,312.04893790000006,314.0487473000003,314.0487473000003,314.0487473000003,314.0487473000003,314.0331777000001,2,None,0.9297646999993958,0.2853772000007666,,,,,,,,,,,,,,,,,,,,,,8752,1,2025-06-25_19h05.37.345,sm,2024.2.4,59.97375548450806,2025-06-25 19h05.45.898143 +0200,
14,0,14,,,,,,space,2.3801977000002807,None,None,3,None,1.4346310999999332,0.397639299999355,0,0,0,0,,,,,0,0,0,0,,,,,14,0,14,0,314.0487473000003,,,,,,,,,,,,,,,,,,,,,,,,,,,,,,,,,,,,,,,,,,,,,,,,,,,,,,,,,Kante,3.3366,314.03369029999976,314.03418560000046,314.0342910999998,314.0487473000003,317.39832110000043,317.38303540000015,317.3895435000004,317.39832110000043,317.39832110000043,317.39832110000043,317.39832110000043,319.39844170000015,319.39844170000015,319.39844170000015,319.39844170000015,319.3832213000005,3,None,1.4346310999999332,0.397639299999355,,,,,,,,,,,,,,,,,,,,,,8752,1,2025-06-25_19h05.37.345,sm,2024.2.4,59.97375548450806,2025-06-25 19h05.45.898143 +0200,
15,0,15,,,,,,space,2.3801977000002807,None,None,2,None,1.5658278000000792,0.25513630000023113,0,0,0,0,,,,,0,0,0,0,,,,,15,0,15,0,319.39844170000015,,,,,,,,,,,,,,,,,,,,,,,,,,,,,,,,,,,,,,,,,,,,,,,,,,,,,,,,,Moor,2.4315,319.3837357000002,319.3842429000006,319.3843512000003,319.39844170000015,321.8313592000004,321.81628249999994,321.8194132999997,321.8313592000004,321.8313592000004,321.8313592000004,321.8313592000004,323.8316031000004,323.8316031000004,323.8316031000004,323.8316031000004,323.8160011,2,None,1.5658278000000792,0.25513630000023113,,,,,,,,,,,,,,,,,,,,,,8752,1,2025-06-25_19h05.37.345,sm,2024.2.4,59.97375548450806,2025-06-25 19h05.45.898143 +0200,
16,0,16,,,,,,space,2.3801977000002807,None,None,2,None,1.0801658999998835,0.2749186999999438,0,0,0,0,,,,,0,0,0,0,,,,,16,0,16,0,323.8316031000004,,,,,,,,,,,,,,,,,,,,,,,,,,,,,,,,,,,,,,,,,,,,,,,,,,,,,,,,,Rolle,2.0251,323.8165140000001,323.8171193999997,323.8172992,323.8316031000004,325.86477939999986,325.84935529999984,325.8534502000002,325.86477939999986,325.86477939999986,325.86477939999986,325.86477939999986,327.8648070999998,327.8648070999998,327.8648070999998,327.8648070999998,327.8492232999997,2,None,1.0801658999998835,0.2749186999999438,,,,,,,,,,,,,,,,,,,,,,8752,1,2025-06-25_19h05.37.345,sm,2024.2.4,59.97375548450806,2025-06-25 19h05.45.898143 +0200,
17,0,17,,,,,,space,2.3801977000002807,None,None,3,None,1.1822714999998425,0.3224276999999347,0,0,0,0,,,,,0,0,0,0,,,,,17,0,17,0,327.8648070999998,,,,,,,,,,,,,,,,,,,,,,,,,,,,,,,,,,,,,,,,,,,,,,,,,,,,,,,,,Tube,2.182,327.8497331999997,327.8502448999998,327.8503503000002,327.8648070999998,330.0477044999998,330.0322162000002,330.0354306999998,330.0477044999998,330.0477044999998,330.0477044999998,330.0477044999998,332.04783769999995,332.04783769999995,332.04783769999995,332.04783769999995,332.0321160000003,3,None,1.1822714999998425,0.3224276999999347,,,,,,,,,,,,,,,,,,,,,,8752,1,2025-06-25_19h05.37.345,sm,2024.2.4,59.97375548450806,2025-06-25 19h05.45.898143 +0200,
18,0,18,,,,,,space,2.3801977000002807,None,None,2,None,1.0845590999997512,0.27208359999985987,0,0,0,0,,,,,0,0,0,0,,,,,18,0,18,0,332.04783769999995,,,,,,,,,,,,,,,,,,,,,,,,,,,,,,,,,,,,,,,,,,,,,,,,,,,,,,,,,Frieden,2.6297,332.0326320000004,332.0331317,332.03324260000045,332.04783769999995,334.68081280000024,334.6652174000001,334.66893170000003,334.68081280000024,334.68081280000024,334.68081280000024,334.68081280000024,336.680797,336.680797,336.680797,336.680797,336.6654246999997,2,None,1.0845590999997512,0.27208359999985987,,,,,,,,,,,,,,,,,,,,,,8752,1,2025-06-25_19h05.37.345,sm,2024.2.4,59.97375548450806,2025-06-25 19h05.45.898143 +0200,
19,0,19,,,,,,space,2.3801977000002807,None,None,2,None,1.3450639999991836,0.27025440000033996,0,0,0,0,,,,,0,0,0,0,,,,,19,0,19,0,336.680797,,,,,,,,,,,,,,,,,,,,,,,,,,,,,,,,,,,,,,,,,,,,,,,,,,,,,,,,,Feld,2.5509,336.66592949999995,336.6665786000003,336.6666885000004,336.680797,339.23068950000015,339.21503660000053,339.2185599000004,339.23068950000015,339.23068950000015,339.23068950000015,339.23068950000015,341.2308229999999,341.2308229999999,341.2308229999999,341.2308229999999,341.21493139999984,2,None,1.3450639999991836,0.27025440000033996,,,,,,,,,,,,,,,,,,,,,,8752,1,2025-06-25_19h05.37.345,sm,2024.2.4,59.97375548450806,2025-06-25 19h05.45.898143 +0200,
20,0,20,,,,,,space,2.3801977000002807,None,None,3,None,1.0074242999999115,0.30707989999973506,0,0,0,0,,,,,0,0,0,0,,,,,20,0,20,0,341.2308229999999,,,,,,,,,,,,,,,,,,,,,,,,,,,,,,,,,,,,,,,,,,,,,,,,,,,,,,,,,Medaille,3.1211,341.21544090000043,341.2159461000001,341.21605230000023,341.2308229999999,344.36357490000046,344.34785939999983,344.35184480000044,344.36357490000046,344.36357490000046,344.36357490000046,344.36357490000046,346.36376650000057,346.36376650000057,346.36376650000057,346.36376650000057,346.34812109999984,3,None,1.0074242999999115,0.30707989999973506,,,,,,,,,,,,,,,,,,,,,,8752,1,2025-06-25_19h05.37.345,sm,2024.2.4,59.97375548450806,2025-06-25 19h05.45.898143 +0200,
21,0,21,,,,,,space,2.3801977000002807,None,None,None,None,,,0,0,0,0,,,,,0,0,0,0,,,,,21,0,21,0,346.36376650000057,,,,,,,,,,,,,,,,,,,,,,,,,,,,,,,,,,,,,,,,,,,,,,,,,,,,,,,,,Poesie,2.0105,346.34862390000035,346.3491243999997,346.3492302000004,346.36376650000057,348.3798523000005,348.36462440000014,348.36890910000056,348.3798523000005,348.3798523000005,348.3798523000005,348.3798523000005,350.3801464999997,350.3801464999997,350.3801464999997,350.3801464999997,350.3644027,None,None,,,,,,,,,,,,,,,,,,,,,,,,8752,1,2025-06-25_19h05.37.345,sm,2024.2.4,59.97375548450806,2025-06-25 19h05.45.898143 +0200,
22,0,22,,,,,,space,2.3801977000002807,None,None,3,None,0.8677348999999595,0.32366300000012416,0,0,0,0,,,,,0,0,0,0,,,,,22,0,22,0,350.3801464999997,,,,,,,,,,,,,,,,,,,,,,,,,,,,,,,,,,,,,,,,,,,,,,,,,,,,,,,,,Gipfel,3.3712,350.36485940000057,350.36536140000044,350.36547229999996,350.3801464999997,353.7633046000001,353.7478718000002,353.7516390999999,353.7633046000001,353.7633046000001,353.7633046000001,353.7633046000001,355.7637142000003,355.7637142000003,355.7637142000003,355.7637142000003,355.74753390000024,3,None,0.8677348999999595,0.32366300000012416,,,,,,,,,,,,,,,,,,,,,,8752,1,2025-06-25_19h05.37.345,sm,2024.2.4,59.97375548450806,2025-06-25 19h05.45.898143 +0200,
23,0,23,,,,,,space,2.3801977000002807,None,None,2,None,0.9801536000004489,0.26688019999983226,0,0,0,0,,,,,0,0,0,0,,,,,23,0,23,0,355.7637142000003,,,,,,,,,,,,,,,,,,,,,,,,,,,,,,,,,,,,,,,,,,,,,,,,,,,,,,,,,Schwung,2.827,355.7480378,355.74855370000023,355.74866029999976,355.7637142000003,358.59628710000015,358.58038020000004,358.5840502000001,358.59628710000015,358.59628710000015,358.59628710000015,358.59628710000015,360.5961698000001,360.5961698000001,360.5961698000001,360.5961698000001,360.5805866999999,2,None,0.9801536000004489,0.26688019999983226,,,,,,,,,,,,,,,,,,,,,,8752,1,2025-06-25_19h05.37.345,sm,2024.2.4,59.97375548450806,2025-06-25 19h05.45.898143 +0200,
24,0,24,,,,,,space,2.3801977000002807,None,None,2,None,0.7436394999995173,0.28687760000048,0,0,0,0,,,,,0,0,0,0,,,,,24,0,24,0,360.5961698000001,,,,,,,,,,,,,,,,,,,,,,,,,,,,,,,,,,,,,,,,,,,,,,,,,,,,,,,,,Wind,5.1237,360.58109160000004,360.58160599999974,360.5817127999999,360.5961698000001,365.7291518000002,365.71364900000026,365.71728770000027,365.7291518000002,365.7291518000002,365.7291518000002,365.7291518000002,367.72902479999993,367.72902479999993,367.72902479999993,367.72902479999993,367.7140583999999,2,None,0.7436394999995173,0.28687760000048,,,,,,,,,,,,,,,,,,,,,,8752,1,2025-06-25_19h05.37.345,sm,2024.2.4,59.97375548450806,2025-06-25 19h05.45.898143 +0200,
25,0,25,,,,,,space,2.3801977000002807,None,None,3,None,1.3157441000003018,0.34193389999927604,0,0,0,0,,,,,0,0,0,0,,,,,25,0,25,0,367.72902479999993,,,,,,,,,,,,,,,,,,,,,,,,,,,,,,,,,,,,,,,,,,,,,,,,,,,,,,,,,Hammer,2.7553,367.71456130000024,367.7150714999998,367.7151789999998,367.72902479999993,370.4952610999999,370.4800605999999,370.48624720000043,370.4952610999999,370.4952610999999,370.4952610999999,370.4952610999999,372.4956976000003,372.4956976000003,372.4956976000003,372.4956976000003,372.47999230000005,3,None,1.3157441000003018,0.34193389999927604,,,,,,,,,,,,,,,,,,,,,,8752,1,2025-06-25_19h05.37.345,sm,2024.2.4,59.97375548450806,2025-06-25 19h05.45.898143 +0200,
26,0,26,,,,,,space,2.3801977000002807,None,None,2,None,0.8935409000005166,0.2738382999996247,0,0,0,0,,,,,0,0,0,0,,,,,26,0,26,0,372.4956976000003,,,,,,,,,,,,,,,,,,,,,,,,,,,,,,,,,,,,,,,,,,,,,,,,,,,,,,,,,Beine,2.6884,372.48049809999975,372.4810174000004,372.48112500000025,372.4956976000003,375.1953196000004,375.17914070000006,375.1823439,375.1953196000004,375.1953196000004,375.1953196000004,375.1953196000004,377.1951283999997,377.1951283999997,377.1951283999997,377.1951283999997,377.17960219999986,2,None,0.8935409000005166,0.2738382999996247,,,,,,,,,,,,,,,,,,,,,,8752,1,2025-06-25_19h05.37.345,sm,2024.2.4,59.97375548450806,2025-06-25 19h05.45.898143 +0200,
27,0,27,,,,,,space,2.3801977000002807,None,None,3,None,0.8780380999996851,0.3908031999999366,0,0,0,0,,,,,0,0,0,0,,,,,27,0,27,0,377.1951283999997,,,,,,,,,,,,,,,,,,,,,,,,,,,,,,,,,,,,,,,,,,,,,,,,,,,,,,,,,Schnürsenkel,2.8056,377.1801131000002,377.1807097000001,377.18081600000005,377.1951283999997,380.0116675999998,379.99615540000013,380.00168230000054,380.0116675999998,380.0116675999998,380.0116675999998,380.0116675999998,382.0115642999999,382.0115642999999,382.0115642999999,382.0115642999999,381.9960034000005,3,None,0.8780380999996851,0.3908031999999366,,,,,,,,,,,,,,,,,,,,,,8752,1,2025-06-25_19h05.37.345,sm,2024.2.4,59.97375548450806,2025-06-25 19h05.45.898143 +0200,
28,0,28,,,,,,space,2.3801977000002807,None,None,3,None,1.1225444000001517,0.34672279999995226,0,0,0,0,,,,,0,0,0,0,,,,,28,0,28,0,382.0115642999999,,,,,,,,,,,,,,,,,,,,,,,,,,,,,,,,,,,,,,,,,,,,,,,,,,,,,,,,,Gemüse,2.3906,381.99650310000015,381.9971593,381.99726610000016,382.0115642999999,384.41135510000004,384.3959990000003,384.40017330000046,384.41135510000004,384.41135510000004,384.41135510000004,384.41135510000004,386.41136480000023,386.41136480000023,386.41136480000023,386.41136480000023,386.3956245999998,3,None,1.1225444000001517,0.34672279999995226,,,,,,,,,,,,,,,,,,,,,,8752,1,2025-06-25_19h05.37.345,sm,2024.2.4,59.97375548450806,2025-06-25 19h05.45.898143 +0200,
29,0,29,,,,,,space,2.3801977000002807,None,None,3,None,1.0839206999999078,0.3488787999995111,0,0,0,0,,,,,0,0,0,0,,,,,29,0,29,0,386.41136480000023,,,,,,,,,,,,,,,,,,,,,,,,,,,,,,,,,,,,,,,,,,,,,,,,,,,,,,,,,Büro,2.0578,386.3961352000006,386.3966975000003,386.3968089,386.41136480000023,388.4778458999999,388.46237290000045,388.46608240000023,388.4778458999999,388.4778458999999,388.4778458999999,388.4778458999999,390.47774670000035,390.47774670000035,390.47774670000035,390.47774670000035,390.4623093,3,None,1.0839206999999078,0.3488787999995111,,,,,,,,,,,,,,,,,,,,,,8752,1,2025-06-25_19h05.37.345,sm,2024.2.4,59.97375548450806,2025-06-25 19h05.45.898143 +0200,
30,0,30,,,,,,space,2.3801977000002807,None,None,3,None,1.1053735000004963,0.37364350000007107,0,0,0,0,,,,,0,0,0,0,,,,,30,0,30,0,390.47774670000035,,,,,,,,,,,,,,,,,,,,,,,,,,,,,,,,,,,,,,,,,,,,,,,,,,,,,,,,,Chips,2.1286,390.4628209000002,390.46333719999984,390.4634441999997,390.47774670000035,392.6275776000002,392.59528950000004,392.6030197,392.6275776000002,392.6275776000002,392.6275776000002,392.6275776000002,,,,,394.6115798000001,3,None,1.1053735000004963,0.37364350000007107,,,,,,,,,,,,,,,,,,,,,,8752,1,2025-06-25_19h05.37.345,sm,2024.2.4,59.97375548450806,2025-06-25 19h05.45.898143 +0200,
31,0,31,,,,,,space,2.3801977000002807,None,None,3,None,0.9668903000001592,0.3340877000000546,0,0,0,0,,,,,0,0,0,0,,,,,31,0,31,0,394.62751860000026,,,,,,,,,,,,,,,,,,,,,,,,,,,,,,,,,,,,,,,,,,,,,,,,,,,,,,,,,Krone,2.0041,394.6120836,394.6127492000005,394.6128636000003,394.62751860000026,396.6437711999997,396.6280287999998,396.6313345999997,396.6437711999997,396.6437711999997,396.6437711999997,396.6437711999997,398.6439784000004,398.6439784000004,398.6439784000004,398.6439784000004,398.62821880000047,3,None,0.9668903000001592,0.3340877000000546,,,,,,,,,,,,,,,,,,,,,,8752,1,2025-06-25_19h05.37.345,sm,2024.2.4,59.97375548450806,2025-06-25 19h05.45.898143 +0200,
32,0,32,,,,,,space,2.3801977000002807,None,None,3,None,0.9196732000000338,0.39691189999939525,0,0,0,0,,,,,0,0,0,0,,,,,32,0,32,0,398.6439784000004,,,,,,,,,,,,,,,,,,,,,,,,,,,,,,,,,,,,,,,,,,,,,,,,,,,,,,,,,Rauch,3.5787,398.6287017000004,398.6291962000005,398.6292975000006,398.6439784000004,402.2269787000005,402.21155460000045,402.21546469999976,402.2269787000005,402.2269787000005,402.2269787000005,402.2269787000005,404.22698480000054,404.22698480000054,404.22698480000054,404.22698480000054,404.2116238999997,3,None,0.9196732000000338,0.39691189999939525,,,,,,,,,,,,,,,,,,,,,,8752,1,2025-06-25_19h05.37.345,sm,2024.2.4,59.97375548450806,2025-06-25 19h05.45.898143 +0200,
33,0,33,,,,,,space,2.3801977000002807,None,None,3,None,1.3137636000001294,0.37206010000045353,0,0,0,0,,,,,0,0,0,0,,,,,33,0,33,0,404.22698480000054,,,,,,,,,,,,,,,,,,,,,,,,,,,,,,,,,,,,,,,,,,,,,,,,,,,,,,,,,Bild,2.5517,404.21212540000033,404.21266060000016,404.2127681000002,404.22698480000054,406.79383920000055,406.7776727999999,406.7813186000003,406.79383920000055,406.79383920000055,406.79383920000055,406.79383920000055,408.79378030000044,408.79378030000044,408.79378030000044,408.79378030000044,408.77796390000003,3,None,1.3137636000001294,0.37206010000045353,,,,,,,,,,,,,,,,,,,,,,8752,1,2025-06-25_19h05.37.345,sm,2024.2.4,59.97375548450806,2025-06-25 19h05.45.898143 +0200,
34,0,34,,,,,,space,2.3801977000002807,None,None,3,None,1.0077774000001227,0.3370992000000115,0,0,0,0,,,,,0,0,0,0,,,,,34,0,34,0,408.79378030000044,,,,,,,,,,,,,,,,,,,,,,,,,,,,,,,,,,,,,,,,,,,,,,,,,,,,,,,,,Teller,2.5452,408.77847310000016,408.7789837,408.77908990000014,408.79378030000044,411.34338339999977,411.3273899000005,411.33095890000004,411.34338339999977,411.34338339999977,411.34338339999977,411.34338339999977,413.34301270000014,413.34301270000014,413.34301270000014,413.34301270000014,413.32753390000016,3,None,1.0077774000001227,0.3370992000000115,,,,,,,,,,,,,,,,,,,,,,8752,1,2025-06-25_19h05.37.345,sm,2024.2.4,59.97375548450806,2025-06-25 19h05.45.898143 +0200,
35,0,35,,,,,,space,2.3801977000002807,None,None,2,None,1.1268931000004159,0.3330192999992505,0,0,0,0,,,,,0,0,0,0,,,,,35,0,35,0,413.34301270000014,,,,,,,,,,,,,,,,,,,,,,,,,,,,,,,,,,,,,,,,,,,,,,,,,,,,,,,,,Lernen,2.5653,413.3280456000002,413.32855930000005,413.3286656999999,413.34301270000014,415.9100490999999,415.8940150999997,415.8975225000004,415.9100490999999,415.9100490999999,415.9100490999999,415.9100490999999,417.90939789999993,417.90939789999993,417.90939789999993,417.90939789999993,417.89393220000056,2,None,1.1268931000004159,0.3330192999992505,,,,,,,,,,,,,,,,,,,,,,8752,1,2025-06-25_19h05.37.345,sm,2024.2.4,59.97375548450806,2025-06-25 19h05.45.898143 +0200,
36,0,36,,,,,,space,2.3801977000002807,None,None,2,None,0.8149359999997614,0.3123723000007885,0,0,0,0,,,,,0,0,0,0,,,,,36,0,36,0,417.90939789999993,,,,,,,,,,,,,,,,,,,,,,,,,,,,,,,,,,,,,,,,,,,,,,,,,,,,,,,,,Besucher,2.7506,417.8944517,417.89504750000015,417.89515420000043,417.90939789999993,420.65960129999985,420.6436893,420.647876,420.65960129999985,420.65960129999985,420.65960129999985,420.65960129999985,422.65936169999986,422.65936169999986,422.65936169999986,422.65936169999986,422.64384340000015,2,None,0.8149359999997614,0.3123723000007885,,,,,,,,,,,,,,,,,,,,,,8752,1,2025-06-25_19h05.37.345,sm,2024.2.4,59.97375548450806,2025-06-25 19h05.45.898143 +0200,
37,0,37,,,,,,space,2.3801977000002807,None,None,2,None,0.7237081000002945,0.3161012999999002,0,0,0,0,,,,,0,0,0,0,,,,,37,0,37,0,422.65936169999986,,,,,,,,,,,,,,,,,,,,,,,,,,,,,,,,,,,,,,,,,,,,,,,,,,,,,,,,,Spaß,2.0261,422.6443452000003,422.6448640999997,422.64497219999976,422.65936169999986,424.6928585000005,424.6767984999997,424.67998799999987,424.6928585000005,424.6928585000005,424.6928585000005,424.6928585000005,426.6922433999998,426.6922433999998,426.6922433999998,426.6922433999998,426.6768060000004,2,None,0.7237081000002945,0.3161012999999002,,,,,,,,,,,,,,,,,,,,,,8752,1,2025-06-25_19h05.37.345,sm,2024.2.4,59.97375548450806,2025-06-25 19h05.45.898143 +0200,
38,0,38,,,,,,space,2.3801977000002807,None,None,2,None,1.6386975000004895,0.2568830000000162,0,0,0,0,,,,,0,0,0,0,,,,,38,0,38,0,426.6922433999998,,,,,,,,,,,,,,,,,,,,,,,,,,,,,,,,,,,,,,,,,,,,,,,,,,,,,,,,,Sterne,2.8471,426.67731319999984,426.67785879999974,426.67796650000037,426.6922433999998,429.54211080000005,429.52680580000015,429.53087250000044,429.54211080000005,429.54211080000005,429.54211080000005,429.54211080000005,431.5422190999998,431.5422190999998,431.5422190999998,431.5422190999998,431.5264984000005,2,None,1.6386975000004895,0.2568830000000162,,,,,,,,,,,,,,,,,,,,,,8752,1,2025-06-25_19h05.37.345,sm,2024.2.4,59.97375548450806,2025-06-25 19h05.45.898143 +0200,
39,0,39,,,,,,space,2.3801977000002807,None,None,3,None,0.9113713000006101,0.313984999999775,0,0,0,0,,,,,0,0,0,0,,,,,39,0,39,0,431.5422190999998,,,,,,,,,,,,,,,,,,,,,,,,,,,,,,,,,,,,,,,,,,,,,,,,,,,,,,,,,Küche,3.952,431.52701049999996,431.5275136999999,431.5276205,431.5422190999998,435.50844659999984,435.4927137000004,435.4961543999998,435.50844659999984,435.50844659999984,435.50844659999984,435.50844659999984,437.50831389999985,437.50831389999985,437.50831389999985,437.50831389999985,437.4926725000005,3,None,0.9113713000006101,0.313984999999775,,,,,,,,,,,,,,,,,,,,,,8752,1,2025-06-25_19h05.37.345,sm,2024.2.4,59.97375548450806,2025-06-25 19h05.45.898143 +0200,
40,0,40,,,,,,space,2.3801977000002807,None,None,3,None,1.0065261999998256,0.38024289999975736,0,0,0,0,,,,,0,0,0,0,,,,,40,0,40,0,437.50831389999985,,,,,,,,,,,,,,,,,,,,,,,,,,,,,,,,,,,,,,,,,,,,,,,,,,,,,,,,,Fakt,3.1472,437.49319209999976,437.4937603999997,437.49386700000014,437.50831389999985,440.65802280000025,440.64239069999985,440.64591480000036,440.65802280000025,440.65802280000025,440.65802280000025,440.65802280000025,442.6579913000005,442.6579913000005,442.6579913000005,442.6579913000005,442.6426578999999,3,None,1.0065261999998256,0.38024289999975736,,,,,,,,,,,,,,,,,,,,,,8752,1,2025-06-25_19h05.37.345,sm,2024.2.4,59.97375548450806,2025-06-25 19h05.45.898143 +0200,
41,0,41,,,,,,space,2.3801977000002807,None,None,2,None,0.9820909999998548,0.28522500000053697,0,0,0,0,,,,,0,0,0,0,,,,,41,0,41,0,442.6579913000005,,,,,,,,,,,,,,,,,,,,,,,,,,,,,,,,,,,,,,,,,,,,,,,,,,,,,,,,,Riechen,2.7456,442.6431604999998,442.64380119999987,442.6439115000003,442.6579913000005,445.40781140000036,445.3927123000003,445.39703629999985,445.40781140000036,445.40781140000036,445.40781140000036,445.40781140000036,447.40785380000034,447.40785380000034,447.40785380000034,447.40785380000034,447.3924627000006,2,None,0.9820909999998548,0.28522500000053697,,,,,,,,,,,,,,,,,,,,,,8752,1,2025-06-25_19h05.37.345,sm,2024.2.4,59.97375548450806,2025-06-25 19h05.45.898143 +0200,
42,0,42,,,,,,space,2.3801977000002807,None,None,2,None,0.8276224000001093,0.3126724000003378,0,0,0,0,,,,,0,0,0,0,,,,,42,0,42,0,447.40785380000034,,,,,,,,,,,,,,,,,,,,,,,,,,,,,,,,,,,,,,,,,,,,,,,,,,,,,,,,,Ozean,4.209,447.3929675999998,447.3934847999999,447.3935916999999,447.40785380000034,451.6240536000005,451.6083951999999,451.61412910000035,451.6240536000005,451.6240536000005,451.6240536000005,451.6240536000005,453.6240238999999,453.6240238999999,453.6240238999999,453.6240238999999,453.60870780000005,2,None,0.8276224000001093,0.3126724000003378,,,,,,,,,,,,,,,,,,,,,,8752,1,2025-06-25_19h05.37.345,sm,2024.2.4,59.97375548450806,2025-06-25 19h05.45.898143 +0200,
43,0,43,,,,,,space,2.3801977000002807,None,None,2,None,0.9245290000008026,0.34467399999994086,0,0,0,0,,,,,0,0,0,0,,,,,43,0,43,0,453.6240238999999,,,,,,,,,,,,,,,,,,,,,,,,,,,,,,,,,,,,,,,,,,,,,,,,,,,,,,,,,Fliegen,3.0643,453.6092156000004,453.6097365000005,453.6098420999997,453.6240238999999,456.6905287999998,456.6747997000002,456.67823990000034,456.6905287999998,456.6905287999998,456.6905287999998,456.6905287999998,458.69050080000034,458.69050080000034,458.69050080000034,458.69050080000034,458.67486800000006,2,None,0.9245290000008026,0.34467399999994086,,,,,,,,,,,,,,,,,,,,,,8752,1,2025-06-25_19h05.37.345,sm,2024.2.4,59.97375548450806,2025-06-25 19h05.45.898143 +0200,
44,0,44,,,,,,space,2.3801977000002807,None,None,3,None,1.1274094999998852,0.3080307999998695,0,0,0,0,,,,,0,0,0,0,,,,,44,0,44,0,458.69050080000034,,,,,,,,,,,,,,,,,,,,,,,,,,,,,,,,,,,,,,,,,,,,,,,,,,,,,,,,,Skizze,2.9818,458.6753789000004,458.6758918000005,458.67600240000047,458.69050080000034,461.67446089999976,461.65802299999996,461.6621562,461.67446089999976,461.67446089999976,461.67446089999976,461.67446089999976,463.67361380000057,463.67361380000057,463.67361380000057,463.67361380000057,463.6579522000002,3,None,1.1274094999998852,0.3080307999998695,,,,,,,,,,,,,,,,,,,,,,8752,1,2025-06-25_19h05.37.345,sm,2024.2.4,59.97375548450806,2025-06-25 19h05.45.898143 +0200,
45,0,45,,,,,,space,2.3801977000002807,None,None,3,None,1.3003507000003083,0.3499752999996417,0,0,0,0,,,,,0,0,0,0,,,,,45,0,45,0,463.67361380000057,,,,,,,,,,,,,,,,,,,,,,,,,,,,,,,,,,,,,,,,,,,,,,,,,,,,,,,,,Dunkelheit,3.4482,463.65846039999997,463.65897589999986,463.6590834999997,463.67361380000057,467.12324530000024,467.1077389000002,467.11235430000033,467.12324530000024,467.12324530000024,467.12324530000024,467.12324530000024,469.12321280000015,469.12321280000015,469.12321280000015,469.12321280000015,469.1077954000002,3,None,1.3003507000003083,0.3499752999996417,,,,,,,,,,,,,,,,,,,,,,8752,1,2025-06-25_19h05.37.345,sm,2024.2.4,59.97375548450806,2025-06-25 19h05.45.898143 +0200,
46,0,46,,,,,,space,2.3801977000002807,None,None,3,None,0.7906968999996025,0.37798710000060964,0,0,0,0,,,,,0,0,0,0,,,,,46,0,46,0,469.12321280000015,,,,,,,,,,,,,,,,,,,,,,,,,,,,,,,,,,,,,,,,,,,,,,,,,,,,,,,,,Helm,4.6325,469.1083014000005,469.1088202000001,469.10892460000014,469.12321280000015,473.75622850000036,473.7405369999997,473.74498029999995,473.75622850000036,473.75622850000036,473.75622850000036,473.75622850000036,475.75601410000036,475.75601410000036,475.75601410000036,475.75601410000036,475.7401361000002,3,None,0.7906968999996025,0.37798710000060964,,,,,,,,,,,,,,,,,,,,,,8752,1,2025-06-25_19h05.37.345,sm,2024.2.4,59.97375548450806,2025-06-25 19h05.45.898143 +0200,
47,0,47,,,,,,space,2.3801977000002807,None,None,2,None,0.8451936999999816,0.32153889999972307,0,0,0,0,,,,,0,0,0,0,,,,,47,0,47,0,475.75601410000036,,,,,,,,,,,,,,,,,,,,,,,,,,,,,,,,,,,,,,,,,,,,,,,,,,,,,,,,,Fledermaus,5.4223,475.74052889999984,475.7409748,475.74105599999984,475.75601410000036,481.1890172000003,481.17353960000037,481.17714140000044,481.1890172000003,481.1890172000003,481.1890172000003,481.1890172000003,483.18899020000026,483.18899020000026,483.18899020000026,483.18899020000026,483.1736056999998,2,None,0.8451936999999816,0.32153889999972307,,,,,,,,,,,,,,,,,,,,,,8752,1,2025-06-25_19h05.37.345,sm,2024.2.4,59.97375548450806,2025-06-25 19h05.45.898143 +0200,
48,0,48,,,,,,space,2.3801977000002807,None,None,2,None,1.1403485000000728,0.32110459999967134,0,0,0,0,,,,,0,0,0,0,,,,,48,0,48,0,483.18899020000026,,,,,,,,,,,,,,,,,,,,,,,,,,,,,,,,,,,,,,,,,,,,,,,,,,,,,,,,,Knie,2.0522,483.1741084000005,483.17475190000005,483.17485959999976,483.18899020000026,485.25557540000045,485.23989359999996,485.2433925000005,485.25557540000045,485.25557540000045,485.25557540000045,485.25557540000045,487.2559557000004,487.2559557000004,487.2559557000004,487.2559557000004,487.2399483999998,2,None,1.1403485000000728,0.32110459999967134,,,,,,,,,,,,,,,,,,,,,,8752,1,2025-06-25_19h05.37.345,sm,2024.2.4,59.97375548450806,2025-06-25 19h05.45.898143 +0200,
49,0,49,,,,,,space,2.3801977000002807,None,None,3,None,1.2089607000007163,0.32291889999942214,0,0,0,0,,,,,0,0,0,0,,,,,49,0,49,0,487.2559557000004,,,,,,,,,,,,,,,,,,,,,,,,,,,,,,,,,,,,,,,,,,,,,,,,,,,,,,,,,Trauben,2.5038,487.24045840000053,487.24096030000055,487.2410666000005,487.2559557000004,489.7719947000005,489.7562818000006,489.7600932000005,489.7719947000005,489.7719947000005,489.7719947000005,489.7719947000005,491.77194359999976,491.77194359999976,491.77194359999976,491.77194359999976,491.7564064999997,3,None,1.2089607000007163,0.32291889999942214,,,,,,,,,,,,,,,,,,,,,,8752,1,2025-06-25_19h05.37.345,sm,2024.2.4,59.97375548450806,2025-06-25 19h05.45.898143 +0200,
50,0,50,,,,,,space,2.3801977000002807,None,None,3,None,0.9116272999999637,0.34541250000074797,0,0,0,0,,,,,0,0,0,0,,,,,50,0,50,0,491.77194359999976,,,,,,,,,,,,,,,,,,,,,,,,,,,,,,,,,,,,,,,,,,,,,,,,,,,,,,,,,Asche,2.1151,491.75690620000023,491.75743800000055,491.75754400000005,491.77194359999976,493.88863130000027,493.87294629999997,493.87714870000036,493.88863130000027,493.88863130000027,493.88863130000027,493.88863130000027,495.8886690999998,495.8886690999998,495.8886690999998,495.8886690999998,495.8727127000002,3,None,0.9116272999999637,0.34541250000074797,,,,,,,,,,,,,,,,,,,,,,8752,1,2025-06-25_19h05.37.345,sm,2024.2.4,59.97375548450806,2025-06-25 19h05.45.898143 +0200,
51,0,51,,,,,,space,2.3801977000002807,None,None,3,None,1.2238987999999154,0.2987348999995447,0,0,0,0,,,,,0,0,0,0,,,,,51,0,51,0,495.8886690999998,,,,,,,,,,,,,,,,,,,,,,,,,,,,,,,,,,,,,,,,,,,,,,,,,,,,,,,,,Fernseher,4.8309,495.87321580000025,495.8737180999997,495.87382549999984,495.8886690999998,500.72119810000004,500.70554710000033,500.70930229999976,500.72119810000004,500.72119810000004,500.72119810000004,500.72119810000004,502.72130930000003,502.72130930000003,502.72130930000003,502.72130930000003,502.7054215999997,3,None,1.2238987999999154,0.2987348999995447,,,,,,,,,,,,,,,,,,,,,,8752,1,2025-06-25_19h05.37.345,sm,2024.2.4,59.97375548450806,2025-06-25 19h05.45.898143 +0200,
52,0,52,,,,,,space,2.3801977000002807,None,None,3,None,0.8067507000005207,0.31345599999986007,0,0,0,0,,,,,0,0,0,0,,,,,52,0,52,0,502.72130930000003,,,,,,,,,,,,,,,,,,,,,,,,,,,,,,,,,,,,,,,,,,,,,,,,,,,,,,,,,Mappe,3.9598,502.7058122999997,502.7062517000004,502.7063350999997,502.72130930000003,506.6876600000005,506.67213730000003,506.67575430000034,506.6876600000005,506.6876600000005,506.6876600000005,506.6876600000005,508.6876437000001,508.6876437000001,508.6876437000001,508.6876437000001,508.6721440000001,3,None,0.8067507000005207,0.31345599999986007,,,,,,,,,,,,,,,,,,,,,,8752,1,2025-06-25_19h05.37.345,sm,2024.2.4,59.97375548450806,2025-06-25 19h05.45.898143 +0200,
53,0,53,,,,,,space,2.3801977000002807,None,None,3,None,1.467214100000092,0.30459700000028533,0,0,0,0,,,,,0,0,0,0,,,,,53,0,53,0,508.6876437000001,,,,,,,,,,,,,,,,,,,,,,,,,,,,,,,,,,,,,,,,,,,,,,,,,,,,,,,,,Ei,3.9567,508.6726555000005,508.67315940000026,508.67326690000027,508.6876437000001,512.6541149000004,512.6384126000003,512.6428979000002,512.6541149000004,512.6541149000004,512.6541149000004,512.6541149000004,514.6538965999998,514.6538965999998,514.6538965999998,514.6538965999998,514.6383971000005,3,None,1.467214100000092,0.30459700000028533,,,,,,,,,,,,,,,,,,,,,,8752,1,2025-06-25_19h05.37.345,sm,2024.2.4,59.97375548450806,2025-06-25 19h05.45.898143 +0200,
54,0,54,,,,,,space,2.3801977000002807,None,None,3,None,0.9595394999996643,0.30480439999973896,0,0,0,0,,,,,0,0,0,0,,,,,54,0,54,0,514.6538965999998,,,,,,,,,,,,,,,,,,,,,,,,,,,,,,,,,,,,,,,,,,,,,,,,,,,,,,,,,Käse,2.5402,514.6388422,514.6393724999998,514.6394677999997,514.6538965999998,517.2035883999997,517.1884694999999,517.1912133000005,517.2035883999997,517.2035883999997,517.2035883999997,517.2035883999997,519.2036683000006,519.2036683000006,519.2036683000006,519.2036683000006,519.1882559000005,3,None,0.9595394999996643,0.30480439999973896,,,,,,,,,,,,,,,,,,,,,,8752,1,2025-06-25_19h05.37.345,sm,2024.2.4,59.97375548450806,2025-06-25 19h05.45.898143 +0200,
55,0,55,,,,,,space,2.3801977000002807,None,None,2,None,0.8876561999995829,0.3131450999999288,0,0,0,0,,,,,0,0,0,0,,,,,55,0,55,0,519.2036683000006,,,,,,,,,,,,,,,,,,,,,,,,,,,,,,,,,,,,,,,,,,,,,,,,,,,,,,,,,Schwimmen,2.2948,519.1887666000002,519.1892868000004,519.1893933000001,519.2036683000006,521.5033586,521.4876897000004,521.4912277000003,521.5033586,521.5033586,521.5033586,521.5033586,523.5033825999999,523.5033825999999,523.5033825999999,523.5033825999999,523.4879760000003,2,None,0.8876561999995829,0.3131450999999288,,,,,,,,,,,,,,,,,,,,,,8752,1,2025-06-25_19h05.37.345,sm,2024.2.4,59.97375548450806,2025-06-25 19h05.45.898143 +0200,
56,0,56,,,,,,space,2.3801977000002807,None,None,3,None,1.0056797000006554,0.324268999999731,0,0,0,0,,,,,0,0,0,0,,,,,56,0,56,0,523.5033825999999,,,,,,,,,,,,,,,,,,,,,,,,,,,,,,,,,,,,,,,,,,,,,,,,,,,,,,,,,Schloss,5.3962,523.4884784000005,523.4891270999997,523.4892347000005,523.5033825999999,528.9030392000004,528.8876074999998,528.8916553999998,528.9030392000004,528.9030392000004,528.9030392000004,528.9030392000004,530.9029987000004,530.9029987000004,530.9029987000004,530.9029987000004,530.8871915,3,None,1.0056797000006554,0.324268999999731,,,,,,,,,,,,,,,,,,,,,,8752,1,2025-06-25_19h05.37.345,sm,2024.2.4,59.97375548450806,2025-06-25 19h05.45.898143 +0200,
57,0,57,,,,,,space,2.3801977000002807,None,None,2,None,0.8264116999998805,0.3019236000000092,0,0,0,0,,,,,0,0,0,0,,,,,57,0,57,0,530.9029987000004,,,,,,,,,,,,,,,,,,,,,,,,,,,,,,,,,,,,,,,,,,,,,,,,,,,,,,,,,Tanne,4.3047,530.8876428000003,530.8881141000002,530.8882080000003,530.9029987000004,535.2193359000003,535.2034908000005,535.2066423000006,535.2193359000003,535.2193359000003,535.2193359000003,535.2193359000003,537.219427,537.219427,537.219427,537.219427,537.2037815000003,2,None,0.8264116999998805,0.3019236000000092,,,,,,,,,,,,,,,,,,,,,,8752,1,2025-06-25_19h05.37.345,sm,2024.2.4,59.97375548450806,2025-06-25 19h05.45.898143 +0200,
58,0,58,,,,,,space,2.3801977000002807,None,None,2,None,1.2231891999999789,0.2670356000007814,0,0,0,0,,,,,0,0,0,0,,,,,58,0,58,0,537.219427,,,,,,,,,,,,,,,,,,,,,,,,,,,,,,,,,,,,,,,,,,,,,,,,,,,,,,,,,Anruf,2.4808,537.204291,537.2048076000001,537.2049151000001,537.219427,539.7024609,539.6867834000004,539.6907142,539.7024609,539.7024609,539.7024609,539.7024609,541.7026587999999,541.7026587999999,541.7026587999999,541.7026587999999,541.6868900999998,2,None,1.2231891999999789,0.2670356000007814,,,,,,,,,,,,,,,,,,,,,,8752,1,2025-06-25_19h05.37.345,sm,2024.2.4,59.97375548450806,2025-06-25 19h05.45.898143 +0200,
59,0,59,,,,,,space,2.3801977000002807,None,None,3,None,1.0693177000002834,0.3582066999997551,0,0,0,0,,,,,0,0,0,0,,,,,59,0,59,0,541.7026587999999,,,,,,,,,,,,,,,,,,,,,,,,,,,,,,,,,,,,,,,,,,,,,,,,,,,,,,,,,Sand,2.3395,541.6874512000004,541.6881149000001,541.6882261000001,541.7026587999999,544.0521670999997,544.0365475999997,544.0399288999997,544.0521670999997,544.0521670999997,544.0521670999997,544.0521670999997,546.0523431000001,546.0523431000001,546.0523431000001,546.0523431000001,546.0366837000001,3,None,1.0693177000002834,0.3582066999997551,,,,,,,,,,,,,,,,,,,,,,8752,1,2025-06-25_19h05.37.345,sm,2024.2.4,59.97375548450806,2025-06-25 19h05.45.898143 +0200,
60,0,60,,,,,,space,2.3801977000002807,None,None,2,None,0.8665348999993512,0.2952487000002293,0,0,0,0,,,,,0,0,0,0,,,,,60,0,60,0,546.0523431000001,,,,,,,,,,,,,,,,,,,,,,,,,,,,,,,,,,,,,,,,,,,,,,,,,,,,,,,,,Spion,2.1396,546.0371780000005,546.0376771000001,546.0377880000005,546.0523431000001,548.2021769000003,548.1863161000001,548.1905710000001,548.2021769000003,548.2021769000003,548.2021769000003,548.2021769000003,550.2019952,550.2019952,550.2019952,550.2019952,550.1868698999997,2,None,0.8665348999993512,0.2952487000002293,,,,,,,,,,,,,,,,,,,,,,8752,1,2025-06-25_19h05.37.345,sm,2024.2.4,59.97375548450806,2025-06-25 19h05.45.898143 +0200,
61,0,61,,,,,,space,2.3801977000002807,None,None,2,None,1.0900521999992634,0.255374500000471,0,0,0,0,,,,,0,0,0,0,,,,,61,0,61,0,550.2019952,,,,,,,,,,,,,,,,,,,,,,,,,,,,,,,,,,,,,,,,,,,,,,,,,,,,,,,,,Gegenwart,3.3631,550.1873778999998,550.1879037999997,550.1880123999999,550.2019952,553.5683884999999,553.5528421999998,553.5564874000002,553.5683884999999,553.5683884999999,553.5683884999999,553.5683884999999,555.5683337999999,555.5683337999999,555.5683337999999,555.5683337999999,555.5527364999998,2,None,1.0900521999992634,0.255374500000471,,,,,,,,,,,,,,,,,,,,,,8752,1,2025-06-25_19h05.37.345,sm,2024.2.4,59.97375548450806,2025-06-25 19h05.45.898143 +0200,
62,0,62,,,,,,space,2.3801977000002807,None,None,2,None,0.9018637999997736,0.23683340000025055,0,0,0,0,,,,,0,0,0,0,,,,,62,0,62,0,555.5683337999999,,,,,,,,,,,,,,,,,,,,,,,,,,,,,,,,,,,,,,,,,,,,,,,,,,,,,,,,,Schulter,2.2624,555.5532521000005,555.5539375999997,555.5540459000003,555.5683337999999,557.8345245999999,557.8191814000002,557.8230258000003,557.8345245999999,557.8345245999999,557.8345245999999,557.8345245999999,559.8346504000001,559.8346504000001,559.8346504000001,559.8346504000001,559.8191032000004,2,None,0.9018637999997736,0.23683340000025055,,,,,,,,,,,,,,,,,,,,,,8752,1,2025-06-25_19h05.37.345,sm,2024.2.4,59.97375548450806,2025-06-25 19h05.45.898143 +0200,
63,0,63,,,,,,space,2.3801977000002807,None,None,3,None,1.2021592999999484,0.33292489999985264,0,0,0,0,,,,,0,0,0,0,,,,,63,0,63,0,559.8346504000001,,,,,,,,,,,,,,,,,,,,,,,,,,,,,,,,,,,,,,,,,,,,,,,,,,,,,,,,,Wanne,4.055,559.8196192000005,559.8201391000002,559.8202462999998,559.8346504000001,563.9011802000005,563.8856366999998,563.8896752999999,563.9011802000005,563.9011802000005,563.9011802000005,563.9011802000005,565.9015116,565.9015116,565.9015116,565.9015116,565.8853802000003,3,None,1.2021592999999484,0.33292489999985264,,,,,,,,,,,,,,,,,,,,,,8752,1,2025-06-25_19h05.37.345,sm,2024.2.4,59.97375548450806,2025-06-25 19h05.45.898143 +0200,
64,0,64,,,,,,space,2.3801977000002807,None,None,2,None,1.1910463000003801,0.2552267999999458,0,0,0,0,,,,,0,0,0,0,,,,,64,0,64,0,565.9015116,,,,,,,,,,,,,,,,,,,,,,,,,,,,,,,,,,,,,,,,,,,,,,,,,,,,,,,,,Center,2.3265,565.8858891999998,565.8863831999997,565.8864902000005,565.9015116,568.2341062000005,568.2184077000002,568.2220905000004,568.2341062000005,568.2341062000005,568.2341062000005,568.2341062000005,570.2341637999998,570.2341637999998,570.2341637999998,570.2341637999998,570.2186183000003,2,None,1.1910463000003801,0.2552267999999458,,,,,,,,,,,,,,,,,,,,,,8752,1,2025-06-25_19h05.37.345,sm,2024.2.4,59.97375548450806,2025-06-25 19h05.45.898143 +0200,
65,0,65,,,,,,space,2.3801977000002807,None,None,3,None,1.254616100000021,0.35468459999992774,0,0,0,0,,,,,0,0,0,0,,,,,65,0,65,0,570.2341637999998,,,,,,,,,,,,,,,,,,,,,,,,,,,,,,,,,,,,,,,,,,,,,,,,,,,,,,,,,Winter,2.904,570.2191219000006,570.2197809999998,570.2198907000002,570.2341637999998,573.1504020000002,573.1348339000006,573.1382702000001,573.1504020000002,573.1504020000002,573.1504020000002,573.1504020000002,575.1506096000003,575.1506096000003,575.1506096000003,575.1506096000003,575.1350358,3,None,1.254616100000021,0.35468459999992774,,,,,,,,,,,,,,,,,,,,,,8752,1,2025-06-25_19h05.37.345,sm,2024.2.4,59.97375548450806,2025-06-25 19h05.45.898143 +0200,
66,0,66,,,,,,space,2.3801977000002807,None,None,2,None,0.97365069999978,0.31112690000009025,0,0,0,0,,,,,0,0,0,0,,,,,66,0,66,0,575.1506096000003,,,,,,,,,,,,,,,,,,,,,,,,,,,,,,,,,,,,,,,,,,,,,,,,,,,,,,,,,Gras,2.5689,575.1355481999999,575.1360611999999,575.1361701000005,575.1506096000003,577.7333398000001,577.7183028,577.7236345000001,577.7333398000001,577.7333398000001,577.7333398000001,577.7333398000001,579.7336768000005,579.7336768000005,579.7336768000005,579.7336768000005,579.7179483,2,None,0.97365069999978,0.31112690000009025,,,,,,,,,,,,,,,,,,,,,,8752,1,2025-06-25_19h05.37.345,sm,2024.2.4,59.97375548450806,2025-06-25 19h05.45.898143 +0200,
67,0,67,,,,,,space,2.3801977000002807,None,None,2,None,0.8352402999998958,0.26975060000040685,0,0,0,0,,,,,0,0,0,0,,,,,67,0,67,0,579.7336768000005,,,,,,,,,,,,,,,,,,,,,,,,,,,,,,,,,,,,,,,,,,,,,,,,,,,,,,,,,Autorin,2.9673,579.7184545999999,579.7189558,579.7190675000002,579.7336768000005,582.6999436000006,582.6844354000004,582.6882794000003,582.6999436000006,582.6999436000006,582.6999436000006,582.6999436000006,584.6998087000002,584.6998087000002,584.6998087000002,584.6998087000002,584.6848377000006,2,None,0.8352402999998958,0.26975060000040685,,,,,,,,,,,,,,,,,,,,,,8752,1,2025-06-25_19h05.37.345,sm,2024.2.4,59.97375548450806,2025-06-25 19h05.45.898143 +0200,
68,0,68,,,,,,space,2.3801977000002807,None,None,3,None,1.2309162999999899,0.37927140000010695,0,0,0,0,,,,,0,0,0,0,,,,,68,0,68,0,584.6998087000002,,,,,,,,,,,,,,,,,,,,,,,,,,,,,,,,,,,,,,,,,,,,,,,,,,,,,,,,,Sitzgurt,3.8166,584.6853454000002,584.6860001000005,584.6861067,584.6998087000002,588.5163307000003,588.5006098000003,588.5044377000004,588.5163307000003,588.5163307000003,588.5163307000003,588.5163307000003,590.5163602000002,590.5163602000002,590.5163602000002,590.5163602000002,590.5007672000002,3,None,1.2309162999999899,0.37927140000010695,,,,,,,,,,,,,,,,,,,,,,8752,1,2025-06-25_19h05.37.345,sm,2024.2.4,59.97375548450806,2025-06-25 19h05.45.898143 +0200,
69,0,69,,,,,,space,2.3801977000002807,None,None,2,None,0.9739992000004349,0.3145017999995616,0,0,0,0,,,,,0,0,0,0,,,,,69,0,69,0,590.5163602000002,,,,,,,,,,,,,,,,,,,,,,,,,,,,,,,,,,,,,,,,,,,,,,,,,,,,,,,,,Duft,2.2416,590.5012709000002,590.5019133000005,590.5020220000006,590.5163602000002,592.7661866999997,592.7504655000002,592.7538375000004,592.7661866999997,592.7661866999997,592.7661866999997,592.7661866999997,594.7661323000002,594.7661323000002,594.7661323000002,594.7661323000002,594.7504660000004,2,None,0.9739992000004349,0.3145017999995616,,,,,,,,,,,,,,,,,,,,,,8752,1,2025-06-25_19h05.37.345,sm,2024.2.4,59.97375548450806,2025-06-25 19h05.45.898143 +0200,
70,0,70,,,,,,space,2.3801977000002807,None,None,2,None,0.7961851000000024,0.31417509999937465,0,0,0,0,,,,,0,0,0,0,,,,,70,0,70,0,594.7661323000002,,,,,,,,,,,,,,,,,,,,,,,,,,,,,,,,,,,,,,,,,,,,,,,,,,,,,,,,,Mund,2.5133,594.7509731,594.7514864000004,594.7515923999999,594.7661323000002,597.2824516000001,597.2668196000004,597.2700982000006,597.2824516000001,597.2824516000001,597.2824516000001,597.2824516000001,599.2826986,599.2826986,599.2826986,599.2826986,599.2668977000003,2,None,0.7961851000000024,0.31417509999937465,,,,,,,,,,,,,,,,,,,,,,8752,1,2025-06-25_19h05.37.345,sm,2024.2.4,59.97375548450806,2025-06-25 19h05.45.898143 +0200,
71,0,71,,,,,,space,2.3801977000002807,None,None,2,None,0.8161792999999307,0.29740229999970325,0,0,0,0,,,,,0,0,0,0,,,,,71,0,71,0,599.2826986,,,,,,,,,,,,,,,,,,,,,,,,,,,,,,,,,,,,,,,,,,,,,,,,,,,,,,,,,Saft,4.0356,599.2674014000004,599.2679748,599.2680821000004,599.2826986,603.3318881000005,603.3164555000003,603.3197978999997,603.3318881000005,603.3318881000005,603.3318881000005,603.3318881000005,605.3320727999999,605.3320727999999,605.3320727999999,605.3320727999999,605.3165255000004,2,None,0.8161792999999307,0.29740229999970325,,,,,,,,,,,,,,,,,,,,,,8752,1,2025-06-25_19h05.37.345,sm,2024.2.4,59.97375548450806,2025-06-25 19h05.45.898143 +0200,
72,0,72,,,,,,space,2.3801977000002807,None,None,3,None,1.299473100000796,0.36187279999921884,0,0,0,0,,,,,0,0,0,0,,,,,72,0,72,0,605.3320727999999,,,,,,,,,,,,,,,,,,,,,,,,,,,,,,,,,,,,,,,,,,,,,,,,,,,,,,,,,Bett,4.2169,605.3170399999999,605.3175544000005,605.3176652000002,605.3320727999999,609.5483868000001,609.5326845999998,609.5362206999998,609.5483868000001,609.5483868000001,609.5483868000001,609.5483868000001,611.5484198000004,611.5484198000004,611.5484198000004,611.5484198000004,611.5330199,3,None,1.299473100000796,0.36187279999921884,,,,,,,,,,,,,,,,,,,,,,8752,1,2025-06-25_19h05.37.345,sm,2024.2.4,59.97375548450806,2025-06-25 19h05.45.898143 +0200,
73,0,73,,,,,,space,2.3801977000002807,None,None,3,None,1.1046799000005194,0.35810229999970034,0,0,0,0,,,,,0,0,0,0,,,,,73,0,73,0,611.5484198000004,,,,,,,,,,,,,,,,,,,,,,,,,,,,,,,,,,,,,,,,,,,,,,,,,,,,,,,,,Kaffee,2.2658,611.5335259000003,611.5342202000002,611.5343302000001,611.5484198000004,613.8149923999999,613.7994559999997,613.8046276000005,613.8149923999999,613.8149923999999,613.8149923999999,613.8149923999999,615.8148295000001,615.8148295000001,615.8148295000001,615.8148295000001,615.7993994999997,3,None,1.1046799000005194,0.35810229999970034,,,,,,,,,,,,,,,,,,,,,,8752,1,2025-06-25_19h05.37.345,sm,2024.2.4,59.97375548450806,2025-06-25 19h05.45.898143 +0200,
74,0,74,,,,,,space,2.3801977000002807,None,None,2,None,1.2959031999998842,0.27399359999981243,0,0,0,0,,,,,0,0,0,0,,,,,74,0,74,0,615.8148295000001,,,,,,,,,,,,,,,,,,,,,,,,,,,,,,,,,,,,,,,,,,,,,,,,,,,,,,,,,Gruppe,3.7606,615.7998807000004,615.800499,615.8005984000001,615.8148295000001,619.5818078000002,619.5655762000006,619.5693339,619.5818078000002,619.5818078000002,619.5818078000002,619.5818078000002,621.5816752000001,621.5816752000001,621.5816752000001,621.5816752000001,621.5657170000004,2,None,1.2959031999998842,0.27399359999981243,,,,,,,,,,,,,,,,,,,,,,8752,1,2025-06-25_19h05.37.345,sm,2024.2.4,59.97375548450806,2025-06-25 19h05.45.898143 +0200,
75,0,75,,,,,,space,2.3801977000002807,None,None,3,None,1.1222152999998798,0.33522309999989375,0,0,0,0,,,,,0,0,0,0,,,,,75,0,75,0,621.5816752000001,,,,,,,,,,,,,,,,,,,,,,,,,,,,,,,,,,,,,,,,,,,,,,,,,,,,,,,,,Spaghetti,2.0843,621.5662259999999,621.5667811000003,621.5668872000006,621.5816752000001,623.6809696999999,623.6653803999998,623.6698013000005,623.6809696999999,623.6809696999999,623.6809696999999,623.6809696999999,625.6810261999999,625.6810261999999,625.6810261999999,625.6810261999999,625.6655029000003,3,None,1.1222152999998798,0.33522309999989375,,,,,,,,,,,,,,,,,,,,,,8752,1,2025-06-25_19h05.37.345,sm,2024.2.4,59.97375548450806,2025-06-25 19h05.45.898143 +0200,
76,0,76,,,,,,space,2.3801977000002807,None,None,2,None,0.7798036999993201,0.34608250000019325,0,0,0,0,,,,,0,0,0,0,,,,,76,0,76,0,625.6810261999999,,,,,,,,,,,,,,,,,,,,,,,,,,,,,,,,,,,,,,,,,,,,,,,,,,,,,,,,,Lehrer,2.173,625.6660114000006,625.6666602000005,625.6667662,625.6810261999999,627.8644371999999,627.8482678,627.8517352999997,627.8644371999999,627.8644371999999,627.8644371999999,627.8644371999999,629.8642234999998,629.8642234999998,629.8642234999998,629.8642234999998,629.8485333999997,2,None,0.7798036999993201,0.34608250000019325,,,,,,,,,,,,,,,,,,,,,,8752,1,2025-06-25_19h05.37.345,sm,2024.2.4,59.97375548450806,2025-06-25 19h05.45.898143 +0200,
77,0,77,,,,,,space,2.3801977000002807,None,None,3,None,1.294363500000145,0.3181258999993588,0,0,0,0,,,,,0,0,0,0,,,,,77,0,77,0,629.8642234999998,,,,,,,,,,,,,,,,,,,,,,,,,,,,,,,,,,,,,,,,,,,,,,,,,,,,,,,,,Haare,2.3363,629.8490412000001,629.8496580000001,629.8497650999998,629.8642234999998,632.2135570999999,632.1981224000001,632.2013343999997,632.2135570999999,632.2135570999999,632.2135570999999,632.2135570999999,634.2137941999999,634.2137941999999,634.2137941999999,634.2137941999999,634.1983105999998,3,None,1.294363500000145,0.3181258999993588,,,,,,,,,,,,,,,,,,,,,,8752,1,2025-06-25_19h05.37.345,sm,2024.2.4,59.97375548450806,2025-06-25 19h05.45.898143 +0200,
78,0,78,,,,,,space,2.3801977000002807,None,None,3,None,0.9691634999999224,0.35104189999947266,0,0,0,0,,,,,0,0,0,0,,,,,78,0,78,0,634.2137941999999,,,,,,,,,,,,,,,,,,,,,,,,,,,,,,,,,,,,,,,,,,,,,,,,,,,,,,,,,Bluse,2.1799,634.1988153000002,634.1994825000002,634.1995941000005,634.2137941999999,636.3969335000002,636.3812631999999,636.3849016000004,636.3969335000002,636.3969335000002,636.3969335000002,636.3969335000002,638.3970767000001,638.3970767000001,638.3970767000001,638.3970767000001,638.3811818000004,3,None,0.9691634999999224,0.35104189999947266,,,,,,,,,,,,,,,,,,,,,,8752,1,2025-06-25_19h05.37.345,sm,2024.2.4,59.97375548450806,2025-06-25 19h05.45.898143 +0200,
79,0,79,,,,,,space,2.3801977000002807,None,None,3,None,0.9165820999996868,0.34703170000011596,0,0,0,0,,,,,0,0,0,0,,,,,79,0,79,0,638.3970767000001,,,,,,,,,,,,,,,,,,,,,,,,,,,,,,,,,,,,,,,,,,,,,,,,,,,,,,,,,Statue,2.2259,638.3816265000005,638.3821076000004,638.3822027000006,638.3970767000001,640.6301816000005,640.6144292999998,640.6183259999998,640.6301816000005,640.6301816000005,640.6301816000005,640.6301816000005,642.6415225000001,642.6415225000001,642.6415225000001,642.6415225000001,642.6143650000004,3,None,0.9165820999996868,0.34703170000011596,,,,,,,,,,,,,,,,,,,,,,8752,1,2025-06-25_19h05.37.345,sm,2024.2.4,59.97375548450806,2025-06-25 19h05.45.898143 +0200,
0,0,0,,,,,2.0261,space,5.973607300000367,None,None,3,None,1.0119908000006035,0.33681369999976596,0,0,0,0,,,,,1,0,1,0,0,79,79,49,0,0,0,0,690.0277609000004,,,,,,,,,,,,,,,,,,,,,,,,,,,,,,,,,,,,659.8786329000004,659.8788802999998,659.8851139999997,659.8896472000006,659.8896472000006,665.8805093999999,space,5.973607300000367,None,665.880666,665.8953325000002,665.8953325000002,678.0111396000002,None,678.0181591999999,678.0280086000002,678.0262946666664,679.2344429000004,688.0106658666666,689.0144418999998,690.0116029000001,Sack,2.0261,690.0128954000002,690.0134593000002,690.0135615999998,690.0277609000004,692.0602306000001,692.0454219000003,692.0489819000004,692.0602306000001,692.0602306000001,692.0602306000001,692.0602306000001,694.060375,694.060375,694.060375,694.060375,694.0449399999998,3,None,1.0119908000006035,0.33681369999976596,654.6297561000001,654.6298369000006,None,654.6376300000002,654.6457227000001,658.6456447,658.6456447,658.6456447,659.831212,2,1.1837889000007635,None,690.0277609000004,,,,,,,,,8752,1,2025-06-25_19h05.37.345,sm,2024.2.4,59.97375548450806,2025-06-25 19h05.45.898143 +0200,
1,0,1,,,,,,space,5.973607300000367,None,None,3,None,0.9130231999997704,0.3427590000001146,0,0,0,0,,,,,1,0,1,0,,,,,1,0,1,0,694.060375,,,,,,,,,,,,,,,,,,,,,,,,,,,,,,,,,,,,,,,,,,,,,,,,,,,,,,,,,Stein,2.827,694.0454480999997,694.0461163,694.0462273000003,694.060375,696.8938079,696.8780431000005,696.8819990000002,696.8938079,696.8938079,696.8938079,696.8938079,698.8938926000001,698.8938926000001,698.8938926000001,698.8938926000001,698.8780391999999,3,None,0.9130231999997704,0.3427590000001146,,,,,,,,,,,,,,,,,,,,,,8752,1,2025-06-25_19h05.37.345,sm,2024.2.4,59.97375548450806,2025-06-25 19h05.45.898143 +0200,
2,0,2,,,,,,space,5.973607300000367,None,None,3,None,1.0479200999998284,0.36804810000012367,0,0,0,0,,,,,1,0,1,0,,,,,2,0,2,0,698.8938926000001,,,,,,,,,,,,,,,,,,,,,,,,,,,,,,,,,,,,,,,,,,,,,,,,,,,,,,,,,Rebe,2.5653,698.878541,698.8791977000001,698.8793077,698.8938926000001,701.4596950000005,701.4443117000001,701.4476777,701.4596950000005,701.4596950000005,701.4596950000005,701.4596950000005,703.4598398999997,703.4598398999997,703.4598398999997,703.4598398999997,703.4442988999999,3,None,1.0479200999998284,0.36804810000012367,,,,,,,,,,,,,,,,,,,,,,8752,1,2025-06-25_19h05.37.345,sm,2024.2.4,59.97375548450806,2025-06-25 19h05.45.898143 +0200,
3,0,3,,,,,,space,5.973607300000367,None,None,3,None,1.3136499000002004,0.30004339999959484,0,0,0,0,,,,,1,0,1,0,,,,,3,0,3,0,703.4598398999997,,,,,,,,,,,,,,,,,,,,,,,,,,,,,,,,,,,,,,,,,,,,,,,,,,,,,,,,,Klippe,3.3712,703.4448074000002,703.4453132999997,703.4454198000003,703.4598398999997,706.8428614000004,706.8276622000003,706.8317779999998,706.8428614000004,706.8428614000004,706.8428614000004,706.8428614000004,708.8429661999999,708.8429661999999,708.8429661999999,708.8429661999999,708.8274950000005,3,None,1.3136499000002004,0.30004339999959484,,,,,,,,,,,,,,,,,,,,,,8752,1,2025-06-25_19h05.37.345,sm,2024.2.4,59.97375548450806,2025-06-25 19h05.45.898143 +0200,
4,0,4,,,,,,space,5.973607300000367,None,None,3,None,0.8568751000002521,0.38192109999999957,0,0,0,0,,,,,1,0,1,0,,,,,4,0,4,0,708.8429661999999,,,,,,,,,,,,,,,,,,,,,,,,,,,,,,,,,,,,,,,,,,,,,,,,,,,,,,,,,Hügel,2.0843,708.8280212,708.8285213999998,708.8286297000004,708.8429661999999,710.9426192000001,710.9269149000002,710.9304602000002,710.9426192000001,710.9426192000001,710.9426192000001,710.9426192000001,712.9426312000005,712.9426312000005,712.9426312000005,712.9426312000005,712.9270609000005,3,None,0.8568751000002521,0.38192109999999957,,,,,,,,,,,,,,,,,,,,,,8752,1,2025-06-25_19h05.37.345,sm,2024.2.4,59.97375548450806,2025-06-25 19h05.45.898143 +0200,
5,0,5,,,,,,space,5.973607300000367,None,None,2,None,1.1617581000000428,0.3159933999995701,0,0,0,0,,,,,1,0,1,0,,,,,5,0,5,0,712.9426312000005,,,,,,,,,,,,,,,,,,,,,,,,,,,,,,,,,,,,,,,,,,,,,,,,,,,,,,,,,Wissen,2.2658,712.9275528999997,712.9281975000004,712.9283052000001,712.9426312000005,715.2093752000001,715.1937379000001,715.1979298000006,715.2093752000001,715.2093752000001,715.2093752000001,715.2093752000001,717.2092647999998,717.2092647999998,717.2092647999998,717.2092647999998,717.1937972000005,2,None,1.1617581000000428,0.3159933999995701,,,,,,,,,,,,,,,,,,,,,,8752,1,2025-06-25_19h05.37.345,sm,2024.2.4,59.97375548450806,2025-06-25 19h05.45.898143 +0200,
6,0,6,,,,,,space,5.973607300000367,None,None,3,None,1.56929670000045,0.33132019999993645,0,0,0,0,,,,,1,0,1,0,,,,,6,0,6,0,717.2092647999998,,,,,,,,,,,,,,,,,,,,,,,,,,,,,,,,,,,,,,,,,,,,,,,,,,,,,,,,,Weiß,2.2678,717.1943023000003,717.1950715000003,717.1951779000001,717.2092647999998,719.4920941999999,719.4764813000002,719.4797294999998,719.4920941999999,719.4920941999999,719.4920941999999,719.4920941999999,721.4922793000005,721.4922793000005,721.4922793000005,721.4922793000005,721.4766190999999,3,None,1.56929670000045,0.33132019999993645,,,,,,,,,,,,,,,,,,,,,,8752,1,2025-06-25_19h05.37.345,sm,2024.2.4,59.97375548450806,2025-06-25 19h05.45.898143 +0200,
7,0,7,,,,,,space,5.973607300000367,None,None,2,None,0.9766819000005853,0.28128729999934876,0,0,0,0,,,,,1,0,1,0,,,,,7,0,7,0,721.4922793000005,,,,,,,,,,,,,,,,,,,,,,,,,,,,,,,,,,,,,,,,,,,,,,,,,,,,,,,,,Tischler,2.7553,721.4771246,721.4776294000003,721.4777399000004,721.4922793000005,724.2585494000004,724.2429234000001,724.2473817,724.2585494000004,724.2585494000004,724.2585494000004,724.2585494000004,726.2585397000003,726.2585397000003,726.2585397000003,726.2585397000003,726.2431142000005,2,None,0.9766819000005853,0.28128729999934876,,,,,,,,,,,,,,,,,,,,,,8752,1,2025-06-25_19h05.37.345,sm,2024.2.4,59.97375548450806,2025-06-25 19h05.45.898143 +0200,
8,0,8,,,,,,space,5.973607300000367,None,None,3,None,1.1463139999996201,0.3361763000002611,0,0,0,0,,,,,1,0,1,0,,,,,8,0,8,0,726.2585397000003,,,,,,,,,,,,,,,,,,,,,,,,,,,,,,,,,,,,,,,,,,,,,,,,,,,,,,,,,Keller,2.173,726.2436227999997,726.2443540000004,726.2444603000004,726.2585397000003,728.4414403999999,728.4263902000002,728.4300234000002,728.4414403999999,728.4414403999999,728.4414403999999,728.4414403999999,730.4415950000002,730.4415950000002,730.4415950000002,730.4415950000002,730.4258418999998,3,None,1.1463139999996201,0.3361763000002611,,,,,,,,,,,,,,,,,,,,,,8752,1,2025-06-25_19h05.37.345,sm,2024.2.4,59.97375548450806,2025-06-25 19h05.45.898143 +0200,
9,0,9,,,,,,space,5.973607300000367,None,None,2,None,1.1253498000005493,0.24499310000010155,0,0,0,0,,,,,1,0,1,0,,,,,9,0,9,0,730.4415950000002,,,,,,,,,,,,,,,,,,,,,,,,,,,,,,,,,,,,,,,,,,,,,,,,,,,,,,,,,Essen,2.6297,730.4263212000005,730.4268088999997,730.4269105000003,730.4415950000002,733.0747302999998,733.0590055000002,733.0626075,733.0747302999998,733.0747302999998,733.0747302999998,733.0747302999998,735.0746942000005,735.0746942000005,735.0746942000005,735.0746942000005,735.0590585,2,None,1.1253498000005493,0.24499310000010155,,,,,,,,,,,,,,,,,,,,,,8752,1,2025-06-25_19h05.37.345,sm,2024.2.4,59.97375548450806,2025-06-25 19h05.45.898143 +0200,
10,0,10,,,,,,space,5.973607300000367,None,None,2,None,1.469264000000294,0.24074479999944742,0,0,0,0,,,,,1,0,1,0,,,,,10,0,10,0,735.0746942000005,,,,,,,,,,,,,,,,,,,,,,,,,,,,,,,,,,,,,,,,,,,,,,,,,,,,,,,,,Hilfe,2.3253,735.0595438999999,735.0601715000003,735.0602866999998,735.0746942000005,737.4080850999999,737.3926163000006,737.3967242999997,737.4080850999999,737.4080850999999,737.4080850999999,737.4080850999999,739.4078988000001,739.4078988000001,739.4078988000001,739.4078988000001,739.3922984999999,2,None,1.469264000000294,0.24074479999944742,,,,,,,,,,,,,,,,,,,,,,8752,1,2025-06-25_19h05.37.345,sm,2024.2.4,59.97375548450806,2025-06-25 19h05.45.898143 +0200,
11,0,11,,,,,,space,5.973607300000367,None,None,3,None,1.1268785000002026,0.30119120000017574,0,0,0,0,,,,,1,0,1,0,,,,,11,0,11,0,739.4078988000001,,,,,,,,,,,,,,,,,,,,,,,,,,,,,,,,,,,,,,,,,,,,,,,,,,,,,,,,,Brille,2.184,739.3928029999997,739.3933273000002,739.3934356,739.4078988000001,741.6075535999998,741.5919253000002,741.5956931999999,741.6075535999998,741.6075535999998,741.6075535999998,741.6075535999998,743.6075361000003,743.6075361000003,743.6075361000003,743.6075361000003,743.5921004000002,3,None,1.1268785000002026,0.30119120000017574,,,,,,,,,,,,,,,,,,,,,,8752,1,2025-06-25_19h05.37.345,sm,2024.2.4,59.97375548450806,2025-06-25 19h05.45.898143 +0200,
12,0,12,,,,,,space,5.973607300000367,None,None,2,None,0.9894898000002286,0.2754820000000109,0,0,0,0,,,,,1,0,1,0,,,,,12,0,12,0,743.6075361000003,,,,,,,,,,,,,,,,,,,,,,,,,,,,,,,,,,,,,,,,,,,,,,,,,,,,,,,,,Luft,3.0643,743.5926168000005,743.5931294000002,743.5932369000002,743.6075361000003,746.6737910000002,746.6582622000005,746.6613641000004,746.6737910000002,746.6737910000002,746.6737910000002,746.6737910000002,748.6740464000004,748.6740464000004,748.6740464000004,748.6740464000004,748.6584216000001,2,None,0.9894898000002286,0.2754820000000109,,,,,,,,,,,,,,,,,,,,,,8752,1,2025-06-25_19h05.37.345,sm,2024.2.4,59.97375548450806,2025-06-25 19h05.45.898143 +0200,
13,0,13,,,,,,space,5.973607300000367,None,None,2,None,0.857478899999478,0.30923560000064754,0,0,0,0,,,,,1,0,1,0,,,,,13,0,13,0,748.6740464000004,,,,,,,,,,,,,,,,,,,,,,,,,,,,,,,,,,,,,,,,,,,,,,,,,,,,,,,,,Gesicht,2.5038,748.6589308000002,748.6595046000002,748.6596129,748.6740464000004,751.1904310999998,751.1747541000004,751.1788197000005,751.1904310999998,751.1904310999998,751.1904310999998,751.1904310999998,753.1903640999999,753.1903640999999,753.1903640999999,753.1903640999999,753.1748048999998,2,None,0.857478899999478,0.30923560000064754,,,,,,,,,,,,,,,,,,,,,,8752,1,2025-06-25_19h05.37.345,sm,2024.2.4,59.97375548450806,2025-06-25 19h05.45.898143 +0200,
14,0,14,,,,,,space,5.973607300000367,None,None,2,None,1.0418100999995659,0.27626650000001973,0,0,0,0,,,,,1,0,1,0,,,,,14,0,14,0,753.1903640999999,,,,,,,,,,,,,,,,,,,,,,,,,,,,,,,,,,,,,,,,,,,,,,,,,,,,,,,,,Trennung,2.7506,753.1753263,753.1759934000002,753.1761032000004,753.1903640999999,755.9400198000003,755.9244644,755.9289096000002,755.9400198000003,755.9400198000003,755.9400198000003,755.9400198000003,757.9401481000004,757.9401481000004,757.9401481000004,757.9401481000004,757.9245659999997,2,None,1.0418100999995659,0.27626650000001973,,,,,,,,,,,,,,,,,,,,,,8752,1,2025-06-25_19h05.37.345,sm,2024.2.4,59.97375548450806,2025-06-25 19h05.45.898143 +0200,
15,0,15,,,,,,space,5.973607300000367,None,None,3,None,0.9317026999997324,0.36534120000033,0,0,0,0,,,,,1,0,1,0,,,,,15,0,15,0,757.9401481000004,,,,,,,,,,,,,,,,,,,,,,,,,,,,,,,,,,,,,,,,,,,,,,,,,,,,,,,,,Juwel,4.2007,757.9250732999999,757.9255837999999,757.9256912999999,757.9401481000004,762.1401752000002,762.1242643000005,762.1306732000003,762.1401752000002,762.1401752000002,762.1401752000002,762.1401752000002,764.1399262000004,764.1399262000004,764.1399262000004,764.1399262000004,764.1237384000005,3,None,0.9317026999997324,0.36534120000033,,,,,,,,,,,,,,,,,,,,,,8752,1,2025-06-25_19h05.37.345,sm,2024.2.4,59.97375548450806,2025-06-25 19h05.45.898143 +0200,
16,0,16,,,,,,space,5.973607300000367,None,None,2,None,1.1002332999996725,0.2956309000001056,0,0,0,0,,,,,1,0,1,0,,,,,16,0,16,0,764.1399262000004,,,,,,,,,,,,,,,,,,,,,,,,,,,,,,,,,,,,,,,,,,,,,,,,,,,,,,,,,Krieg,3.3562,764.1241605000005,764.1246147000002,764.1247039,764.1399262000004,767.5061492000004,767.4904882999999,767.4944665000003,767.5061492000004,767.5061492000004,767.5061492000004,767.5061492000004,769.5065074000004,769.5065074000004,769.5065074000004,769.5065074000004,769.4906356000001,2,None,1.1002332999996725,0.2956309000001056,,,,,,,,,,,,,,,,,,,,,,8752,1,2025-06-25_19h05.37.345,sm,2024.2.4,59.97375548450806,2025-06-25 19h05.45.898143 +0200,
17,0,17,,,,,,space,5.973607300000367,None,None,2,None,1.00217210000028,0.2837179999996806,0,0,0,0,,,,,1,0,1,0,,,,,17,0,17,0,769.5065074000004,,,,,,,,,,,,,,,,,,,,,,,,,,,,,,,,,,,,,,,,,,,,,,,,,,,,,,,,,Arbeit,5.3962,769.4911460000003,769.4916648999997,769.4917686999997,769.5065074000004,774.9057500999998,774.8901029999997,774.8942100000004,774.9057500999998,774.9057500999998,774.9057500999998,774.9057500999998,776.9057131,776.9057131,776.9057131,776.9057131,776.8906403000001,2,None,1.00217210000028,0.2837179999996806,,,,,,,,,,,,,,,,,,,,,,8752,1,2025-06-25_19h05.37.345,sm,2024.2.4,59.97375548450806,2025-06-25 19h05.45.898143 +0200,
18,0,18,,,,,,space,5.973607300000367,None,None,2,None,1.0065075000002253,0.27963869999985036,0,0,0,0,,,,,1,0,1,0,,,,,18,0,18,0,776.9057131,,,,,,,,,,,,,,,,,,,,,,,,,,,,,,,,,,,,,,,,,,,,,,,,,,,,,,,,,Schläger,2.4808,776.8911494000004,776.8916576000001,776.8917713999999,776.9057131,779.3886128000004,779.3731629000004,779.3768448000001,779.3886128000004,779.3886128000004,779.3886128000004,779.3886128000004,781.3887442000005,781.3887442000005,781.3887442000005,781.3887442000005,781.3732532000004,2,None,1.0065075000002253,0.27963869999985036,,,,,,,,,,,,,,,,,,,,,,8752,1,2025-06-25_19h05.37.345,sm,2024.2.4,59.97375548450806,2025-06-25 19h05.45.898143 +0200,
19,0,19,,,,,,space,5.973607300000367,None,None,2,None,0.7778037999996741,0.25794539999969857,0,0,0,0,,,,,1,0,1,0,,,,,19,0,19,0,781.3887442000005,,,,,,,,,,,,,,,,,,,,,,,,,,,,,,,,,,,,,,,,,,,,,,,,,,,,,,,,,Student,2.2259,781.3737558000003,781.3743708000002,781.3745455999997,781.3887442000005,783.6219528000001,783.6062315999998,783.6099312000006,783.6219528000001,783.6219528000001,783.6219528000001,783.6219528000001,785.6217407000004,785.6217407000004,785.6217407000004,785.6217407000004,785.6063011000006,2,None,0.7778037999996741,0.25794539999969857,,,,,,,,,,,,,,,,,,,,,,8752,1,2025-06-25_19h05.37.345,sm,2024.2.4,59.97375548450806,2025-06-25 19h05.45.898143 +0200,
20,0,20,,,,,,space,5.973607300000367,None,None,2,None,0.866805700000441,0.2555481999997937,0,0,0,0,,,,,1,0,1,0,,,,,20,0,20,0,785.6217407000004,,,,,,,,,,,,,,,,,,,,,,,,,,,,,,,,,,,,,,,,,,,,,,,,,,,,,,,,,Arm,2.0105,785.6068093000004,785.6073309000003,785.607438,785.6217407000004,787.6383145,787.6226409000001,787.6263389000005,787.6383145,787.6383145,787.6383145,787.6383145,789.6386128000004,789.6386128000004,789.6386128000004,789.6386128000004,789.6226666000002,2,None,0.866805700000441,0.2555481999997937,,,,,,,,,,,,,,,,,,,,,,8752,1,2025-06-25_19h05.37.345,sm,2024.2.4,59.97375548450806,2025-06-25 19h05.45.898143 +0200,
21,0,21,,,,,,space,5.973607300000367,None,None,3,None,1.1138362000001507,0.3038592000002609,0,0,0,0,,,,,1,0,1,0,,,,,21,0,21,0,789.6386128000004,,,,,,,,,,,,,,,,,,,,,,,,,,,,,,,,,,,,,,,,,,,,,,,,,,,,,,,,,Seife,2.3906,789.6231680000001,789.6238255999997,789.6239338000005,789.6386128000004,792.0380421999998,792.0226344000002,792.0267371,792.0380421999998,792.0380421999998,792.0380421999998,792.0380421999998,794.0384715,794.0384715,794.0384715,794.0384715,794.0224929000005,3,None,1.1138362000001507,0.3038592000002609,,,,,,,,,,,,,,,,,,,,,,8752,1,2025-06-25_19h05.37.345,sm,2024.2.4,59.97375548450806,2025-06-25 19h05.45.898143 +0200,
22,0,22,,,,,,space,5.973607300000367,None,None,3,None,0.9545032000005449,0.34263039999950706,0,0,0,0,,,,,1,0,1,0,,,,,22,0,22,0,794.0384715,,,,,,,,,,,,,,,,,,,,,,,,,,,,,,,,,,,,,,,,,,,,,,,,,,,,,,,,,Tee,3.4482,794.0229986000004,794.0236443000003,794.0237514,794.0384715,797.4877078,797.4720372000002,797.4751113000002,797.4877078,797.4877078,797.4877078,797.4877078,799.4877150000002,799.4877150000002,799.4877150000002,799.4877150000002,799.4721181000004,3,None,0.9545032000005449,0.34263039999950706,,,,,,,,,,,,,,,,,,,,,,8752,1,2025-06-25_19h05.37.345,sm,2024.2.4,59.97375548450806,2025-06-25 19h05.45.898143 +0200,
23,0,23,,,,,,space,5.973607300000367,None,None,2,None,0.8776834000000235,0.2618525999996564,0,0,0,0,,,,,1,0,1,0,,,,,23,0,23,0,799.4877150000002,,,,,,,,,,,,,,,,,,,,,,,,,,,,,,,,,,,,,,,,,,,,,,,,,,,,,,,,,Applaus,3.7606,799.4726265999998,799.4732776000001,799.4733855000004,799.4877150000002,803.2541726999998,803.2384124999999,803.2421446999997,803.2541726999998,803.2541726999998,803.2541726999998,803.2541726999998,805.2540162000005,805.2540162000005,805.2540162000005,805.2540162000005,805.2385052,2,None,0.8776834000000235,0.2618525999996564,,,,,,,,,,,,,,,,,,,,,,8752,1,2025-06-25_19h05.37.345,sm,2024.2.4,59.97375548450806,2025-06-25 19h05.45.898143 +0200,
24,0,24,,,,,,space,5.973607300000367,None,None,3,None,1.3819982999993954,0.3034120000002076,0,0,0,0,,,,,1,0,1,0,,,,,24,0,24,0,805.2540162000005,,,,,,,,,,,,,,,,,,,,,,,,,,,,,,,,,,,,,,,,,,,,,,,,,,,,,,,,,Olympia,2.9399,805.2390092000005,805.2395094000003,805.2396165,805.2540162000005,808.2036651999997,808.1882009999999,808.1953082999999,808.2036651999997,808.2036651999997,808.2036651999997,808.2036651999997,810.2037747000004,810.2037747000004,810.2037747000004,810.2037747000004,810.1883831000005,3,None,1.3819982999993954,0.3034120000002076,,,,,,,,,,,,,,,,,,,,,,8752,1,2025-06-25_19h05.37.345,sm,2024.2.4,59.97375548450806,2025-06-25 19h05.45.898143 +0200,
25,0,25,,,,,,space,5.973607300000367,None,None,2,None,1.5025613999996494,0.27067820000047504,0,0,0,0,,,,,1,0,1,0,,,,,25,0,25,0,810.2037747000004,,,,,,,,,,,,,,,,,,,,,,,,,,,,,,,,,,,,,,,,,,,,,,,,,,,,,,,,,Tanz,3.3631,810.1888896,810.1894182000005,810.1895251000005,810.2037747000004,813.5701802000003,813.5545059000005,813.5574920999998,813.5701802000003,813.5701802000003,813.5701802000003,813.5701802000003,815.5702652,815.5702652,815.5702652,815.5702652,815.5545700000002,2,None,1.5025613999996494,0.27067820000047504,,,,,,,,,,,,,,,,,,,,,,8752,1,2025-06-25_19h05.37.345,sm,2024.2.4,59.97375548450806,2025-06-25 19h05.45.898143 +0200,
26,0,26,,,,,,space,5.973607300000367,None,None,3,None,1.2239072000002125,0.3160885999996026,0,0,0,0,,,,,1,0,1,0,,,,,26,0,26,0,815.5702652,,,,,,,,,,,,,,,,,,,,,,,,,,,,,,,,,,,,,,,,,,,,,,,,,,,,,,,,,Vers,2.5452,815.5550776,815.5555783,815.5556827999999,815.5702652,818.1199166000006,818.1041876999998,818.1087722000002,818.1199166000006,818.1199166000006,818.1199166000006,818.1199166000006,820.1198306000006,820.1198306000006,820.1198306000006,820.1198306000006,820.1042945999998,3,None,1.2239072000002125,0.3160885999996026,,,,,,,,,,,,,,,,,,,,,,8752,1,2025-06-25_19h05.37.345,sm,2024.2.4,59.97375548450806,2025-06-25 19h05.45.898143 +0200,
27,0,27,,,,,,space,5.973607300000367,None,None,3,None,1.2101432999997996,0.2918222999996942,0,0,0,0,,,,,1,0,1,0,,,,,27,0,27,0,820.1198306000006,,,,,,,,,,,,,,,,,,,,,,,,,,,,,,,,,,,,,,,,,,,,,,,,,,,,,,,,,Netz,4.6325,820.1048025,820.1053136,820.1054217000001,820.1198306000006,824.7526764000004,824.7371216000001,824.7407224999997,824.7526764000004,824.7526764000004,824.7526764000004,824.7526764000004,826.7526783000003,826.7526783000003,826.7526783000003,826.7526783000003,826.7375898,3,None,1.2101432999997996,0.2918222999996942,,,,,,,,,,,,,,,,,,,,,,8752,1,2025-06-25_19h05.37.345,sm,2024.2.4,59.97375548450806,2025-06-25 19h05.45.898143 +0200,
28,0,28,,,,,,space,5.973607300000367,None,None,2,None,0.9678357000002507,0.2781049000004714,0,0,0,0,,,,,1,0,1,0,,,,,28,0,28,0,826.7526783000003,,,,,,,,,,,,,,,,,,,,,,,,,,,,,,,,,,,,,,,,,,,,,,,,,,,,,,,,,Ostern,5.1098,826.7380965000002,826.7386015000002,826.7387078000002,826.7526783000003,831.8693556999997,831.8540058999997,831.8587615000006,831.8693556999997,831.8693556999997,831.8693556999997,831.8693556999997,833.8691079999999,833.8691079999999,833.8691079999999,833.8691079999999,833.8534842999998,2,None,0.9678357000002507,0.2781049000004714,,,,,,,,,,,,,,,,,,,,,,8752,1,2025-06-25_19h05.37.345,sm,2024.2.4,59.97375548450806,2025-06-25 19h05.45.898143 +0200,
29,0,29,,,,,,space,5.973607300000367,None,None,2,None,1.8435945999999603,None,0,0,0,0,,,,,1,0,1,0,,,,,29,0,29,0,833.8691079999999,,,,,,,,,,,,,,,,,,,,,,,,,,,,,,,,,,,,,,,,,,,,,,,,,,,,,,,,,Beugen,2.1396,833.8539864000004,833.8546327000004,833.8547407000005,833.8691079999999,836.0188647000004,836.0031874000006,836.0070211000002,836.0188647000004,836.0188647000004,836.0188647000004,836.0188647000004,838.0187433000001,838.0187433000001,838.0187433000001,838.0187433000001,838.0033267999997,2,None,1.8435945999999603,None,,,,,,,,,,,,,,,,,,,,,,8752,1,2025-06-25_19h05.37.345,sm,2024.2.4,59.97375548450806,2025-06-25 19h05.45.898143 +0200,
30,0,30,,,,,,space,5.973607300000367,None,None,2,None,0.7637864999996964,0.2937829000002239,0,0,0,0,,,,,1,0,1,0,,,,,30,0,30,0,838.0187433000001,,,,,,,,,,,,,,,,,,,,,,,,,,,,,,,,,,,,,,,,,,,,,,,,,,,,,,,,,Fisch,4.0356,838.0038348999997,838.0045074999998,838.0046155,838.0187433000001,842.0685229000001,842.0531256000004,842.0571119000006,842.0685229000001,842.0685229000001,842.0685229000001,842.0685229000001,844.0686004999998,844.0686004999998,844.0686004999998,844.0686004999998,844.0528033999999,2,None,0.7637864999996964,0.2937829000002239,,,,,,,,,,,,,,,,,,,,,,8752,1,2025-06-25_19h05.37.345,sm,2024.2.4,59.97375548450806,2025-06-25 19h05.45.898143 +0200,
31,0,31,,,,,,space,5.973607300000367,None,None,2,None,0.9388159999998607,0.25816930000019056,0,0,0,0,,,,,1,0,1,0,,,,,31,0,31,0,844.0686004999998,,,,,,,,,,,,,,,,,,,,,,,,,,,,,,,,,,,,,,,,,,,,,,,,,,,,,,,,,Sumpf,2.6884,844.0532531999997,844.0537254999999,844.0538222000005,844.0686004999998,846.7680505999997,846.7530171999997,846.7567172999998,846.7680505999997,846.7680505999997,846.7680505999997,846.7680505999997,848.7683108000001,848.7683108000001,848.7683108000001,848.7683108000001,848.7530617000002,2,None,0.9388159999998607,0.25816930000019056,,,,,,,,,,,,,,,,,,,,,,8752,1,2025-06-25_19h05.37.345,sm,2024.2.4,59.97375548450806,2025-06-25 19h05.45.898143 +0200,
32,0,32,,,,,,space,5.973607300000367,None,None,3,None,1.123040200000105,0.3088203000006615,0,0,0,0,,,,,1,0,1,0,,,,,32,0,32,0,848.7683108000001,,,,,,,,,,,,,,,,,,,,,,,,,,,,,,,,,,,,,,,,,,,,,,,,,,,,,,,,,Gewürz,2.1151,848.7535680999999,848.7540927999999,848.7542006000003,848.7683108000001,850.8846032000001,850.8690121,850.8753954000003,850.8846032000001,850.8846032000001,850.8846032000001,850.8846032000001,852.8847700000006,852.8847700000006,852.8847700000006,852.8847700000006,852.8691283999997,3,None,1.123040200000105,0.3088203000006615,,,,,,,,,,,,,,,,,,,,,,8752,1,2025-06-25_19h05.37.345,sm,2024.2.4,59.97375548450806,2025-06-25 19h05.45.898143 +0200,
33,0,33,,,,,,space,5.973607300000367,None,None,2,None,1.1985807000000932,0.2622258999999758,0,0,0,0,,,,,1,0,1,0,,,,,33,0,33,0,852.8847700000006,,,,,,,,,,,,,,,,,,,,,,,,,,,,,,,,,,,,,,,,,,,,,,,,,,,,,,,,,Kopf,3.9567,852.8696384000004,852.8701552000002,852.8702617999998,852.8847700000006,856.8509401000001,856.8354135,856.8391010000005,856.8509401000001,856.8509401000001,856.8509401000001,856.8509401000001,858.8511808000003,858.8511808000003,858.8511808000003,858.8511808000003,858.8353611000002,2,None,1.1985807000000932,0.2622258999999758,,,,,,,,,,,,,,,,,,,,,,8752,1,2025-06-25_19h05.37.345,sm,2024.2.4,59.97375548450806,2025-06-25 19h05.45.898143 +0200,
34,0,34,,,,,,space,5.973607300000367,None,None,2,None,1.3418479000001753,0.2679675999997926,0,0,0,0,,,,,1,0,1,0,,,,,34,0,34,0,858.8511808000003,,,,,,,,,,,,,,,,,,,,,,,,,,,,,,,,,,,,,,,,,,,,,,,,,,,,,,,,,Postkarte,2.182,858.8358628000005,858.8363685000004,858.8364810000003,858.8511808000003,861.0340622000003,861.0184884999999,861.0229046000004,861.0340622000003,861.0340622000003,861.0340622000003,861.0340622000003,863.0340072999998,863.0340072999998,863.0340072999998,863.0340072999998,863.0187292999999,2,None,1.3418479000001753,0.2679675999997926,,,,,,,,,,,,,,,,,,,,,,8752,1,2025-06-25_19h05.37.345,sm,2024.2.4,59.97375548450806,2025-06-25 19h05.45.898143 +0200,
35,0,35,,,,,,space,5.973607300000367,None,None,2,None,0.7737816999997449,0.2234264999997322,0,0,0,0,,,,,1,0,1,0,,,,,35,0,35,0,863.0340072999998,,,,,,,,,,,,,,,,,,,,,,,,,,,,,,,,,,,,,,,,,,,,,,,,,,,,,,,,,Team,3.1211,863.0192324999998,863.0197918000003,863.0199008999998,863.0340072999998,866.1670983000004,866.1513224,866.1544326000003,866.1670983000004,866.1670983000004,866.1670983000004,866.1670983000004,868.1670828000006,868.1670828000006,868.1670828000006,868.1670828000006,868.1517131999999,2,None,0.7737816999997449,0.2234264999997322,,,,,,,,,,,,,,,,,,,,,,8752,1,2025-06-25_19h05.37.345,sm,2024.2.4,59.97375548450806,2025-06-25 19h05.45.898143 +0200,
36,0,36,,,,,,space,5.973607300000367,None,None,2,None,1.2248921999998856,0.301653599999554,0,0,0,0,,,,,1,0,1,0,,,,,36,0,36,0,868.1670828000006,,,,,,,,,,,,,,,,,,,,,,,,,,,,,,,,,,,,,,,,,,,,,,,,,,,,,,,,,Popcorn,2.9673,868.1522255,868.1527390000001,868.1528472,868.1670828000006,871.1335303000005,871.1181274,871.1221808,871.1335303000005,871.1335303000005,871.1335303000005,871.1335303000005,873.1335051000005,873.1335051000005,873.1335051000005,873.1335051000005,873.1178544000004,2,None,1.2248921999998856,0.301653599999554,,,,,,,,,,,,,,,,,,,,,,8752,1,2025-06-25_19h05.37.345,sm,2024.2.4,59.97375548450806,2025-06-25 19h05.45.898143 +0200,
37,0,37,,,,,,space,5.973607300000367,None,None,3,None,1.033831800000371,0.2499930999993012,0,0,0,0,,,,,1,0,1,0,,,,,37,0,37,0,873.1335051000005,,,,,,,,,,,,,,,,,,,,,,,,,,,,,,,,,,,,,,,,,,,,,,,,,,,,,,,,,Dip,3.3366,873.1183673000005,873.1188656000004,873.1189788000001,873.1335051000005,876.4831030000005,876.4676164000002,876.4708142999998,876.4831030000005,876.4831030000005,876.4831030000005,876.4831030000005,878.4833427000003,878.4833427000003,878.4833427000003,878.4833427000003,878.4675960000004,3,None,1.033831800000371,0.2499930999993012,,,,,,,,,,,,,,,,,,,,,,8752,1,2025-06-25_19h05.37.345,sm,2024.2.4,59.97375548450806,2025-06-25 19h05.45.898143 +0200,
38,0,38,,,,,,space,5.973607300000367,None,None,3,None,0.9493997999998101,0.3160795000003418,0,0,0,0,,,,,1,0,1,0,,,,,38,0,38,0,878.4833427000003,,,,,,,,,,,,,,,,,,,,,,,,,,,,,,,,,,,,,,,,,,,,,,,,,,,,,,,,,Rose,4.8284,878.4680475000005,878.4686640999998,878.4687574999998,878.4833427000003,883.3161841000001,883.3006106000003,883.3043647000004,883.3161841000001,883.3161841000001,883.3161841000001,883.3161841000001,885.3162256000005,885.3162256000005,885.3162256000005,885.3162256000005,885.3004976000002,3,None,0.9493997999998101,0.3160795000003418,,,,,,,,,,,,,,,,,,,,,,8752,1,2025-06-25_19h05.37.345,sm,2024.2.4,59.97375548450806,2025-06-25 19h05.45.898143 +0200,
39,0,39,,,,,,space,5.973607300000367,None,None,2,None,0.7099269999998796,0.25675630000023375,0,0,0,0,,,,,1,0,1,0,,,,,39,0,39,0,885.3162256000005,,,,,,,,,,,,,,,,,,,,,,,,,,,,,,,,,,,,,,,,,,,,,,,,,,,,,,,,,Lachen,4.3047,885.3010003999998,885.3015809999997,885.3016877999999,885.3162256000005,889.632423,889.6166497000004,889.6212985000002,889.632423,889.632423,889.632423,889.632423,891.6324558000006,891.6324558000006,891.6324558000006,891.6324558000006,891.6170774000002,2,None,0.7099269999998796,0.25675630000023375,,,,,,,,,,,,,,,,,,,,,,8752,1,2025-06-25_19h05.37.345,sm,2024.2.4,59.97375548450806,2025-06-25 19h05.45.898143 +0200,
40,0,40,,,,,,space,5.973607300000367,None,None,2,None,1.154551700000411,0.2623118000001341,0,0,0,0,,,,,1,0,1,0,,,,,40,0,40,0,891.6324558000006,,,,,,,,,,,,,,,,,,,,,,,,,,,,,,,,,,,,,,,,,,,,,,,,,,,,,,,,,Baum,2.5402,891.6175991,891.6181023999998,891.6182085999999,891.6324558000006,894.1821928999998,894.1664608000001,894.1698690000003,894.1821928999998,894.1821928999998,894.1821928999998,894.1821928999998,896.1821657999999,896.1821657999999,896.1821657999999,896.1821657999999,896.1667181000003,2,None,1.154551700000411,0.2623118000001341,,,,,,,,,,,,,,,,,,,,,,8752,1,2025-06-25_19h05.37.345,sm,2024.2.4,59.97375548450806,2025-06-25 19h05.45.898143 +0200,
41,0,41,,,,,,space,5.973607300000367,None,None,3,None,1.2067314000005354,0.27540809999936755,0,0,0,0,,,,,1,0,1,0,,,,,41,0,41,0,896.1821657999999,,,,,,,,,,,,,,,,,,,,,,,,,,,,,,,,,,,,,,,,,,,,,,,,,,,,,,,,,Nummer,2.3395,896.1672318999999,896.1677586000005,896.1678661000005,896.1821657999999,898.5318385,898.5165480000005,898.5207516,898.5318385,898.5318385,898.5318385,898.5318385,900.5320787,900.5320787,900.5320787,900.5320787,900.5163180999998,3,None,1.2067314000005354,0.27540809999936755,,,,,,,,,,,,,,,,,,,,,,8752,1,2025-06-25_19h05.37.345,sm,2024.2.4,59.97375548450806,2025-06-25 19h05.45.898143 +0200,
42,0,42,,,,,,space,5.973607300000367,None,None,2,None,0.8097875000003114,0.26868329999979323,0,0,0,0,,,,,1,0,1,0,,,,,42,0,42,0,900.5320787,,,,,,,,,,,,,,,,,,,,,,,,,,,,,,,,,,,,,,,,,,,,,,,,,,,,,,,,,Hai,4.8309,900.5168216000002,900.5173522000005,900.5174611000002,900.5320787,905.3650926,905.3492805000005,905.3529071000003,905.3650926,905.3650926,905.3650926,905.3650926,907.3648123000003,907.3648123000003,907.3648123000003,907.3648123000003,907.3494231000004,2,None,0.8097875000003114,0.26868329999979323,,,,,,,,,,,,,,,,,,,,,,8752,1,2025-06-25_19h05.37.345,sm,2024.2.4,59.97375548450806,2025-06-25 19h05.45.898143 +0200,
43,0,43,,,,,,space,5.973607300000367,None,None,2,None,1.0614966000002823,0.3012518999994427,0,0,0,0,,,,,1,0,1,0,,,,,43,0,43,0,907.3648123000003,,,,,,,,,,,,,,,,,,,,,,,,,,,,,,,,,,,,,,,,,,,,,,,,,,,,,,,,,Sauber,2.0041,907.3499315999998,907.3504400000002,907.3505491000005,907.3648123000003,909.3814542999999,909.3659471000001,909.3699541000005,909.3814542999999,909.3814542999999,909.3814542999999,909.3814542999999,911.3813680000003,911.3813680000003,911.3813680000003,911.3813680000003,911.3656504999999,2,None,1.0614966000002823,0.3012518999994427,,,,,,,,,,,,,,,,,,,,,,8752,1,2025-06-25_19h05.37.345,sm,2024.2.4,59.97375548450806,2025-06-25 19h05.45.898143 +0200,
44,0,44,,,,,,space,5.973607300000367,None,None,3,None,0.9820050999996965,0.31429000000025553,0,0,0,0,,,,,1,0,1,0,,,,,44,0,44,0,911.3813680000003,,,,,,,,,,,,,,,,,,,,,,,,,,,,,,,,,,,,,,,,,,,,,,,,,,,,,,,,,Schlüssel,2.5689,911.3661577000003,911.3666658000002,911.3667739000002,911.3813680000003,913.9642474000002,913.9488137999997,913.9527611000003,913.9642474000002,913.9642474000002,913.9642474000002,913.9642474000002,915.9644752000004,915.9644752000004,915.9644752000004,915.9644752000004,915.9487418999997,3,None,0.9820050999996965,0.31429000000025553,,,,,,,,,,,,,,,,,,,,,,8752,1,2025-06-25_19h05.37.345,sm,2024.2.4,59.97375548450806,2025-06-25 19h05.45.898143 +0200,
45,0,45,,,,,,space,5.973607300000367,None,None,2,None,0.8793383000001995,0.2692416999998386,0,0,0,0,,,,,1,0,1,0,,,,,45,0,45,0,915.9644752000004,,,,,,,,,,,,,,,,,,,,,,,,,,,,,,,,,,,,,,,,,,,,,,,,,,,,,,,,,Kunst,2.6556,915.9492496000003,915.9497503000002,915.9498571000004,915.9644752000004,918.6303742,918.6151786999999,918.6185930000001,918.6303742,918.6303742,918.6303742,918.6303742,920.6306653000001,920.6306653000001,920.6306653000001,920.6306653000001,920.615296,2,None,0.8793383000001995,0.2692416999998386,,,,,,,,,,,,,,,,,,,,,,8752,1,2025-06-25_19h05.37.345,sm,2024.2.4,59.97375548450806,2025-06-25 19h05.45.898143 +0200,
46,0,46,,,,,,space,5.973607300000367,None,None,2,None,1.0222939999994196,0.2832441000000472,0,0,0,0,,,,,1,0,1,0,,,,,46,0,46,0,920.6306653000001,,,,,,,,,,,,,,,,,,,,,,,,,,,,,,,,,,,,,,,,,,,,,,,,,,,,,,,,,Weltraum,2.1286,920.6158004999998,920.6163008000003,920.6164064000004,920.6306653000001,922.7636023000005,922.7481770000004,922.7526076000004,922.7636023000005,922.7636023000005,922.7636023000005,922.7636023000005,924.7638200000001,924.7638200000001,924.7638200000001,924.7638200000001,924.7484046,2,None,1.0222939999994196,0.2832441000000472,,,,,,,,,,,,,,,,,,,,,,8752,1,2025-06-25_19h05.37.345,sm,2024.2.4,59.97375548450806,2025-06-25 19h05.45.898143 +0200,
47,0,47,,,,,,space,5.973607300000367,None,None,2,None,1.0114230999997744,0.26923660000011296,0,0,0,0,,,,,1,0,1,0,,,,,47,0,47,0,924.7638200000001,,,,,,,,,,,,,,,,,,,,,,,,,,,,,,,,,,,,,,,,,,,,,,,,,,,,,,,,,Soße,2.3409,924.7489164999997,924.7494272000004,924.7495325,924.7638200000001,927.1135787000003,927.0979446000001,927.1012460000002,927.1135787000003,927.1135787000003,927.1135787000003,927.1135787000003,929.1138278999997,929.1138278999997,929.1138278999997,929.1138278999997,929.0980160999998,2,None,1.0114230999997744,0.26923660000011296,,,,,,,,,,,,,,,,,,,,,,8752,1,2025-06-25_19h05.37.345,sm,2024.2.4,59.97375548450806,2025-06-25 19h05.45.898143 +0200,
48,0,48,,,,,,space,5.973607300000367,None,None,2,None,1.2529483999996955,0.21740049999971234,0,0,0,0,,,,,1,0,1,0,,,,,48,0,48,0,929.1138278999997,,,,,,,,,,,,,,,,,,,,,,,,,,,,,,,,,,,,,,,,,,,,,,,,,,,,,,,,,Klee,2.904,929.0985280000004,929.0990286000006,929.0991353,929.1138278999997,932.0298920000005,932.0139307,932.0166524000006,932.0298920000005,932.0298920000005,932.0298920000005,932.0298920000005,,,,,934.0158728000006,2,None,1.2529483999996955,0.21740049999971234,,,,,,,,,,,,,,,,,,,,,,8752,1,2025-06-25_19h05.37.345,sm,2024.2.4,59.97375548450806,2025-06-25 19h05.45.898143 +0200,
49,0,49,,,,,,space,5.973607300000367,None,None,2,None,0.7305569999998625,0.25314539999999397,0,0,0,0,,,,,1,0,1,0,,,,,49,0,49,0,934.0301128000001,,,,,,,,,,,,,,,,,,,,,,,,,,,,,,,,,,,,,,,,,,,,,,,,,,,,,,,,,Blumen,2.2948,934.0163744000001,934.0172232000004,934.0173412000004,934.0301128000001,936.3297910000001,936.3144256000005,936.3184431,936.3297910000001,936.3297910000001,936.3297910000001,936.3297910000001,938.3297689000001,938.3297689000001,938.3297689000001,938.3297689000001,938.3137530000004,2,None,0.7305569999998625,0.25314539999999397,,,,,,,,,,,,,,,,,,,,,,8752,1,2025-06-25_19h05.37.345,sm,2024.2.4,59.97375548450806,2025-06-25 19h05.45.898143 +0200,
50,0,50,,,,,,space,5.973607300000367,None,None,2,None,0.8175583999991431,0.2623124000001553,0,0,0,0,,,,,1,0,1,0,,,,,50,0,50,0,938.3297689000001,,,,,,,,,,,,,,,,,,,,,,,,,,,,,,,,,,,,,,,,,,,,,,,,,,,,,,,,,Freund,3.952,938.3141899000002,938.3146391,938.3147276,938.3297689000001,942.2961356000005,942.2801717000002,942.2837394999997,942.2961356000005,942.2961356000005,942.2961356000005,942.2961356000005,944.2961302000003,944.2961302000003,944.2961302000003,944.2961302000003,944.2804862000003,2,None,0.8175583999991431,0.2623124000001553,,,,,,,,,,,,,,,,,,,,,,8752,1,2025-06-25_19h05.37.345,sm,2024.2.4,59.97375548450806,2025-06-25 19h05.45.898143 +0200,
51,0,51,,,,,,space,5.973607300000367,None,None,2,None,0.739764699999796,0.2633683000003657,0,0,0,0,,,,,1,0,1,0,,,,,51,0,51,0,944.2961302000003,,,,,,,,,,,,,,,,,,,,,,,,,,,,,,,,,,,,,,,,,,,,,,,,,,,,,,,,,Schwester,3.627,944.2809871999998,944.2816469999998,944.2817577000005,944.2961302000003,947.9294951000002,947.9136132000003,947.9179921000004,947.9294951000002,947.9294951000002,947.9294951000002,947.9294951000002,949.9293477000001,949.9293477000001,949.9293477000001,949.9293477000001,949.9136075000006,2,None,0.739764699999796,0.2633683000003657,,,,,,,,,,,,,,,,,,,,,,8752,1,2025-06-25_19h05.37.345,sm,2024.2.4,59.97375548450806,2025-06-25 19h05.45.898143 +0200,
52,0,52,,,,,,space,5.973607300000367,None,None,3,None,1.2430420000000595,0.34679460000006657,0,0,0,0,,,,,1,0,1,0,,,,,52,0,52,0,949.9293477000001,,,,,,,,,,,,,,,,,,,,,,,,,,,,,,,,,,,,,,,,,,,,,,,,,,,,,,,,,Album,4.055,949.9141194000003,949.9146286000005,949.9147350000003,949.9293477000001,953.9954150000003,953.9798762,953.9835085000004,953.9954150000003,953.9954150000003,953.9954150000003,953.9954150000003,955.9955307999999,955.9955307999999,955.9955307999999,955.9955307999999,955.9800212999999,3,None,1.2430420000000595,0.34679460000006657,,,,,,,,,,,,,,,,,,,,,,8752,1,2025-06-25_19h05.37.345,sm,2024.2.4,59.97375548450806,2025-06-25 19h05.45.898143 +0200,
53,0,53,,,,,,space,5.973607300000367,None,None,3,None,1.2883685999995578,0.30814699999973527,0,0,0,0,,,,,1,0,1,0,,,,,53,0,53,0,955.9955307999999,,,,,,,,,,,,,,,,,,,,,,,,,,,,,,,,,,,,,,,,,,,,,,,,,,,,,,,,,Waschbecken,2.1799,955.9805336,955.9810464000002,955.9811544000004,955.9955307999999,958.1783983000005,958.1631581000001,958.1681619999999,958.1783983000005,958.1783983000005,958.1783983000005,958.1783983000005,960.1785559,960.1785559,960.1785559,960.1785559,960.1629154000002,3,None,1.2883685999995578,0.30814699999973527,,,,,,,,,,,,,,,,,,,,,,8752,1,2025-06-25_19h05.37.345,sm,2024.2.4,59.97375548450806,2025-06-25 19h05.45.898143 +0200,
54,0,54,,,,,,space,5.973607300000367,None,None,2,None,1.0750053000001571,0.25233399999979156,0,0,0,0,,,,,1,0,1,0,,,,,54,0,54,0,960.1785559,,,,,,,,,,,,,,,,,,,,,,,,,,,,,,,,,,,,,,,,,,,,,,,,,,,,,,,,,Finger,2.5509,960.1634211999999,960.1639278000002,960.1640790000001,960.1785559,962.7279384000003,962.7132577000002,962.7165262999997,962.7279384000003,962.7279384000003,962.7279384000003,962.7279384000003,964.7284580000005,964.7284580000005,964.7284580000005,964.7284580000005,964.7127520000004,2,None,1.0750053000001571,0.25233399999979156,,,,,,,,,,,,,,,,,,,,,,8752,1,2025-06-25_19h05.37.345,sm,2024.2.4,59.97375548450806,2025-06-25 19h05.45.898143 +0200,
55,0,55,,,,,,space,5.973607300000367,None,None,2,None,1.054823800000122,0.2773606999999174,0,0,0,0,,,,,1,0,1,0,,,,,55,0,55,0,964.7284580000005,,,,,,,,,,,,,,,,,,,,,,,,,,,,,,,,,,,,,,,,,,,,,,,,,,,,,,,,,Wohnung,2.7456,964.7132671999998,964.7137751999999,964.7138827999997,964.7284580000005,967.4778173000004,967.4621392999998,967.4658013999997,967.4778173000004,967.4778173000004,967.4778173000004,967.4778173000004,969.4779194000002,969.4779194000002,969.4779194000002,969.4779194000002,969.4626022000002,2,None,1.054823800000122,0.2773606999999174,,,,,,,,,,,,,,,,,,,,,,8752,1,2025-06-25_19h05.37.345,sm,2024.2.4,59.97375548450806,2025-06-25 19h05.45.898143 +0200,
56,0,56,,,,,,space,5.973607300000367,None,None,2,None,0.8988346999994974,0.24125370000001567,0,0,0,0,,,,,1,0,1,0,,,,,56,0,56,0,969.4779194000002,,,,,,,,,,,,,,,,,,,,,,,,,,,,,,,,,,,,,,,,,,,,,,,,,,,,,,,,,Apfel,2.0689,969.4631034000004,969.4637911,969.4638996000003,969.4779194000002,971.5611325,971.5455018000002,971.5487771999997,971.5611325,971.5611325,971.5611325,971.5611325,973.5611360000003,973.5611360000003,973.5611360000003,973.5611360000003,973.5456390999998,2,None,0.8988346999994974,0.24125370000001567,,,,,,,,,,,,,,,,,,,,,,8752,1,2025-06-25_19h05.37.345,sm,2024.2.4,59.97375548450806,2025-06-25 19h05.45.898143 +0200,
57,0,57,,,,,,space,5.973607300000367,None,None,2,None,0.7225524999994377,0.20041180000043823,0,0,0,0,,,,,1,0,1,0,,,,,57,0,57,0,973.5611360000003,,,,,,,,,,,,,,,,,,,,,,,,,,,,,,,,,,,,,,,,,,,,,,,,,,,,,,,,,Vogel,2.3265,973.5461488000001,973.5466606,973.5467699000001,973.5611360000003,975.8941939000006,975.8786726999997,975.8822872999999,975.8941939000006,975.8941939000006,975.8941939000006,975.8941939000006,977.8946350000006,977.8946350000006,977.8946350000006,977.8946350000006,977.8786144000005,2,None,0.7225524999994377,0.20041180000043823,,,,,,,,,,,,,,,,,,,,,,8752,1,2025-06-25_19h05.37.345,sm,2024.2.4,59.97375548450806,2025-06-25 19h05.45.898143 +0200,
58,0,58,,,,,,space,5.973607300000367,None,None,2,None,1.2275758000005226,0.2448709999998755,0,0,0,0,,,,,1,0,1,0,,,,,58,0,58,0,977.8946350000006,,,,,,,,,,,,,,,,,,,,,,,,,,,,,,,,,,,,,,,,,,,,,,,,,,,,,,,,,Vulkan,3.8166,977.8791222999998,977.8796374000003,977.8797417000005,977.8946350000006,981.7103599000002,981.6948970000003,981.6986451000002,981.7103599000002,981.7103599000002,981.7103599000002,981.7103599000002,983.7104111999997,983.7104111999997,983.7104111999997,983.7104111999997,983.6947889000003,2,None,1.2275758000005226,0.2448709999998755,,,,,,,,,,,,,,,,,,,,,,8752,1,2025-06-25_19h05.37.345,sm,2024.2.4,59.97375548450806,2025-06-25 19h05.45.898143 +0200,
59,0,59,,,,,,space,5.973607300000367,None,None,3,None,0.9178107999996428,0.30210729999998875,0,0,0,0,,,,,1,0,1,0,,,,,59,0,59,0,983.7104111999997,,,,,,,,,,,,,,,,,,,,,,,,,,,,,,,,,,,,,,,,,,,,,,,,,,,,,,,,,Ordner,2.1391,983.6952685000006,983.6957575000006,983.6958591000002,983.7104111999997,985.8602742000003,985.8447766999998,985.8496258000005,985.8602742000003,985.8602742000003,985.8602742000003,985.8602742000003,987.8607106999998,987.8607106999998,987.8607106999998,987.8607106999998,987.8447243,3,None,0.9178107999996428,0.30210729999998875,,,,,,,,,,,,,,,,,,,,,,8752,1,2025-06-25_19h05.37.345,sm,2024.2.4,59.97375548450806,2025-06-25 19h05.45.898143 +0200,
60,0,60,,,,,,space,5.973607300000367,None,None,3,None,1.3880828999999721,0.33564320000004955,0,0,0,0,,,,,1,0,1,0,,,,,60,0,60,0,987.8607106999998,,,,,,,,,,,,,,,,,,,,,,,,,,,,,,,,,,,,,,,,,,,,,,,,,,,,,,,,,Erbe,3.5787,987.8452163000002,987.8457119000004,987.8458206000005,987.8607106999998,991.4433602999998,991.4275717,991.4307745000006,991.4433602999998,991.4433602999998,991.4433602999998,991.4433602999998,993.443244,993.443244,993.443244,993.443244,993.4278180000001,3,None,1.3880828999999721,0.33564320000004955,,,,,,,,,,,,,,,,,,,,,,8752,1,2025-06-25_19h05.37.345,sm,2024.2.4,59.97375548450806,2025-06-25 19h05.45.898143 +0200,
61,0,61,,,,,,space,5.973607300000367,None,None,3,None,1.1528650999998717,0.3291869000004226,0,0,0,0,,,,,1,0,1,0,,,,,61,0,61,0,993.443244,,,,,,,,,,,,,,,,,,,,,,,,,,,,,,,,,,,,,,,,,,,,,,,,,,,,,,,,,Trocken,5.4223,993.4283292999999,993.4289257999999,993.4290339999998,993.443244,998.8761512000001,998.8605703000003,998.8643637000005,998.8761512000001,998.8761512000001,998.8761512000001,998.8761512000001,1000.8761808999998,1000.8761808999998,1000.8761808999998,1000.8761808999998,1000.8606312000002,3,None,1.1528650999998717,0.3291869000004226,,,,,,,,,,,,,,,,,,,,,,8752,1,2025-06-25_19h05.37.345,sm,2024.2.4,59.97375548450806,2025-06-25 19h05.45.898143 +0200,
62,0,62,,,,,,space,5.973607300000367,None,None,3,None,0.9972118000005139,0.36201989999972284,0,0,0,0,,,,,1,0,1,0,,,,,62,0,62,0,1000.8761808999998,,,,,,,,,,,,,,,,,,,,,,,,,,,,,,,,,,,,,,,,,,,,,,,,,,,,,,,,,Auto,2.0522,1000.8611472000002,1000.8616616999998,1000.8617721999999,1000.8761808999998,1002.9425989000001,1002.9270962999999,1002.9302551999999,1002.9425989000001,1002.9425989000001,1002.9425989000001,1002.9425989000001,1004.9424374,1004.9424374,1004.9424374,1004.9424374,1004.9270048999997,3,None,0.9972118000005139,0.36201989999972284,,,,,,,,,,,,,,,,,,,,,,8752,1,2025-06-25_19h05.37.345,sm,2024.2.4,59.97375548450806,2025-06-25 19h05.45.898143 +0200,
63,0,63,,,,,,space,5.973607300000367,None,None,2,None,0.9478024000000005,0.27718650000042544,0,0,0,0,,,,,1,0,1,0,,,,,63,0,63,0,1004.9424374,,,,,,,,,,,,,,,,,,,,,,,,,,,,,,,,,,,,,,,,,,,,,,,,,,,,,,,,,Geschmack,2.8056,1004.9275334000004,1004.9281697000006,1004.9283330999997,1004.9424374,1007.7589005999998,1007.7432638,1007.7469075999998,1007.7589005999998,1007.7589005999998,1007.7589005999998,1007.7589005999998,1009.7590443999998,1009.7590443999998,1009.7590443999998,1009.7590443999998,1009.7436036999998,2,None,0.9478024000000005,0.27718650000042544,,,,,,,,,,,,,,,,,,,,,,8752,1,2025-06-25_19h05.37.345,sm,2024.2.4,59.97375548450806,2025-06-25 19h05.45.898143 +0200,
