thisN,thisTrialN,thisRepN,Cue,Target,Mediator1,Mediator2,iti,scanner_ready_press.keys,scanner_ready_press.rt,scanner_ready_press.duration,skip_trigger.keys,living_nonliving.keys,living_nonliving.rt,living_nonliving.duration,end_mapping.keys,blocks.thisRepN,blocks.thisTrialN,blocks.thisN,blocks.thisIndex,load_and_shuffle.thisRepN,load_and_shuffle.thisTrialN,load_and_shuffle.thisN,load_and_shuffle.thisIndex,runs.thisRepN,runs.thisTrialN,runs.thisN,runs.thisIndex,iti_loading_loop.thisRepN,iti_loading_loop.thisTrialN,iti_loading_loop.thisN,iti_loading_loop.thisIndex,semantic_mapping_run.thisRepN,semantic_mapping_run.thisTrialN,semantic_mapping_run.thisN,semantic_mapping_run.thisIndex,thisRow.t,notes,welcome.started,welcome_text.started,key_resp__welcome.started,welcome.stopped,key_resp__welcome.keys,key_resp__welcome.rt,key_resp__welcome.duration,scout.started,scout_text.started,key_resp.started,scout.stopped,key_resp.keys,key_resp.rt,key_resp.duration,instructions_semantic_mapping1.started,sm_instructions1_text.started,sm_instructions1_key.started,instructions_semantic_mapping1.stopped,sm_instructions1_key.keys,sm_instructions1_key.rt,sm_instructions1_key.duration,instructions_semantic_mapping2.started,sm_instructions2_text.started,sm_instructions2_key.started,instructions_semantic_mapping2.stopped,sm_instructions2_key.keys,sm_instructions2_key.rt,sm_instructions2_key.duration,reset_run.started,reset_run.stopped,shuffle_items.started,shuffle_items.stopped,set_up_runs.started,set_up_runs.stopped,load_iti.started,load_iti.stopped,prep_scanner.started,scanner_ready_press.started,ready_set_text.started,prep_scanner.stopped,runs.scanner_ready_press.keys,runs.scanner_ready_press.rt,runs.scanner_ready_press.duration,wait_for_trigger.started,starting_soon.started,skip_trigger.started,wait_for_trigger.stopped,runs.skip_trigger.keys,blank.started,begin_end_run_cross.started,sound_1.started,sound_1.stopped,sound_2.started,sound_2.stopped,blank.stopped,CurrentItem,CurrentITI,set_up_trial.started,set_up_trial.stopped,sm_iti.started,iti_cross.started,iti_cross.stopped,sm_iti.stopped,item.started,living_nonliving.started,end_mapping.started,living_nonliving_text.started,semantic_map_item.started,living_nonliving.stopped,end_mapping.stopped,living_nonliving_text.stopped,semantic_map_item.stopped,item.stopped,semantic_mapping_run.living_nonliving.keys,semantic_mapping_run.living_nonliving.rt,semantic_mapping_run.living_nonliving.duration,semantic_mapping_run.end_mapping.keys,fieldmap.started,fieldmap.stopped,runs.fm_key.keys,task_break.started,feeback_text.started,task_break_text.started,task_break_resp.started,feeback_text.stopped,task_break.stopped,runs.task_break_resp.keys,runs.task_break_resp.rt,runs.task_break_resp.duration,begin_end_run_cross.stopped,fm_text.started,fm_key.started,runs.fm_key.rt,runs.fm_key.duration,thanks.started,thanks_text.started,thanks_text.stopped,thanks.stopped,PID,MRI,date,expName,psychopyVersion,frameRate,expStart,
,,,,,,,,,,,,,,,,,,,,,,,,,,,,,,,,,,,,,,0.003685399999085348,0.009047300000020186,0.009047300000020186,187.30056870000044,space,187.27824780000083,None,,,,,,,,,,,,,,,,,,,,,,,,,,,,,,,,,,,,,,,,,,,,,,,,,,,,,,,,,,,,,,,,,,,,,,,,,,,,,,,,,,,,,,,,,,,,8823,1,2025-10-08_19h46.05.261,sm,2024.2.4,60.0078010137164,2025-10-08 19h46.18.530411 +0200,
,,,,,,,,,,,,,,,,,,,,,,,,,,,,,,,,,,,,,,,,,,,,,187.30070279999927,187.31530399999974,187.31530399999974,258.74607789999936,space,71.41171649999887,None,,,,,,,,,,,,,,,,,,,,,,,,,,,,,,,,,,,,,,,,,,,,,,,,,,,,,,,,,,,,,,,,,,,,,,,,,,,,,,,,,,,,,8823,1,2025-10-08_19h46.05.261,sm,2024.2.4,60.0078010137164,2025-10-08 19h46.18.530411 +0200,
,,,,,,,,,,,,,,,,,,,,,,,,,,,,,,,,,,,,,,,,,,,,,,,,,,,,258.74619749999874,258.76150079999934,258.76150079999934,263.5125150999993,2,4.737361199999214,None,,,,,,,,,,,,,,,,,,,,,,,,,,,,,,,,,,,,,,,,,,,,,,,,,,,,,,,,,,,,,,,,,,,,,,,,,,,,,,8823,1,2025-10-08_19h46.05.261,sm,2024.2.4,60.0078010137164,2025-10-08 19h46.18.530411 +0200,
,,,,,,,,,,,,,,,,,,,,,,,,,,,,,,,,,,,,,,,,,,,,,,,,,,,,,,,,,,,263.5126244999992,263.52776989999984,263.52776989999984,269.77923389999887,2,6.245998500000496,None,,,,,,,,,,,,,,,,,,,,,,,,,,,,,,,,,,,,,,,,,,,,,,,,,,,,,,,,,,,,,,,,,,,,,,,8823,1,2025-10-08_19h46.05.261,sm,2024.2.4,60.0078010137164,2025-10-08 19h46.18.530411 +0200,
0,0,0,Knie,Knöchel,Gelenk,Beugen,2.3626,space,4.886030899999241,None,None,3,1.16984599999887,0.3499437999998918,None,0,0,0,0,0,79,79,21,0,0,0,0,0,79,79,19,0,0,0,0,334.2734762,,,,,,,,,,,,,,,,,,,,,,,,,,,,,,269.78015199999936,269.78077949999897,269.8438556000001,269.8440950000004,269.84856299999956,269.84887379999964,269.8779101,269.87810159999935,269.8847248999991,269.88961050000034,269.88961050000034,274.7788748999992,space,4.886030899999241,None,274.7790325999995,274.7940945999999,274.7940945999999,322.2426231999998,None,322.25158439999905,322.26052569999956,322.25794166666697,323.4660724000005,332.25757376666684,333.26608979999946,334.2571119000004,Weltraum,2.3626,334.258611199999,334.2593008999993,334.2626875999995,334.2734762,336.63995819999946,336.6247095999988,336.62908419999985,336.63995819999946,336.63995819999946,336.63995819999946,336.63995819999946,338.6402729000001,338.6402729000001,338.6402729000001,338.6402729000001,338.6244227999996,3,1.16984599999887,0.3499437999998918,None,,,,,,,,,,,,,,,,,,,,,,8823,1,2025-10-08_19h46.05.261,sm,2024.2.4,60.0078010137164,2025-10-08 19h46.18.530411 +0200,
1,0,1,,,,,,space,4.886030899999241,None,None,3,1.7366026999989117,0.22581689999969967,None,0,0,0,0,,,,,0,0,0,0,,,,,1,0,1,0,338.6402729000001,,,,,,,,,,,,,,,,,,,,,,,,,,,,,,,,,,,,,,,,,,,,,,,,,,,,,,,,,Käse,2.7701,338.62494399999923,338.6254680999991,338.62557469999956,338.6402729000001,341.42276820000006,341.4074720999997,341.4138810000004,341.42276820000006,341.42276820000006,341.42276820000006,341.42276820000006,343.42316409999876,343.42316409999876,343.42316409999876,343.42316409999876,343.4075362000003,3,1.7366026999989117,0.22581689999969967,None,,,,,,,,,,,,,,,,,,,,,,8823,1,2025-10-08_19h46.05.261,sm,2024.2.4,60.0078010137164,2025-10-08 19h46.18.530411 +0200,
2,0,2,,,,,,space,4.886030899999241,None,None,3,0.9431263999995281,0.23283339999943564,None,0,0,0,0,,,,,0,0,0,0,,,,,2,0,2,0,343.42316409999876,,,,,,,,,,,,,,,,,,,,,,,,,,,,,,,,,,,,,,,,,,,,,,,,,,,,,,,,,Schloss,2.9204,343.40804279999975,343.4085651000005,343.4086716999991,343.42316409999876,346.3562812,346.3407279000003,346.34486669999933,346.3562812,346.3562812,346.3562812,346.3562812,348.35630969999875,348.35630969999875,348.35630969999875,348.35630969999875,348.34067119999963,3,0.9431263999995281,0.23283339999943564,None,,,,,,,,,,,,,,,,,,,,,,8823,1,2025-10-08_19h46.05.261,sm,2024.2.4,60.0078010137164,2025-10-08 19h46.18.530411 +0200,
3,0,3,,,,,,space,4.886030899999241,None,None,3,0.9633759000007558,0.24135690000002796,None,0,0,0,0,,,,,0,0,0,0,,,,,3,0,3,0,348.35630969999875,,,,,,,,,,,,,,,,,,,,,,,,,,,,,,,,,,,,,,,,,,,,,,,,,,,,,,,,,Sturm,3.4794,348.34117759999936,348.34178880000036,348.3418978999998,348.35630969999875,351.8388684999991,351.82357279999997,351.8270756999991,351.8388684999991,351.8388684999991,351.8388684999991,351.8388684999991,353.83923219999997,353.83923219999997,353.83923219999997,353.83923219999997,353.823790299999,3,0.9633759000007558,0.24135690000002796,None,,,,,,,,,,,,,,,,,,,,,,8823,1,2025-10-08_19h46.05.261,sm,2024.2.4,60.0078010137164,2025-10-08 19h46.18.530411 +0200,
4,0,4,,,,,,space,4.886030899999241,None,None,3,0.8294247000012547,0.20260349999989558,None,0,0,0,0,,,,,0,0,0,0,,,,,4,0,4,0,353.83923219999997,,,,,,,,,,,,,,,,,,,,,,,,,,,,,,,,,,,,,,,,,,,,,,,,,,,,,,,,,Kunst,3.5483,353.82429279999997,353.8249582999997,353.8250681999998,353.83923219999997,357.388839199999,357.37327109999933,357.3769384999996,357.388839199999,357.388839199999,357.388839199999,357.388839199999,359.3888516999996,359.3888516999996,359.3888516999996,359.3888516999996,359.3732724999991,3,0.8294247000012547,0.20260349999989558,None,,,,,,,,,,,,,,,,,,,,,,8823,1,2025-10-08_19h46.05.261,sm,2024.2.4,60.0078010137164,2025-10-08 19h46.18.530411 +0200,
5,0,5,,,,,,space,4.886030899999241,None,None,3,1.1932331000007252,0.261658699999316,None,0,0,0,0,,,,,0,0,0,0,,,,,5,0,5,0,359.3888516999996,,,,,,,,,,,,,,,,,,,,,,,,,,,,,,,,,,,,,,,,,,,,,,,,,,,,,,,,,Club,2.0817,359.3737724999992,359.37428369999907,359.37438979999934,359.3888516999996,361.47195869999996,361.45649819999926,361.4621970999997,361.47195869999996,361.47195869999996,361.47195869999996,361.47195869999996,363.47211179999977,363.47211179999977,363.47211179999977,363.47211179999977,363.4564677999988,3,1.1932331000007252,0.261658699999316,None,,,,,,,,,,,,,,,,,,,,,,8823,1,2025-10-08_19h46.05.261,sm,2024.2.4,60.0078010137164,2025-10-08 19h46.18.530411 +0200,
6,0,6,,,,,,space,4.886030899999241,None,None,3,1.1201067000001785,0.1931380000005447,None,0,0,0,0,,,,,0,0,0,0,,,,,6,0,6,0,363.47211179999977,,,,,,,,,,,,,,,,,,,,,,,,,,,,,,,,,,,,,,,,,,,,,,,,,,,,,,,,,Bett,2.1585,363.4569739999988,363.45746809999946,363.45757029999913,363.47211179999977,365.6384734000003,365.6226974000001,365.6261152999996,365.6384734000003,365.6384734000003,365.6384734000003,365.6384734000003,367.6384754999999,367.6384754999999,367.6384754999999,367.6384754999999,367.6230016999998,3,1.1201067000001785,0.1931380000005447,None,,,,,,,,,,,,,,,,,,,,,,8823,1,2025-10-08_19h46.05.261,sm,2024.2.4,60.0078010137164,2025-10-08 19h46.18.530411 +0200,
7,0,7,,,,,,space,4.886030899999241,None,None,2,0.9020100999987335,0.19653870000001916,None,0,0,0,0,,,,,0,0,0,0,,,,,7,0,7,0,367.6384754999999,,,,,,,,,,,,,,,,,,,,,,,,,,,,,,,,,,,,,,,,,,,,,,,,,,,,,,,,,Kopf,2.0774,367.6235029999989,367.6243044999992,367.62441599999875,367.6384754999999,369.72158239999953,369.7059599999993,369.70958149999933,369.72158239999953,369.72158239999953,369.72158239999953,369.72158239999953,371.72195420000025,371.72195420000025,371.72195420000025,371.72195420000025,371.7058821999999,2,0.9020100999987335,0.19653870000001916,None,,,,,,,,,,,,,,,,,,,,,,8823,1,2025-10-08_19h46.05.261,sm,2024.2.4,60.0078010137164,2025-10-08 19h46.18.530411 +0200,
8,0,8,,,,,,space,4.886030899999241,None,None,3,0.8792593000016495,0.2213830999990023,None,0,0,0,0,,,,,0,0,0,0,,,,,8,0,8,0,371.72195420000025,,,,,,,,,,,,,,,,,,,,,,,,,,,,,,,,,,,,,,,,,,,,,,,,,,,,,,,,,Zucker,2.1908,371.70639610000035,371.7069121000004,371.7070162,371.72195420000025,373.9208459999991,373.9056273999995,373.9116015999989,373.9208459999991,373.9208459999991,373.9208459999991,373.9208459999991,375.9213192999996,375.9213192999996,375.9213192999996,375.9213192999996,375.9056135999999,3,0.8792593000016495,0.2213830999990023,None,,,,,,,,,,,,,,,,,,,,,,8823,1,2025-10-08_19h46.05.261,sm,2024.2.4,60.0078010137164,2025-10-08 19h46.18.530411 +0200,
9,0,9,,,,,,space,4.886030899999241,None,None,3,1.016643799999656,0.2533203000002686,None,0,0,0,0,,,,,0,0,0,0,,,,,9,0,9,0,375.9213192999996,,,,,,,,,,,,,,,,,,,,,,,,,,,,,,,,,,,,,,,,,,,,,,,,,,,,,,,,,Rot,4.5741,375.90612820000024,375.90672019999874,375.90682539999943,375.9213192999996,380.504202099999,380.48859619999894,380.49212739999894,380.504202099999,380.504202099999,380.504202099999,380.504202099999,382.50410869999905,382.50410869999905,382.50410869999905,382.50410869999905,382.48849209999935,3,1.016643799999656,0.2533203000002686,None,,,,,,,,,,,,,,,,,,,,,,8823,1,2025-10-08_19h46.05.261,sm,2024.2.4,60.0078010137164,2025-10-08 19h46.18.530411 +0200,
10,0,10,,,,,,space,4.886030899999241,None,None,3,0.9094349000006332,0.257314899999983,None,0,0,0,0,,,,,0,0,0,0,,,,,10,0,10,0,382.50410869999905,,,,,,,,,,,,,,,,,,,,,,,,,,,,,,,,,,,,,,,,,,,,,,,,,,,,,,,,,Schnorchel,3.7348,382.48899530000017,382.48952459999964,382.4896319999989,382.50410869999905,386.2538027999999,386.2381740000001,386.24235579999913,386.2538027999999,386.2538027999999,386.2538027999999,386.2538027999999,388.2539201999989,388.2539201999989,388.2539201999989,388.2539201999989,388.2385529000003,3,0.9094349000006332,0.257314899999983,None,,,,,,,,,,,,,,,,,,,,,,8823,1,2025-10-08_19h46.05.261,sm,2024.2.4,60.0078010137164,2025-10-08 19h46.18.530411 +0200,
11,0,11,,,,,,space,4.886030899999241,None,None,3,1.3584964000001492,0.27966530000048806,None,0,0,0,0,,,,,0,0,0,0,,,,,11,0,11,0,388.2539201999989,,,,,,,,,,,,,,,,,,,,,,,,,,,,,,,,,,,,,,,,,,,,,,,,,,,,,,,,,Konzert,2.7249,388.2390643999988,388.2395782000003,388.2396864000002,388.2539201999989,390.986870499999,390.97165060000043,390.9752645999997,390.986870499999,390.986870499999,390.986870499999,390.986870499999,392.9869593000003,392.9869593000003,392.9869593000003,392.9869593000003,392.97155360000033,3,1.3584964000001492,0.27966530000048806,None,,,,,,,,,,,,,,,,,,,,,,8823,1,2025-10-08_19h46.05.261,sm,2024.2.4,60.0078010137164,2025-10-08 19h46.18.530411 +0200,
12,0,12,,,,,,space,4.886030899999241,None,None,3,0.7338662999991357,0.25629290000142646,None,0,0,0,0,,,,,0,0,0,0,,,,,12,0,12,0,392.9869593000003,,,,,,,,,,,,,,,,,,,,,,,,,,,,,,,,,,,,,,,,,,,,,,,,,,,,,,,,,Strand,3.2822,392.97206149999874,392.9726307000001,392.9727375000002,392.9869593000003,396.26994639999975,396.2540638999999,396.257300199999,396.26994639999975,396.26994639999975,396.26994639999975,396.26994639999975,398.27013869999973,398.27013869999973,398.27013869999973,398.27013869999973,398.2545676999998,3,0.7338662999991357,0.25629290000142646,None,,,,,,,,,,,,,,,,,,,,,,8823,1,2025-10-08_19h46.05.261,sm,2024.2.4,60.0078010137164,2025-10-08 19h46.18.530411 +0200,
13,0,13,,,,,,space,4.886030899999241,None,None,3,0.8783934999992198,0.3017360000012559,None,0,0,0,0,,,,,0,0,0,0,,,,,13,0,13,0,398.27013869999973,,,,,,,,,,,,,,,,,,,,,,,,,,,,,,,,,,,,,,,,,,,,,,,,,,,,,,,,,Sport,2.2785,398.2550780999991,398.2556093000003,398.25571669999954,398.27013869999973,400.5532540000004,400.5375638000005,400.5417500000003,400.5532540000004,400.5532540000004,400.5532540000004,400.5532540000004,402.5532700999993,402.5532700999993,402.5532700999993,402.5532700999993,402.53735400000005,3,0.8783934999992198,0.3017360000012559,None,,,,,,,,,,,,,,,,,,,,,,8823,1,2025-10-08_19h46.05.261,sm,2024.2.4,60.0078010137164,2025-10-08 19h46.18.530411 +0200,
14,0,14,,,,,,space,4.886030899999241,None,None,2,0.7572601000010764,0.2325540000001638,None,0,0,0,0,,,,,0,0,0,0,,,,,14,0,14,0,402.5532700999993,,,,,,,,,,,,,,,,,,,,,,,,,,,,,,,,,,,,,,,,,,,,,,,,,,,,,,,,,Hase,2.7908,402.53777719999925,402.53825920000054,402.5383486999999,402.5532700999993,405.3527002999999,405.3371451999992,405.34329419999995,405.3527002999999,405.3527002999999,405.3527002999999,405.3527002999999,407.3527531,407.3527531,407.3527531,407.3527531,407.3373243999995,2,0.7572601000010764,0.2325540000001638,None,,,,,,,,,,,,,,,,,,,,,,8823,1,2025-10-08_19h46.05.261,sm,2024.2.4,60.0078010137164,2025-10-08 19h46.18.530411 +0200,
15,0,15,,,,,,space,4.886030899999241,None,None,3,0.7378984999995737,0.24408480000056443,None,0,0,0,0,,,,,0,0,0,0,,,,,15,0,15,0,407.3527531,,,,,,,,,,,,,,,,,,,,,,,,,,,,,,,,,,,,,,,,,,,,,,,,,,,,,,,,,Tisch,2.6203,407.3378273999988,407.3385815999991,407.3386881999995,407.3527531,409.98617079999894,409.97011629999906,409.9734736999999,409.98617079999894,409.98617079999894,409.98617079999894,409.98617079999894,411.985811999999,411.985811999999,411.985811999999,411.985811999999,411.97051139999894,3,0.7378984999995737,0.24408480000056443,None,,,,,,,,,,,,,,,,,,,,,,8823,1,2025-10-08_19h46.05.261,sm,2024.2.4,60.0078010137164,2025-10-08 19h46.18.530411 +0200,
16,0,16,,,,,,space,4.886030899999241,None,None,2,0.8327559000008478,0.26976379999905475,None,0,0,0,0,,,,,0,0,0,0,,,,,16,0,16,0,411.985811999999,,,,,,,,,,,,,,,,,,,,,,,,,,,,,,,,,,,,,,,,,,,,,,,,,,,,,,,,,Autorin,2.2283,411.9710329999998,411.97155179999936,411.9716563999991,411.985811999999,414.21944359999907,414.2033967999996,414.2068851999993,414.21944359999907,414.21944359999907,414.21944359999907,414.21944359999907,416.2191342999995,416.2191342999995,416.2191342999995,416.2191342999995,416.20340959999885,2,0.8327559000008478,0.26976379999905475,None,,,,,,,,,,,,,,,,,,,,,,8823,1,2025-10-08_19h46.05.261,sm,2024.2.4,60.0078010137164,2025-10-08 19h46.18.530411 +0200,
17,0,17,,,,,,space,4.886030899999241,None,None,2,1.0454769000007218,0.23102389999985462,None,0,0,0,0,,,,,0,0,0,0,,,,,17,0,17,0,416.2191342999995,,,,,,,,,,,,,,,,,,,,,,,,,,,,,,,,,,,,,,,,,,,,,,,,,,,,,,,,,Augen,2.9146,416.20391589999963,416.2044367999988,416.2045421999992,416.2191342999995,419.1354276000002,419.1197672999988,419.12341209999977,419.1354276000002,419.1354276000002,419.1354276000002,419.1354276000002,421.13549090000015,421.13549090000015,421.13549090000015,421.13549090000015,421.1196437999988,2,1.0454769000007218,0.23102389999985462,None,,,,,,,,,,,,,,,,,,,,,,8823,1,2025-10-08_19h46.05.261,sm,2024.2.4,60.0078010137164,2025-10-08 19h46.18.530411 +0200,
18,0,18,,,,,,space,4.886030899999241,None,None,3,0.9813307999993413,0.2787441000000399,None,0,0,0,0,,,,,0,0,0,0,,,,,18,0,18,0,421.13549090000015,,,,,,,,,,,,,,,,,,,,,,,,,,,,,,,,,,,,,,,,,,,,,,,,,,,,,,,,,Film,2.016,421.1200926999991,421.120715699999,421.12080889999925,421.13549090000015,423.15190880000046,423.13602790000004,423.1409201999995,423.15190880000046,423.15190880000046,423.15190880000046,423.15190880000046,425.15173909999976,425.15173909999976,425.15173909999976,425.15173909999976,425.1361369999995,3,0.9813307999993413,0.2787441000000399,None,,,,,,,,,,,,,,,,,,,,,,8823,1,2025-10-08_19h46.05.261,sm,2024.2.4,60.0078010137164,2025-10-08 19h46.18.530411 +0200,
19,0,19,,,,,,space,4.886030899999241,None,None,3,0.8284610999999131,0.2618555999997625,None,0,0,0,0,,,,,0,0,0,0,,,,,19,0,19,0,425.15173909999976,,,,,,,,,,,,,,,,,,,,,,,,,,,,,,,,,,,,,,,,,,,,,,,,,,,,,,,,,Schule,3.296,425.13664190000054,425.13729090000015,425.1373967999989,425.15173909999976,428.4516160999992,428.43623149999985,428.440514599999,428.4516160999992,428.4516160999992,428.4516160999992,428.4516160999992,430.4514791999991,430.4514791999991,430.4514791999991,430.4514791999991,430.4360089999991,3,0.8284610999999131,0.2618555999997625,None,,,,,,,,,,,,,,,,,,,,,,8823,1,2025-10-08_19h46.05.261,sm,2024.2.4,60.0078010137164,2025-10-08 19h46.18.530411 +0200,
20,0,20,,,,,,space,4.886030899999241,None,None,3,1.1723657999991701,0.24791619999996328,None,0,0,0,0,,,,,0,0,0,0,,,,,20,0,20,0,430.4514791999991,,,,,,,,,,,,,,,,,,,,,,,,,,,,,,,,,,,,,,,,,,,,,,,,,,,,,,,,,Stiefel,2.0511,430.43652529999963,430.4371028000005,430.4372093999991,430.4514791999991,432.51790489999985,432.5026213000001,432.5066549999992,432.51790489999985,432.51790489999985,432.51790489999985,432.51790489999985,434.51793949999956,434.51793949999956,434.51793949999956,434.51793949999956,434.5023913999994,3,1.1723657999991701,0.24791619999996328,None,,,,,,,,,,,,,,,,,,,,,,8823,1,2025-10-08_19h46.05.261,sm,2024.2.4,60.0078010137164,2025-10-08 19h46.18.530411 +0200,
21,0,21,,,,,,space,4.886030899999241,None,None,3,1.207840600000054,0.29319240000040736,None,0,0,0,0,,,,,0,0,0,0,,,,,21,0,21,0,434.51793949999956,,,,,,,,,,,,,,,,,,,,,,,,,,,,,,,,,,,,,,,,,,,,,,,,,,,,,,,,,Lachen,5.1314,434.50290349999887,434.50353919999907,434.5036435000002,434.51793949999956,439.6516121000004,439.6354147000002,439.6398214000001,439.6516121000004,439.6516121000004,439.6516121000004,439.6516121000004,441.6508952000004,441.6508952000004,441.6508952000004,441.6508952000004,441.6353770000005,3,1.207840600000054,0.29319240000040736,None,,,,,,,,,,,,,,,,,,,,,,8823,1,2025-10-08_19h46.05.261,sm,2024.2.4,60.0078010137164,2025-10-08 19h46.18.530411 +0200,
22,0,22,,,,,,space,4.886030899999241,None,None,2,1.09945880000123,0.28130809999856865,None,0,0,0,0,,,,,0,0,0,0,,,,,22,0,22,0,441.6508952000004,,,,,,,,,,,,,,,,,,,,,,,,,,,,,,,,,,,,,,,,,,,,,,,,,,,,,,,,,Akrobatin,2.0407,441.63588659999914,441.63640099999975,441.63650620000044,441.6508952000004,443.7004598000003,443.68481319999955,443.68847559999995,443.7004598000003,443.7004598000003,443.7004598000003,443.7004598000003,445.7007689999991,445.7007689999991,445.7007689999991,445.7007689999991,445.68512889999874,2,1.09945880000123,0.28130809999856865,None,,,,,,,,,,,,,,,,,,,,,,8823,1,2025-10-08_19h46.05.261,sm,2024.2.4,60.0078010137164,2025-10-08 19h46.18.530411 +0200,
23,0,23,,,,,,space,4.886030899999241,None,None,3,1.7612435999999434,None,None,0,0,0,0,,,,,0,0,0,0,,,,,23,0,23,0,445.7007689999991,,,,,,,,,,,,,,,,,,,,,,,,,,,,,,,,,,,,,,,,,,,,,,,,,,,,,,,,,Sumpf,5.1553,445.68563619999986,445.68638400000054,445.6864903000005,445.7007689999991,450.8674701,450.8514080999994,450.8555484999997,450.8674701,450.8674701,450.8674701,450.8674701,452.86766119999993,452.86766119999993,452.86766119999993,452.86766119999993,452.8512711000003,3,1.7612435999999434,None,None,,,,,,,,,,,,,,,,,,,,,,8823,1,2025-10-08_19h46.05.261,sm,2024.2.4,60.0078010137164,2025-10-08 19h46.18.530411 +0200,
24,0,24,,,,,,space,4.886030899999241,None,None,2,0.863675599999624,0.26255979999950796,None,0,0,0,0,,,,,0,0,0,0,,,,,24,0,24,0,452.86766119999993,,,,,,,,,,,,,,,,,,,,,,,,,,,,,,,,,,,,,,,,,,,,,,,,,,,,,,,,,Kunde,2.5863,452.8517763,452.8524677000005,452.8525728000004,452.86766119999993,455.4668576999993,455.4509380999989,455.45475129999977,455.4668576999993,455.4668576999993,455.4668576999993,455.4668576999993,457.4666966999994,457.4666966999994,457.4666966999994,457.4666966999994,457.4510754999992,2,0.863675599999624,0.26255979999950796,None,,,,,,,,,,,,,,,,,,,,,,8823,1,2025-10-08_19h46.05.261,sm,2024.2.4,60.0078010137164,2025-10-08 19h46.18.530411 +0200,
25,0,25,,,,,,space,4.886030899999241,None,None,3,0.9574212999996234,0.2726312000013422,None,0,0,0,0,,,,,0,0,0,0,,,,,25,0,25,0,457.4666966999994,,,,,,,,,,,,,,,,,,,,,,,,,,,,,,,,,,,,,,,,,,,,,,,,,,,,,,,,,Ehe,3.5126,457.45157889999973,457.452287099999,457.4523995999989,457.4666966999994,460.9829181999994,460.9672329999994,460.9703403000003,460.9829181999994,460.9829181999994,460.9829181999994,460.9829181999994,,,,,462.9675107999992,3,0.9574212999996234,0.2726312000013422,None,,,,,,,,,,,,,,,,,,,,,,8823,1,2025-10-08_19h46.05.261,sm,2024.2.4,60.0078010137164,2025-10-08 19h46.18.530411 +0200,
26,0,26,,,,,,space,4.886030899999241,None,None,3,0.7936331000000791,0.3161491999999271,None,0,0,0,0,,,,,0,0,0,0,,,,,26,0,26,0,462.98341739999887,,,,,,,,,,,,,,,,,,,,,,,,,,,,,,,,,,,,,,,,,,,,,,,,,,,,,,,,,Spaghetti,3.7711,462.96802279999974,462.9686810000003,462.9687993999996,462.98341739999887,466.7662368000001,466.75056349999977,466.75496029999886,466.7662368000001,466.7662368000001,466.7662368000001,466.7662368000001,468.76593030000004,468.76593030000004,468.76593030000004,468.76593030000004,468.7505609,3,0.7936331000000791,0.3161491999999271,None,,,,,,,,,,,,,,,,,,,,,,8823,1,2025-10-08_19h46.05.261,sm,2024.2.4,60.0078010137164,2025-10-08 19h46.18.530411 +0200,
27,0,27,,,,,,space,4.886030899999241,None,None,3,0.7999117999988812,0.3320649000015692,None,0,0,0,0,,,,,0,0,0,0,,,,,27,0,27,0,468.76593030000004,,,,,,,,,,,,,,,,,,,,,,,,,,,,,,,,,,,,,,,,,,,,,,,,,,,,,,,,,Hügel,2.9068,468.75106570000025,468.75170830000025,468.75181299999895,468.76593030000004,471.6824244999989,471.6670515000005,471.67102279999926,471.6824244999989,471.6824244999989,471.6824244999989,471.6824244999989,473.68235169999934,473.68235169999934,473.68235169999934,473.68235169999934,473.66702970000006,3,0.7999117999988812,0.3320649000015692,None,,,,,,,,,,,,,,,,,,,,,,8823,1,2025-10-08_19h46.05.261,sm,2024.2.4,60.0078010137164,2025-10-08 19h46.18.530411 +0200,
28,0,28,,,,,,space,4.886030899999241,None,None,3,1.0373438999995415,0.27835120000054303,None,0,0,0,0,,,,,0,0,0,0,,,,,28,0,28,0,473.68235169999934,,,,,,,,,,,,,,,,,,,,,,,,,,,,,,,,,,,,,,,,,,,,,,,,,,,,,,,,,Liebe,3.6885,473.66753849999986,473.66830990000017,473.6684432999991,473.68235169999934,477.3819377999989,477.36632949999876,477.37038589999975,477.3819377999989,477.3819377999989,477.3819377999989,477.3819377999989,479.382020699999,479.382020699999,479.382020699999,479.382020699999,479.3666014999999,3,1.0373438999995415,0.27835120000054303,None,,,,,,,,,,,,,,,,,,,,,,8823,1,2025-10-08_19h46.05.261,sm,2024.2.4,60.0078010137164,2025-10-08 19h46.18.530411 +0200,
29,0,29,,,,,,space,4.886030899999241,None,None,3,1.433761099999174,0.29921290000129375,None,0,0,0,0,,,,,0,0,0,0,,,,,29,0,29,0,479.382020699999,,,,,,,,,,,,,,,,,,,,,,,,,,,,,,,,,,,,,,,,,,,,,,,,,,,,,,,,,Loch,2.9048,479.3671058,479.367651999999,479.36775730000045,479.382020699999,482.2985826999993,482.2828826999994,482.2862323999998,482.2985826999993,482.2985826999993,482.2985826999993,482.2985826999993,484.29853189999994,484.29853189999994,484.29853189999994,484.29853189999994,484.28314390000014,3,1.433761099999174,0.29921290000129375,None,,,,,,,,,,,,,,,,,,,,,,8823,1,2025-10-08_19h46.05.261,sm,2024.2.4,60.0078010137164,2025-10-08 19h46.18.530411 +0200,
30,0,30,,,,,,space,4.886030899999241,None,None,3,0.7652097999998659,0.2861491000003298,None,0,0,0,0,,,,,0,0,0,0,,,,,30,0,30,0,484.29853189999994,,,,,,,,,,,,,,,,,,,,,,,,,,,,,,,,,,,,,,,,,,,,,,,,,,,,,,,,,Kante,2.3334,484.28365329999906,484.2841764999994,484.28428189999977,484.29853189999994,486.63163989999885,486.6161656999993,486.62032819999877,486.63163989999885,486.63163989999885,486.63163989999885,486.63163989999885,488.6316802000001,488.6316802000001,488.6316802000001,488.6316802000001,488.6159348000001,3,0.7652097999998659,0.2861491000003298,None,,,,,,,,,,,,,,,,,,,,,,8823,1,2025-10-08_19h46.05.261,sm,2024.2.4,60.0078010137164,2025-10-08 19h46.18.530411 +0200,
31,0,31,,,,,,space,4.886030899999241,None,None,3,0.9275448999997025,0.2895523000006506,None,0,0,0,0,,,,,0,0,0,0,,,,,31,0,31,0,488.6316802000001,,,,,,,,,,,,,,,,,,,,,,,,,,,,,,,,,,,,,,,,,,,,,,,,,,,,,,,,,Zeigen,2.7943,488.6164454999998,488.61695829999917,488.61706889999914,488.6316802000001,491.4312520000003,491.4157041999988,491.4194759999991,491.4312520000003,491.4312520000003,491.4312520000003,491.4312520000003,493.4311094000004,493.4311094000004,493.4311094000004,493.4311094000004,493.41574670000045,3,0.9275448999997025,0.2895523000006506,None,,,,,,,,,,,,,,,,,,,,,,8823,1,2025-10-08_19h46.05.261,sm,2024.2.4,60.0078010137164,2025-10-08 19h46.18.530411 +0200,
32,0,32,,,,,,space,4.886030899999241,None,None,3,1.0653232999993634,0.29218890000083775,None,0,0,0,0,,,,,0,0,0,0,,,,,32,0,32,0,493.4311094000004,,,,,,,,,,,,,,,,,,,,,,,,,,,,,,,,,,,,,,,,,,,,,,,,,,,,,,,,,Angriff,2.2313,493.4162508999998,493.4169991999988,493.41710539999985,493.4311094000004,495.66449739999916,495.64885539999887,495.65292539999973,495.66449739999916,495.66449739999916,495.66449739999916,495.66449739999916,497.66449569999895,497.66449569999895,497.66449569999895,497.66449569999895,497.6490070999989,3,1.0653232999993634,0.29218890000083775,None,,,,,,,,,,,,,,,,,,,,,,8823,1,2025-10-08_19h46.05.261,sm,2024.2.4,60.0078010137164,2025-10-08 19h46.18.530411 +0200,
33,0,33,,,,,,space,4.886030899999241,None,None,3,1.0316098000002967,0.3261321999998472,None,0,0,0,0,,,,,0,0,0,0,,,,,33,0,33,0,497.66449569999895,,,,,,,,,,,,,,,,,,,,,,,,,,,,,,,,,,,,,,,,,,,,,,,,,,,,,,,,,Geschäft,3.6969,497.6495200999998,497.65019839999877,497.6503061000003,497.66449569999895,501.36426389999906,501.348489,501.35266860000047,501.36426389999906,501.36426389999906,501.36426389999906,501.36426389999906,503.3640732999993,503.3640732999993,503.3640732999993,503.3640732999993,503.3484391000002,3,1.0316098000002967,0.3261321999998472,None,,,,,,,,,,,,,,,,,,,,,,8823,1,2025-10-08_19h46.05.261,sm,2024.2.4,60.0078010137164,2025-10-08 19h46.18.530411 +0200,
34,0,34,,,,,,space,4.886030899999241,None,None,3,1.4160910999999032,0.3066030999998475,None,0,0,0,0,,,,,0,0,0,0,,,,,34,0,34,0,503.3640732999993,,,,,,,,,,,,,,,,,,,,,,,,,,,,,,,,,,,,,,,,,,,,,,,,,,,,,,,,,Weinen,2.1014,503.34893009999905,503.3494482999995,503.3496032000003,503.3640732999993,505.480275599999,505.46558879999975,505.46962189999977,505.480275599999,505.480275599999,505.480275599999,505.480275599999,507.4803680999994,507.4803680999994,507.4803680999994,507.4803680999994,507.4654572999989,3,1.4160910999999032,0.3066030999998475,None,,,,,,,,,,,,,,,,,,,,,,8823,1,2025-10-08_19h46.05.261,sm,2024.2.4,60.0078010137164,2025-10-08 19h46.18.530411 +0200,
35,0,35,,,,,,space,4.886030899999241,None,None,3,1.1986178000006475,0.3490252999999939,None,0,0,0,0,,,,,0,0,0,0,,,,,35,0,35,0,507.4803680999994,,,,,,,,,,,,,,,,,,,,,,,,,,,,,,,,,,,,,,,,,,,,,,,,,,,,,,,,,Tradition,2.4261,507.46596390000013,507.4665348999988,507.4666416,507.4803680999994,509.9135717999998,509.89777239999967,509.90265050000016,509.9135717999998,509.9135717999998,509.9135717999998,509.9135717999998,511.9138189000005,511.9138189000005,511.9138189000005,511.9138189000005,511.8980926000004,3,1.1986178000006475,0.3490252999999939,None,,,,,,,,,,,,,,,,,,,,,,8823,1,2025-10-08_19h46.05.261,sm,2024.2.4,60.0078010137164,2025-10-08 19h46.18.530411 +0200,
36,0,36,,,,,,space,4.886030899999241,None,None,2,1.3398029999989376,0.28941290000148,None,0,0,0,0,,,,,0,0,0,0,,,,,36,0,36,0,511.9138189000005,,,,,,,,,,,,,,,,,,,,,,,,,,,,,,,,,,,,,,,,,,,,,,,,,,,,,,,,,Geschwister,4.4691,511.89861980000023,511.89915069999915,511.89925649999896,511.9138189000005,516.3967847000004,516.3809842999999,516.3853242000005,516.3967847000004,516.3967847000004,516.3967847000004,516.3967847000004,518.3966705999992,518.3966705999992,518.3966705999992,518.3966705999992,518.3811851999999,2,1.3398029999989376,0.28941290000148,None,,,,,,,,,,,,,,,,,,,,,,8823,1,2025-10-08_19h46.05.261,sm,2024.2.4,60.0078010137164,2025-10-08 19h46.18.530411 +0200,
37,0,37,,,,,,space,4.886030899999241,None,None,3,0.8651633000008587,0.3464477999987139,None,0,0,0,0,,,,,0,0,0,0,,,,,37,0,37,0,518.3966705999992,,,,,,,,,,,,,,,,,,,,,,,,,,,,,,,,,,,,,,,,,,,,,,,,,,,,,,,,,Kaffee,2.614,518.3816920999998,518.3823534000003,518.3824599,518.3966705999992,521.012811999999,520.9970560999991,521.0004303999995,521.012811999999,521.012811999999,521.012811999999,521.012811999999,523.0129595999988,523.0129595999988,523.0129595999988,523.0129595999988,522.9974896000003,3,0.8651633000008587,0.3464477999987139,None,,,,,,,,,,,,,,,,,,,,,,8823,1,2025-10-08_19h46.05.261,sm,2024.2.4,60.0078010137164,2025-10-08 19h46.18.530411 +0200,
38,0,38,,,,,,space,4.886030899999241,None,None,3,1.3272477999998955,0.3750006999998732,None,0,0,0,0,,,,,0,0,0,0,,,,,38,0,38,0,523.0129595999988,,,,,,,,,,,,,,,,,,,,,,,,,,,,,,,,,,,,,,,,,,,,,,,,,,,,,,,,,Bad,2.4373,522.9979961999998,522.9985978000004,522.9987057999988,523.0129595999988,525.4626663999989,525.4470982999992,525.4506299000004,525.4626663999989,525.4626663999989,525.4626663999989,525.4626663999989,527.4627705999992,527.4627705999992,527.4627705999992,527.4627705999992,527.4469293000002,3,1.3272477999998955,0.3750006999998732,None,,,,,,,,,,,,,,,,,,,,,,8823,1,2025-10-08_19h46.05.261,sm,2024.2.4,60.0078010137164,2025-10-08 19h46.18.530411 +0200,
39,0,39,,,,,,space,4.886030899999241,None,None,3,1.2123925000014424,0.3361064999990049,None,0,0,0,0,,,,,0,0,0,0,,,,,39,0,39,0,527.4627705999992,,,,,,,,,,,,,,,,,,,,,,,,,,,,,,,,,,,,,,,,,,,,,,,,,,,,,,,,,Hose,2.018,527.4473741999991,527.4478633999988,527.4479572,527.4627705999992,529.4957771999998,529.4801219000001,529.4838947999997,529.4957771999998,529.4957771999998,529.4957771999998,529.4957771999998,531.4958004,531.4958004,531.4958004,531.4958004,531.4803054000004,3,1.2123925000014424,0.3361064999990049,None,,,,,,,,,,,,,,,,,,,,,,8823,1,2025-10-08_19h46.05.261,sm,2024.2.4,60.0078010137164,2025-10-08 19h46.18.530411 +0200,
40,0,40,,,,,,space,4.886030899999241,None,None,3,1.2354945999995834,0.3259775999995327,None,0,0,0,0,,,,,0,0,0,0,,,,,40,0,40,0,531.4958004,,,,,,,,,,,,,,,,,,,,,,,,,,,,,,,,,,,,,,,,,,,,,,,,,,,,,,,,,Fiktion,2.7169,531.4808125,531.481466199999,531.4815703999993,531.4958004,534.2119581999996,534.1964007999995,534.2001292999994,534.2119581999996,534.2119581999996,534.2119581999996,534.2119581999996,536.2121074999995,536.2121074999995,536.2121074999995,536.2121074999995,536.1965108000004,3,1.2354945999995834,0.3259775999995327,None,,,,,,,,,,,,,,,,,,,,,,8823,1,2025-10-08_19h46.05.261,sm,2024.2.4,60.0078010137164,2025-10-08 19h46.18.530411 +0200,
41,0,41,,,,,,space,4.886030899999241,None,None,3,1.1971382000010635,0.27322329999879,None,0,0,0,0,,,,,0,0,0,0,,,,,41,0,41,0,536.2121074999995,,,,,,,,,,,,,,,,,,,,,,,,,,,,,,,,,,,,,,,,,,,,,,,,,,,,,,,,,Vulkan,2.0533,536.1970251999992,536.1975463999988,536.1976544999998,536.2121074999995,538.2788767000002,538.2629835999996,538.2670175999992,538.2788767000002,538.2788767000002,538.2788767000002,538.2788767000002,540.2787915999997,540.2787915999997,540.2787915999997,540.2787915999997,540.2629467999996,3,1.1971382000010635,0.27322329999879,None,,,,,,,,,,,,,,,,,,,,,,8823,1,2025-10-08_19h46.05.261,sm,2024.2.4,60.0078010137164,2025-10-08 19h46.18.530411 +0200,
42,0,42,,,,,,space,4.886030899999241,None,None,None,,,None,0,0,0,0,,,,,0,0,0,0,,,,,42,0,42,0,540.2787915999997,,,,,,,,,,,,,,,,,,,,,,,,,,,,,,,,,,,,,,,,,,,,,,,,,,,,,,,,,Blatt,4.4551,540.2633726999993,540.2638349999997,540.2639203999988,540.2787915999997,544.7449362999996,544.7293695999997,544.7334541,544.7449362999996,544.7449362999996,544.7449362999996,544.7449362999996,546.7449020999993,546.7449020999993,546.7449020999993,546.7449020999993,546.7291432000002,None,,,None,,,,,,,,,,,,,,,,,,,,,,8823,1,2025-10-08_19h46.05.261,sm,2024.2.4,60.0078010137164,2025-10-08 19h46.18.530411 +0200,
43,0,43,,,,,,space,4.886030899999241,None,None,3,1.332271799999944,0.2442800000007992,None,0,0,0,0,,,,,0,0,0,0,,,,,43,0,43,0,546.7449020999993,,,,,,,,,,,,,,,,,,,,,,,,,,,,,,,,,,,,,,,,,,,,,,,,,,,,,,,,,Karton,2.4498,546.7295329999997,546.7300471999988,546.7301361999998,546.7449020999993,549.1946862000004,549.1791011999994,549.1833262,549.1946862000004,549.1946862000004,549.1946862000004,549.1946862000004,551.1949268999997,551.1949268999997,551.1949268999997,551.1949268999997,551.1789245999989,3,1.332271799999944,0.2442800000007992,None,,,,,,,,,,,,,,,,,,,,,,8823,1,2025-10-08_19h46.05.261,sm,2024.2.4,60.0078010137164,2025-10-08 19h46.18.530411 +0200,
44,0,44,,,,,,space,4.886030899999241,None,None,3,1.5830833999989409,0.2640996999998606,None,0,0,0,0,,,,,0,0,0,0,,,,,44,0,44,0,551.1949268999997,,,,,,,,,,,,,,,,,,,,,,,,,,,,,,,,,,,,,,,,,,,,,,,,,,,,,,,,,Zimmer,3.2172,551.1794620000001,551.1803106999996,551.1804355999993,551.1949268999997,554.4112237999998,554.3955840999988,554.3997963999991,554.4112237999998,554.4112237999998,554.4112237999998,554.4112237999998,556.4110392999992,556.4110392999992,556.4110392999992,556.4110392999992,556.3953483999994,3,1.5830833999989409,0.2640996999998606,None,,,,,,,,,,,,,,,,,,,,,,8823,1,2025-10-08_19h46.05.261,sm,2024.2.4,60.0078010137164,2025-10-08 19h46.18.530411 +0200,
45,0,45,,,,,,space,4.886030899999241,None,None,3,1.1568172999996023,0.2622581000014179,None,0,0,0,0,,,,,0,0,0,0,,,,,45,0,45,0,556.4110392999992,,,,,,,,,,,,,,,,,,,,,,,,,,,,,,,,,,,,,,,,,,,,,,,,,,,,,,,,,Ball,2.7425,556.3958641999998,556.3963803999995,556.3964876999999,556.4110392999992,559.160802299999,559.1451228999995,559.1484371999995,559.160802299999,559.160802299999,559.160802299999,559.160802299999,561.1607478999995,561.1607478999995,561.1607478999995,561.1607478999995,561.1455366999999,3,1.1568172999996023,0.2622581000014179,None,,,,,,,,,,,,,,,,,,,,,,8823,1,2025-10-08_19h46.05.261,sm,2024.2.4,60.0078010137164,2025-10-08 19h46.18.530411 +0200,
46,0,46,,,,,,space,4.886030899999241,None,None,3,0.9379398000000947,0.32251149999865447,None,0,0,0,0,,,,,0,0,0,0,,,,,46,0,46,0,561.1607478999995,,,,,,,,,,,,,,,,,,,,,,,,,,,,,,,,,,,,,,,,,,,,,,,,,,,,,,,,,Wein,3.3182,561.1460155999994,561.1465236999993,561.1466263999991,561.1607478999995,564.4938010000005,564.4777630999997,564.4804867000003,564.4938010000005,564.4938010000005,564.4938010000005,564.4938010000005,566.4938043999991,566.4938043999991,566.4938043999991,566.4938043999991,566.4781886000001,3,0.9379398000000947,0.32251149999865447,None,,,,,,,,,,,,,,,,,,,,,,8823,1,2025-10-08_19h46.05.261,sm,2024.2.4,60.0078010137164,2025-10-08 19h46.18.530411 +0200,
47,0,47,,,,,,space,4.886030899999241,None,None,3,1.0374319000002288,0.34766529999978957,None,0,0,0,0,,,,,0,0,0,0,,,,,47,0,47,0,566.4938043999991,,,,,,,,,,,,,,,,,,,,,,,,,,,,,,,,,,,,,,,,,,,,,,,,,,,,,,,,,Zug,2.376,566.4787004999998,566.4792259999995,566.4793308999997,566.4938043999991,568.8772348000002,568.8612273999988,568.8648868,568.8772348000002,568.8772348000002,568.8772348000002,568.8772348000002,570.8769398999993,570.8769398999993,570.8769398999993,570.8769398999993,570.8611779000003,3,1.0374319000002288,0.34766529999978957,None,,,,,,,,,,,,,,,,,,,,,,8823,1,2025-10-08_19h46.05.261,sm,2024.2.4,60.0078010137164,2025-10-08 19h46.18.530411 +0200,
48,0,48,,,,,,space,4.886030899999241,None,None,3,0.9637094999998226,0.2841963000009855,None,0,0,0,0,,,,,0,0,0,0,,,,,48,0,48,0,570.8769398999993,,,,,,,,,,,,,,,,,,,,,,,,,,,,,,,,,,,,,,,,,,,,,,,,,,,,,,,,,Safari,3.3898,570.8616849999999,570.8621984000001,570.8623100999994,570.8769398999993,574.2769852000001,574.2611077000001,574.2645859999993,574.2769852000001,574.2769852000001,574.2769852000001,574.2769852000001,576.2765576999991,576.2765576999991,576.2765576999991,576.2765576999991,576.2609119999997,3,0.9637094999998226,0.2841963000009855,None,,,,,,,,,,,,,,,,,,,,,,8823,1,2025-10-08_19h46.05.261,sm,2024.2.4,60.0078010137164,2025-10-08 19h46.18.530411 +0200,
49,0,49,,,,,,space,4.886030899999241,None,None,3,0.7694416000013007,0.29548479999903066,None,0,0,0,0,,,,,0,0,0,0,,,,,49,0,49,0,576.2765576999991,,,,,,,,,,,,,,,,,,,,,,,,,,,,,,,,,,,,,,,,,,,,,,,,,,,,,,,,,Datei,2.3949,576.2614242999989,576.2620336999989,576.2621406999988,576.2765576999991,578.676457399999,578.6609670999987,578.6659715000005,578.676457399999,578.676457399999,578.676457399999,578.676457399999,580.6762428000002,580.6762428000002,580.6762428000002,580.6762428000002,580.6614393,3,0.7694416000013007,0.29548479999903066,None,,,,,,,,,,,,,,,,,,,,,,8823,1,2025-10-08_19h46.05.261,sm,2024.2.4,60.0078010137164,2025-10-08 19h46.18.530411 +0200,
50,0,50,,,,,,space,4.886030899999241,None,None,3,0.7649201999993238,0.28410880000046745,None,0,0,0,0,,,,,0,0,0,0,,,,,50,0,50,0,580.6762428000002,,,,,,,,,,,,,,,,,,,,,,,,,,,,,,,,,,,,,,,,,,,,,,,,,,,,,,,,,Kälte,3.4276,580.6619465000003,580.6626028999999,580.6627105999996,580.6762428000002,584.110063099999,584.093464399999,584.096598099999,584.110063099999,584.110063099999,584.110063099999,584.110063099999,586.1094567,586.1094567,586.1094567,586.1094567,586.0937752999998,3,0.7649201999993238,0.28410880000046745,None,,,,,,,,,,,,,,,,,,,,,,8823,1,2025-10-08_19h46.05.261,sm,2024.2.4,60.0078010137164,2025-10-08 19h46.18.530411 +0200,
51,0,51,,,,,,space,4.886030899999241,None,None,2,1.2547094999990804,0.2358265000002575,None,0,0,0,0,,,,,0,0,0,0,,,,,51,0,51,0,586.1094567,,,,,,,,,,,,,,,,,,,,,,,,,,,,,,,,,,,,,,,,,,,,,,,,,,,,,,,,,Zwerg,2.133,586.0942777,586.0950316999988,586.0951437999993,586.1094567,588.2425205,588.2268666,588.2305505999993,588.2425205,588.2425205,588.2425205,588.2425205,590.2424902000002,590.2424902000002,590.2424902000002,590.2424902000002,590.2272572999991,2,1.2547094999990804,0.2358265000002575,None,,,,,,,,,,,,,,,,,,,,,,8823,1,2025-10-08_19h46.05.261,sm,2024.2.4,60.0078010137164,2025-10-08 19h46.18.530411 +0200,
52,0,52,,,,,,space,4.886030899999241,None,None,3,0.7769829000008031,0.29023489999963203,None,0,0,0,0,,,,,0,0,0,0,,,,,52,0,52,0,590.2424902000002,,,,,,,,,,,,,,,,,,,,,,,,,,,,,,,,,,,,,,,,,,,,,,,,,,,,,,,,,Zahnpasta,3.1377,590.2277622999991,590.2284237000003,590.228531499999,590.2424902000002,593.3922260999989,593.3765430000003,593.3808572999988,593.3922260999989,593.3922260999989,593.3922260999989,593.3922260999989,595.3924038000005,595.3924038000005,595.3924038000005,595.3924038000005,595.3765421999997,3,0.7769829000008031,0.29023489999963203,None,,,,,,,,,,,,,,,,,,,,,,8823,1,2025-10-08_19h46.05.261,sm,2024.2.4,60.0078010137164,2025-10-08 19h46.18.530411 +0200,
53,0,53,,,,,,space,4.886030899999241,None,None,3,0.6559211000003415,0.31251610000072105,None,0,0,0,0,,,,,0,0,0,0,,,,,53,0,53,0,595.3924038000005,,,,,,,,,,,,,,,,,,,,,,,,,,,,,,,,,,,,,,,,,,,,,,,,,,,,,,,,,Diamant,3.7345,595.3770502999996,595.3777228999988,595.3778316999997,595.3924038000005,599.1416843999996,599.1261018000005,599.1297618999997,599.1416843999996,599.1416843999996,599.1416843999996,599.1416843999996,601.1418357000002,601.1418357000002,601.1418357000002,601.1418357000002,601.1265191999992,3,0.6559211000003415,0.31251610000072105,None,,,,,,,,,,,,,,,,,,,,,,8823,1,2025-10-08_19h46.05.261,sm,2024.2.4,60.0078010137164,2025-10-08 19h46.18.530411 +0200,
54,0,54,,,,,,space,4.886030899999241,None,None,2,0.7382317999999941,0.24126109999997425,None,0,0,0,0,,,,,0,0,0,0,,,,,54,0,54,0,601.1418357000002,,,,,,,,,,,,,,,,,,,,,,,,,,,,,,,,,,,,,,,,,,,,,,,,,,,,,,,,,Spinne,4.8321,601.1270267999989,601.1276815000001,601.1277931000004,601.1418357000002,605.9748605000004,605.9590162999993,605.9626525000003,605.9748605000004,605.9748605000004,605.9748605000004,605.9748605000004,607.9748203999989,607.9748203999989,607.9748203999989,607.9748203999989,607.9592906999987,2,0.7382317999999941,0.24126109999997425,None,,,,,,,,,,,,,,,,,,,,,,8823,1,2025-10-08_19h46.05.261,sm,2024.2.4,60.0078010137164,2025-10-08 19h46.18.530411 +0200,
55,0,55,,,,,,space,4.886030899999241,None,None,3,0.9151134999992792,0.29521240000030957,None,0,0,0,0,,,,,0,0,0,0,,,,,55,0,55,0,607.9748203999989,,,,,,,,,,,,,,,,,,,,,,,,,,,,,,,,,,,,,,,,,,,,,,,,,,,,,,,,,Radio,3.4726,607.9597961,607.9604805999988,607.9605926000004,607.9748203999989,611.4576907999999,611.4417713999992,611.4448125999988,611.4576907999999,611.4576907999999,611.4576907999999,611.4576907999999,613.4577673000003,613.4577673000003,613.4577673000003,613.4577673000003,613.4422885000004,3,0.9151134999992792,0.29521240000030957,None,,,,,,,,,,,,,,,,,,,,,,8823,1,2025-10-08_19h46.05.261,sm,2024.2.4,60.0078010137164,2025-10-08 19h46.18.530411 +0200,
56,0,56,,,,,,space,4.886030899999241,None,None,2,1.0878166000002238,0.18298379999941972,None,0,0,0,0,,,,,0,0,0,0,,,,,56,0,56,0,613.4577673000003,,,,,,,,,,,,,,,,,,,,,,,,,,,,,,,,,,,,,,,,,,,,,,,,,,,,,,,,,Mund,2.1226,613.4427956,613.4434445999996,613.4435520999996,613.4577673000003,615.5912348999991,615.5752056999991,615.5791754999991,615.5912348999991,615.5912348999991,615.5912348999991,615.5912348999991,617.5910028999988,617.5910028999988,617.5910028999988,617.5910028999988,617.5752878999992,2,1.0878166000002238,0.18298379999941972,None,,,,,,,,,,,,,,,,,,,,,,8823,1,2025-10-08_19h46.05.261,sm,2024.2.4,60.0078010137164,2025-10-08 19h46.18.530411 +0200,
57,0,57,,,,,,space,4.886030899999241,None,None,2,1.0163092999991932,0.17358860000058485,None,0,0,0,0,,,,,0,0,0,0,,,,,57,0,57,0,617.5910028999988,,,,,,,,,,,,,,,,,,,,,,,,,,,,,,,,,,,,,,,,,,,,,,,,,,,,,,,,,Knie,2.0301,617.5757955999998,617.5763048999997,617.5764199999994,617.5910028999988,619.6241148999998,619.6084926000003,619.6121186,619.6241148999998,619.6241148999998,619.6241148999998,619.6241148999998,621.6239532999989,621.6239532999989,621.6239532999989,621.6239532999989,621.6086801000001,2,1.0163092999991932,0.17358860000058485,None,,,,,,,,,,,,,,,,,,,,,,8823,1,2025-10-08_19h46.05.261,sm,2024.2.4,60.0078010137164,2025-10-08 19h46.18.530411 +0200,
58,0,58,,,,,,space,4.886030899999241,None,None,3,0.8614608000007138,0.23717559999931837,None,0,0,0,0,,,,,0,0,0,0,,,,,58,0,58,0,621.6239532999989,,,,,,,,,,,,,,,,,,,,,,,,,,,,,,,,,,,,,,,,,,,,,,,,,,,,,,,,,Lied,2.2341,621.6091906999991,621.6097649000003,621.6098708999998,621.6239532999989,623.8572585999991,623.8417623999994,623.8453372999993,623.8572585999991,623.8572585999991,623.8572585999991,623.8572585999991,625.8571021999996,625.8571021999996,625.8571021999996,625.8571021999996,625.8416326999995,3,0.8614608000007138,0.23717559999931837,None,,,,,,,,,,,,,,,,,,,,,,8823,1,2025-10-08_19h46.05.261,sm,2024.2.4,60.0078010137164,2025-10-08 19h46.18.530411 +0200,
59,0,59,,,,,,space,4.886030899999241,None,None,3,0.9331189000004088,0.19841300000007323,None,0,0,0,0,,,,,0,0,0,0,,,,,59,0,59,0,625.8571021999996,,,,,,,,,,,,,,,,,,,,,,,,,,,,,,,,,,,,,,,,,,,,,,,,,,,,,,,,,Tasche,2.1494,625.8421417999998,625.8426602,625.842771399999,625.8571021999996,628.0068114999995,627.9911523999999,627.9946387,628.0068114999995,628.0068114999995,628.0068114999995,628.0068114999995,630.0069475,630.0069475,630.0069475,630.0069475,629.9912776000001,3,0.9331189000004088,0.19841300000007323,None,,,,,,,,,,,,,,,,,,,,,,8823,1,2025-10-08_19h46.05.261,sm,2024.2.4,60.0078010137164,2025-10-08 19h46.18.530411 +0200,
60,0,60,,,,,,space,4.886030899999241,None,None,3,0.8283203999999387,0.33291339999959746,None,0,0,0,0,,,,,0,0,0,0,,,,,60,0,60,0,630.0069475,,,,,,,,,,,,,,,,,,,,,,,,,,,,,,,,,,,,,,,,,,,,,,,,,,,,,,,,,Reise,2.1241,629.9917881999991,629.9922998000002,629.9924030000002,630.0069475,632.1401654000001,632.1243135000004,632.1281990999996,632.1401654000001,632.1401654000001,632.1401654000001,632.1401654000001,634.1402254999994,634.1402254999994,634.1402254999994,634.1402254999994,634.1246694999991,3,0.8283203999999387,0.33291339999959746,None,,,,,,,,,,,,,,,,,,,,,,8823,1,2025-10-08_19h46.05.261,sm,2024.2.4,60.0078010137164,2025-10-08 19h46.18.530411 +0200,
61,0,61,,,,,,space,4.886030899999241,None,None,2,0.7392007999987982,0.25510639999993145,None,0,0,0,0,,,,,0,0,0,0,,,,,61,0,61,0,634.1402254999994,,,,,,,,,,,,,,,,,,,,,,,,,,,,,,,,,,,,,,,,,,,,,,,,,,,,,,,,,Lehrer,2.7963,634.1251740999996,634.1257411999995,634.1258488000003,634.1402254999994,636.9398929999988,636.9242938999996,636.9280362999998,636.9398929999988,636.9398929999988,636.9398929999988,636.9398929999988,638.9396111000005,638.9396111000005,638.9396111000005,638.9396111000005,638.9240661000003,2,0.7392007999987982,0.25510639999993145,None,,,,,,,,,,,,,,,,,,,,,,8823,1,2025-10-08_19h46.05.261,sm,2024.2.4,60.0078010137164,2025-10-08 19h46.18.530411 +0200,
62,0,62,,,,,,space,4.886030899999241,None,None,3,0.773493700000472,0.3430477999991126,None,0,0,0,0,,,,,0,0,0,0,,,,,62,0,62,0,638.9396111000005,,,,,,,,,,,,,,,,,,,,,,,,,,,,,,,,,,,,,,,,,,,,,,,,,,,,,,,,,Zeit,4.0757,638.9245692000004,638.9250833000006,638.9251882999997,638.9396111000005,643.0226549999988,643.0069822999994,643.0099012999999,643.0226549999988,643.0226549999988,643.0226549999988,643.0226549999988,645.0227926999996,645.0227926999996,645.0227926999996,645.0227926999996,645.0070455999994,3,0.773493700000472,0.3430477999991126,None,,,,,,,,,,,,,,,,,,,,,,8823,1,2025-10-08_19h46.05.261,sm,2024.2.4,60.0078010137164,2025-10-08 19h46.18.530411 +0200,
63,0,63,,,,,,space,4.886030899999241,None,None,3,1.0928268999996362,0.33111819999976433,None,0,0,0,0,,,,,0,0,0,0,,,,,63,0,63,0,645.0227926999996,,,,,,,,,,,,,,,,,,,,,,,,,,,,,,,,,,,,,,,,,,,,,,,,,,,,,,,,,Zigarette,2.6121,645.007536699999,645.0080349999989,645.0081413999997,645.0227926999996,647.6393967000004,647.6234394999992,647.6278072000005,647.6393967000004,647.6393967000004,647.6393967000004,647.6393967000004,649.6391191999992,649.6391191999992,649.6391191999992,649.6391191999992,649.6235378000001,3,1.0928268999996362,0.33111819999976433,None,,,,,,,,,,,,,,,,,,,,,,8823,1,2025-10-08_19h46.05.261,sm,2024.2.4,60.0078010137164,2025-10-08 19h46.18.530411 +0200,
64,0,64,,,,,,space,4.886030899999241,None,None,3,0.9572920999999042,0.33321799999976065,None,0,0,0,0,,,,,0,0,0,0,,,,,64,0,64,0,649.6391191999992,,,,,,,,,,,,,,,,,,,,,,,,,,,,,,,,,,,,,,,,,,,,,,,,,,,,,,,,,Postkarte,2.1763,649.6240505000005,649.6245655000002,649.6246725000001,649.6391191999992,651.8218625999998,651.8065872999996,651.8139042000003,651.8218625999998,651.8218625999998,651.8218625999998,651.8218625999998,653.8221744999992,653.8221744999992,653.8221744999992,653.8221744999992,653.8064940000004,3,0.9572920999999042,0.33321799999976065,None,,,,,,,,,,,,,,,,,,,,,,8823,1,2025-10-08_19h46.05.261,sm,2024.2.4,60.0078010137164,2025-10-08 19h46.18.530411 +0200,
65,0,65,,,,,,space,4.886030899999241,None,None,3,0.716691699999501,0.3411501999999018,None,0,0,0,0,,,,,0,0,0,0,,,,,65,0,65,0,653.8221744999992,,,,,,,,,,,,,,,,,,,,,,,,,,,,,,,,,,,,,,,,,,,,,,,,,,,,,,,,,Marmor,4.7563,653.806976599999,653.8074756999995,653.8075742000001,653.8221744999992,658.588583499999,658.5729463999996,658.5767147999995,658.588583499999,658.588583499999,658.588583499999,658.588583499999,660.5885711999999,660.5885711999999,660.5885711999999,660.5885711999999,660.5727785999989,3,0.716691699999501,0.3411501999999018,None,,,,,,,,,,,,,,,,,,,,,,8823,1,2025-10-08_19h46.05.261,sm,2024.2.4,60.0078010137164,2025-10-08 19h46.18.530411 +0200,
66,0,66,,,,,,space,4.886030899999241,None,None,2,0.8837452999996458,0.24646109999957844,None,0,0,0,0,,,,,0,0,0,0,,,,,66,0,66,0,660.5885711999999,,,,,,,,,,,,,,,,,,,,,,,,,,,,,,,,,,,,,,,,,,,,,,,,,,,,,,,,,Handwerker,3.4282,660.5732319999988,660.5737279000004,660.5738275999993,660.5885711999999,664.0212018000002,664.0057235000004,664.0091816000004,664.0212018000002,664.0212018000002,664.0212018000002,664.0212018000002,666.0214617999991,666.0214617999991,666.0214617999991,666.0214617999991,666.0060937999988,2,0.8837452999996458,0.24646109999957844,None,,,,,,,,,,,,,,,,,,,,,,8823,1,2025-10-08_19h46.05.261,sm,2024.2.4,60.0078010137164,2025-10-08 19h46.18.530411 +0200,
67,0,67,,,,,,space,4.886030899999241,None,None,3,0.8286469999984547,0.29757880000033765,None,0,0,0,0,,,,,0,0,0,0,,,,,67,0,67,0,666.0214617999991,,,,,,,,,,,,,,,,,,,,,,,,,,,,,,,,,,,,,,,,,,,,,,,,,,,,,,,,,Auto,2.0342,666.0065976000005,666.0071339999995,666.0072392999991,666.0214617999991,668.0544771000004,668.0389070000001,668.0419636999995,668.0544771000004,668.0544771000004,668.0544771000004,668.0544771000004,670.0546409999988,670.0546409999988,670.0546409999988,670.0546409999988,670.0392542999998,3,0.8286469999984547,0.29757880000033765,None,,,,,,,,,,,,,,,,,,,,,,8823,1,2025-10-08_19h46.05.261,sm,2024.2.4,60.0078010137164,2025-10-08 19h46.18.530411 +0200,
68,0,68,,,,,,space,4.886030899999241,None,None,3,0.946048099998734,0.22029190000102972,None,0,0,0,0,,,,,0,0,0,0,,,,,68,0,68,0,670.0546409999988,,,,,,,,,,,,,,,,,,,,,,,,,,,,,,,,,,,,,,,,,,,,,,,,,,,,,,,,,Kuchen ,4.676,670.0397929999999,670.0403248999992,670.0404323000002,670.0546409999988,674.7376349999995,674.7222026,674.7262788999997,674.7376349999995,674.7376349999995,674.7376349999995,674.7376349999995,676.7376446999988,676.7376446999988,676.7376446999988,676.7376446999988,676.7219975999997,3,0.946048099998734,0.22029190000102972,None,,,,,,,,,,,,,,,,,,,,,,8823,1,2025-10-08_19h46.05.261,sm,2024.2.4,60.0078010137164,2025-10-08 19h46.18.530411 +0200,
69,0,69,,,,,,space,4.886030899999241,None,None,2,0.7974090999996406,0.1987568000004103,None,0,0,0,0,,,,,0,0,0,0,,,,,69,0,69,0,676.7376446999988,,,,,,,,,,,,,,,,,,,,,,,,,,,,,,,,,,,,,,,,,,,,,,,,,,,,,,,,,Fledermaus,3.1762,676.7225031999988,676.7230220999991,676.7231277999999,676.7376446999988,679.920615699999,679.9048949999997,679.9117033999992,679.920615699999,679.920615699999,679.920615699999,679.920615699999,681.9210413000001,681.9210413000001,681.9210413000001,681.9210413000001,681.9049596999994,2,0.7974090999996406,0.1987568000004103,None,,,,,,,,,,,,,,,,,,,,,,8823,1,2025-10-08_19h46.05.261,sm,2024.2.4,60.0078010137164,2025-10-08 19h46.18.530411 +0200,
70,0,70,,,,,,space,4.886030899999241,None,None,3,1.0105405999984214,0.25890830000025744,None,0,0,0,0,,,,,0,0,0,0,,,,,70,0,70,0,681.9210413000001,,,,,,,,,,,,,,,,,,,,,,,,,,,,,,,,,,,,,,,,,,,,,,,,,,,,,,,,,Rasen,2.3551,681.9054734000001,681.9059928999995,681.9061005000003,681.9210413000001,684.2868018999998,684.2713722999997,684.2745462999992,684.2868018999998,684.2868018999998,684.2868018999998,684.2868018999998,686.2870714000001,686.2870714000001,686.2870714000001,686.2870714000001,686.2715389000005,3,1.0105405999984214,0.25890830000025744,None,,,,,,,,,,,,,,,,,,,,,,8823,1,2025-10-08_19h46.05.261,sm,2024.2.4,60.0078010137164,2025-10-08 19h46.18.530411 +0200,
71,0,71,,,,,,space,4.886030899999241,None,None,3,0.7742745000014111,0.2762254999997822,None,0,0,0,0,,,,,0,0,0,0,,,,,71,0,71,0,686.2870714000001,,,,,,,,,,,,,,,,,,,,,,,,,,,,,,,,,,,,,,,,,,,,,,,,,,,,,,,,,Shampoo,3.2629,686.2720475000006,686.2725441000002,686.2726504999991,686.2870714000001,689.5532222000002,689.5378007999989,689.5412916000005,689.5532222000002,689.5532222000002,689.5532222000002,689.5532222000002,691.5532278999999,691.5532278999999,691.5532278999999,691.5532278999999,691.5378918999995,3,0.7742745000014111,0.2762254999997822,None,,,,,,,,,,,,,,,,,,,,,,8823,1,2025-10-08_19h46.05.261,sm,2024.2.4,60.0078010137164,2025-10-08 19h46.18.530411 +0200,
72,0,72,,,,,,space,4.886030899999241,None,None,3,1.247669099999257,0.28926180000053137,None,0,0,0,0,,,,,0,0,0,0,,,,,72,0,72,0,691.5532278999999,,,,,,,,,,,,,,,,,,,,,,,,,,,,,,,,,,,,,,,,,,,,,,,,,,,,,,,,,Teller,4.9054,691.5383935999998,691.5390502999999,691.5391615999997,691.5532278999999,696.4696241000001,696.4538260999998,696.4573820000005,696.4696241000001,696.4696241000001,696.4696241000001,696.4696241000001,698.4696678,698.4696678,698.4696678,698.4696678,698.4542698999994,3,1.247669099999257,0.28926180000053137,None,,,,,,,,,,,,,,,,,,,,,,8823,1,2025-10-08_19h46.05.261,sm,2024.2.4,60.0078010137164,2025-10-08 19h46.18.530411 +0200,
73,0,73,,,,,,space,4.886030899999241,None,None,3,1.0437399000002188,0.20731359999990673,None,0,0,0,0,,,,,0,0,0,0,,,,,73,0,73,0,698.4696678,,,,,,,,,,,,,,,,,,,,,,,,,,,,,,,,,,,,,,,,,,,,,,,,,,,,,,,,,Salz,2.5156,698.4547763999999,698.4552917000001,698.4553956999989,698.4696678,700.9858523000003,700.9701986,700.9732827999997,700.9858523000003,700.9858523000003,700.9858523000003,700.9858523000003,702.9861631999993,702.9861631999993,702.9861631999993,702.9861631999993,702.9710643999988,3,1.0437399000002188,0.20731359999990673,None,,,,,,,,,,,,,,,,,,,,,,8823,1,2025-10-08_19h46.05.261,sm,2024.2.4,60.0078010137164,2025-10-08 19h46.18.530411 +0200,
74,0,74,,,,,,space,4.886030899999241,None,None,2,0.7178456000001461,0.17795959999966726,None,0,0,0,0,,,,,0,0,0,0,,,,,74,0,74,0,702.9861631999993,,,,,,,,,,,,,,,,,,,,,,,,,,,,,,,,,,,,,,,,,,,,,,,,,,,,,,,,,Nase,4.499,702.9715866999995,702.9721886999996,702.972296599999,702.9861631999993,707.4856498999998,707.4700057999999,707.4734688999997,707.4856498999998,707.4856498999998,707.4856498999998,707.4856498999998,709.485991399999,709.485991399999,709.485991399999,709.485991399999,709.4701647999991,2,0.7178456000001461,0.17795959999966726,None,,,,,,,,,,,,,,,,,,,,,,8823,1,2025-10-08_19h46.05.261,sm,2024.2.4,60.0078010137164,2025-10-08 19h46.18.530411 +0200,
75,0,75,,,,,,space,4.886030899999241,None,None,2,0.7840964999995776,0.23416809999980615,None,0,0,0,0,,,,,0,0,0,0,,,,,75,0,75,0,709.485991399999,,,,,,,,,,,,,,,,,,,,,,,,,,,,,,,,,,,,,,,,,,,,,,,,,,,,,,,,,Anhänger,3.1702,709.4706165999996,709.4711690000004,709.4712686999992,709.485991399999,712.6685813999993,712.6532853999997,712.6569798,712.6685813999993,712.6685813999993,712.6685813999993,712.6685813999993,714.6689072999998,714.6689072999998,714.6689072999998,714.6689072999998,714.6532671999994,2,0.7840964999995776,0.23416809999980615,None,,,,,,,,,,,,,,,,,,,,,,8823,1,2025-10-08_19h46.05.261,sm,2024.2.4,60.0078010137164,2025-10-08 19h46.18.530411 +0200,
76,0,76,,,,,,space,4.886030899999241,None,None,3,0.7576750999996875,0.291909300000043,None,0,0,0,0,,,,,0,0,0,0,,,,,76,0,76,0,714.6689072999998,,,,,,,,,,,,,,,,,,,,,,,,,,,,,,,,,,,,,,,,,,,,,,,,,,,,,,,,,Dunkelheit,2.0186,714.6537821999991,714.6542859000001,714.6543923999998,714.6689072999998,716.7024925999995,716.6862958000002,716.6907499999998,716.7024925999995,716.7024925999995,716.7024925999995,716.7024925999995,718.7018963999999,718.7018963999999,718.7018963999999,718.7018963999999,718.6863475999999,3,0.7576750999996875,0.291909300000043,None,,,,,,,,,,,,,,,,,,,,,,8823,1,2025-10-08_19h46.05.261,sm,2024.2.4,60.0078010137164,2025-10-08 19h46.18.530411 +0200,
77,0,77,,,,,,space,4.886030899999241,None,None,3,0.7286289999992732,0.29462380000040866,None,0,0,0,0,,,,,0,0,0,0,,,,,77,0,77,0,718.7018963999999,,,,,,,,,,,,,,,,,,,,,,,,,,,,,,,,,,,,,,,,,,,,,,,,,,,,,,,,,Anruf,3.9268,718.6868840999996,718.6874083000002,718.6875160999989,718.7018963999999,722.6349511999997,722.6193566999991,722.6235240999995,722.6349511999997,722.6349511999997,722.6349511999997,722.6349511999997,724.6348978000005,724.6348978000005,724.6348978000005,724.6348978000005,724.6192577999991,3,0.7286289999992732,0.29462380000040866,None,,,,,,,,,,,,,,,,,,,,,,8823,1,2025-10-08_19h46.05.261,sm,2024.2.4,60.0078010137164,2025-10-08 19h46.18.530411 +0200,
78,0,78,,,,,,space,4.886030899999241,None,None,3,0.8611242999995739,0.2768199000001914,None,0,0,0,0,,,,,0,0,0,0,,,,,78,0,78,0,724.6348978000005,,,,,,,,,,,,,,,,,,,,,,,,,,,,,,,,,,,,,,,,,,,,,,,,,,,,,,,,,Kamera,3.2699,724.6197718000003,724.6202873999991,724.6203912000001,724.6348978000005,727.9180390999991,727.9023766999999,727.9065028000005,727.9180390999991,727.9180390999991,727.9180390999991,727.9180390999991,729.9179069999991,729.9179069999991,729.9179069999991,729.9179069999991,729.9025856999997,3,0.8611242999995739,0.2768199000001914,None,,,,,,,,,,,,,,,,,,,,,,8823,1,2025-10-08_19h46.05.261,sm,2024.2.4,60.0078010137164,2025-10-08 19h46.18.530411 +0200,
79,0,79,,,,,,space,4.886030899999241,None,None,2,0.9421328999997058,0.26697000000058324,None,0,0,0,0,,,,,0,0,0,0,,,,,79,0,79,0,729.9179069999991,,,,,,,,,,,,,,,,,,,,,,,,,,,,,,,,,,,,,,,,,,,,,,,,,,,,,,,,,Tanne,2.2467,729.9031039000001,729.9036863999991,729.9037967000004,729.9179069999991,732.1679667999997,732.1521252000002,732.1561552999992,732.1679667999997,732.1679667999997,732.1679667999997,732.1679667999997,734.1794305999993,734.1794305999993,734.1794305999993,734.1794305999993,734.1520447999992,2,0.9421328999997058,0.26697000000058324,None,,,,,,,,,,,,,,,,,,,,,,8823,1,2025-10-08_19h46.05.261,sm,2024.2.4,60.0078010137164,2025-10-08 19h46.18.530411 +0200,
0,0,0,,,,,2.0817,space,1.680929300000571,None,None,3,1.1128404999999475,0.3597801999985677,None,0,0,0,0,,,,,1,0,1,0,0,79,79,56,0,0,0,0,783.8980155999998,,,,,,,,,,,,,,,,,,,,,,,,,,,,,,,,,,,,757.1941463000003,757.1943912999996,757.2006222,757.2056362999992,757.2056362999992,758.9014816999988,space,1.680929300000571,None,758.9016401999997,758.9164134999992,758.9164134999992,771.8820455999994,None,771.8889103000001,771.8989450999998,771.8972121666668,773.1063964999994,781.881924266667,782.8865494000001,783.8828075000001,Feld,2.0817,783.8840447000002,783.8845607999992,783.8846519999988,783.8980155999998,785.9813467999993,785.9659775,785.9701576999996,785.9813467999993,785.9813467999993,785.9813467999993,785.9813467999993,787.9810925000002,787.9810925000002,787.9810925000002,787.9810925000002,787.9656582999996,3,1.1128404999999475,0.3597801999985677,None,746.1678181999996,746.1678993000005,None,746.1758429000001,746.1839736999991,750.1834746999994,750.1834746999994,750.1834746999994,757.1497614999989,2,6.954191700000592,None,783.8980155999998,,,,,,,,,8823,1,2025-10-08_19h46.05.261,sm,2024.2.4,60.0078010137164,2025-10-08 19h46.18.530411 +0200,
1,0,1,,,,,,space,1.680929300000571,None,None,2,0.8200266000003467,0.25037650000012945,None,0,0,0,0,,,,,1,0,1,0,,,,,1,0,1,0,787.9810925000002,,,,,,,,,,,,,,,,,,,,,,,,,,,,,,,,,,,,,,,,,,,,,,,,,,,,,,,,,Schwester,2.9048,787.9661725000005,787.9667219999992,787.9668306000003,787.9810925000002,790.8976781000001,790.882501099999,790.8868278999998,790.8976781000001,790.8976781000001,790.8976781000001,790.8976781000001,792.8977095999999,792.8977095999999,792.8977095999999,792.8977095999999,792.8820467000005,2,0.8200266000003467,0.25037650000012945,None,,,,,,,,,,,,,,,,,,,,,,8823,1,2025-10-08_19h46.05.261,sm,2024.2.4,60.0078010137164,2025-10-08 19h46.18.530411 +0200,
2,0,2,,,,,,space,1.680929300000571,None,None,3,0.7016953000002104,0.3041764999998122,None,0,0,0,0,,,,,1,0,1,0,,,,,2,0,2,0,792.8977095999999,,,,,,,,,,,,,,,,,,,,,,,,,,,,,,,,,,,,,,,,,,,,,,,,,,,,,,,,,Schlüssel,5.1553,792.8825381999995,792.8830462999995,792.8831582000003,792.8977095999999,798.0639716000005,798.0482020999989,798.0523126999997,798.0639716000005,798.0639716000005,798.0639716000005,798.0639716000005,800.0639892999989,800.0639892999989,800.0639892999989,800.0639892999989,800.0486213999993,3,0.7016953000002104,0.3041764999998122,None,,,,,,,,,,,,,,,,,,,,,,8823,1,2025-10-08_19h46.05.261,sm,2024.2.4,60.0078010137164,2025-10-08 19h46.18.530411 +0200,
3,0,3,,,,,,space,1.680929300000571,None,None,3,0.9431636999997863,0.26374070000019856,None,0,0,0,0,,,,,1,0,1,0,,,,,3,0,3,0,800.0639892999989,,,,,,,,,,,,,,,,,,,,,,,,,,,,,,,,,,,,,,,,,,,,,,,,,,,,,,,,,Schuh,2.1226,800.0491010999995,800.0496094999999,800.0497080000005,800.0639892999989,802.1969752000005,802.1815740000002,802.1853217999997,802.1969752000005,802.1969752000005,802.1969752000005,802.1969752000005,804.1970346999988,804.1970346999988,804.1970346999988,804.1970346999988,804.1813755999992,3,0.9431636999997863,0.26374070000019856,None,,,,,,,,,,,,,,,,,,,,,,8823,1,2025-10-08_19h46.05.261,sm,2024.2.4,60.0078010137164,2025-10-08 19h46.18.530411 +0200,
4,0,4,,,,,,space,1.680929300000571,None,None,3,0.7385278999990987,0.29482370000005176,None,0,0,0,0,,,,,1,0,1,0,,,,,4,0,4,0,804.1970346999988,,,,,,,,,,,,,,,,,,,,,,,,,,,,,,,,,,,,,,,,,,,,,,,,,,,,,,,,,Urlaub,3.4282,804.1818590000003,804.1823602000004,804.1824588,804.1970346999988,807.6298463000003,807.6142693000002,807.6202573999999,807.6298463000003,807.6298463000003,807.6298463000003,807.6298463000003,809.630002599999,809.630002599999,809.630002599999,809.630002599999,809.6146847,3,0.7385278999990987,0.29482370000005176,None,,,,,,,,,,,,,,,,,,,,,,8823,1,2025-10-08_19h46.05.261,sm,2024.2.4,60.0078010137164,2025-10-08 19h46.18.530411 +0200,
5,0,5,,,,,,space,1.680929300000571,None,None,3,1.766442799998913,None,None,0,0,0,0,,,,,1,0,1,0,,,,,5,0,5,0,809.630002599999,,,,,,,,,,,,,,,,,,,,,,,,,,,,,,,,,,,,,,,,,,,,,,,,,,,,,,,,,Gemüse,2.9146,809.6152005000004,809.6157210999991,809.6158283999994,809.630002599999,812.5465390999998,812.5308827999997,812.5343106,812.5465390999998,812.5465390999998,812.5465390999998,812.5465390999998,814.5468837999997,814.5468837999997,814.5468837999997,814.5468837999997,814.5307040999996,3,1.766442799998913,None,None,,,,,,,,,,,,,,,,,,,,,,8823,1,2025-10-08_19h46.05.261,sm,2024.2.4,60.0078010137164,2025-10-08 19h46.18.530411 +0200,
6,0,6,,,,,,space,1.680929300000571,None,None,3,1.1218090999991546,0.23286240000015823,None,0,0,0,0,,,,,1,0,1,0,,,,,6,0,6,0,814.5468837999997,,,,,,,,,,,,,,,,,,,,,,,,,,,,,,,,,,,,,,,,,,,,,,,,,,,,,,,,,Hemd,2.2313,814.5311796999995,814.5317157999998,814.5318152,814.5468837999997,816.7795270999995,816.7639405999998,816.7673937999989,816.7795270999995,816.7795270999995,816.7795270999995,816.7795270999995,818.7794506999999,818.7794506999999,818.7794506999999,818.7794506999999,818.7641046999997,3,1.1218090999991546,0.23286240000015823,None,,,,,,,,,,,,,,,,,,,,,,8823,1,2025-10-08_19h46.05.261,sm,2024.2.4,60.0078010137164,2025-10-08 19h46.18.530411 +0200,
7,0,7,,,,,,space,1.680929300000571,None,None,2,1.0890402999993967,0.2512692000000243,None,0,0,0,0,,,,,1,0,1,0,,,,,7,0,7,0,818.7794506999999,,,,,,,,,,,,,,,,,,,,,,,,,,,,,,,,,,,,,,,,,,,,,,,,,,,,,,,,,Monster,3.6969,818.7645597999999,818.7651879000005,818.765287799999,818.7794506999999,822.4793138999994,822.463805899999,822.4679037999995,822.4793138999994,822.4793138999994,822.4793138999994,822.4793138999994,824.4793489000003,824.4793489000003,824.4793489000003,824.4793489000003,824.4637199999997,2,1.0890402999993967,0.2512692000000243,None,,,,,,,,,,,,,,,,,,,,,,8823,1,2025-10-08_19h46.05.261,sm,2024.2.4,60.0078010137164,2025-10-08 19h46.18.530411 +0200,
8,0,8,,,,,,space,1.680929300000571,None,None,3,0.7013103000008414,0.24956059999931313,None,0,0,0,0,,,,,1,0,1,0,,,,,8,0,8,0,824.4793489000003,,,,,,,,,,,,,,,,,,,,,,,,,,,,,,,,,,,,,,,,,,,,,,,,,,,,,,,,,Farbe,3.2629,824.4642255999988,824.4647946999994,824.4648993999999,824.4793489000003,827.7457407000002,827.7306067999998,827.735642399999,827.7457407000002,827.7457407000002,827.7457407000002,827.7457407000002,829.7458416999998,829.7458416999998,829.7458416999998,829.7458416999998,829.7300808999989,3,0.7013103000008414,0.24956059999931313,None,,,,,,,,,,,,,,,,,,,,,,8823,1,2025-10-08_19h46.05.261,sm,2024.2.4,60.0078010137164,2025-10-08 19h46.18.530411 +0200,
9,0,9,,,,,,space,1.680929300000571,None,None,3,0.8964889000017138,0.19845789999999397,None,0,0,0,0,,,,,1,0,1,0,,,,,9,0,9,0,829.7458416999998,,,,,,,,,,,,,,,,,,,,,,,,,,,,,,,,,,,,,,,,,,,,,,,,,,,,,,,,,Zimt,2.2341,829.7305889999989,829.7311026999996,829.7312266999998,829.7458416999998,831.9959354999992,831.9797553999997,831.9826694999992,831.9959354999992,831.9959354999992,831.9959354999992,831.9959354999992,833.9952474999991,833.9952474999991,833.9952474999991,833.9952474999991,833.9799409999996,3,0.8964889000017138,0.19845789999999397,None,,,,,,,,,,,,,,,,,,,,,,8823,1,2025-10-08_19h46.05.261,sm,2024.2.4,60.0078010137164,2025-10-08 19h46.18.530411 +0200,
10,0,10,,,,,,space,1.680929300000571,None,None,3,0.9252371000002313,0.27924419999908423,None,0,0,0,0,,,,,1,0,1,0,,,,,10,0,10,0,833.9952474999991,,,,,,,,,,,,,,,,,,,,,,,,,,,,,,,,,,,,,,,,,,,,,,,,,,,,,,,,,Theater,3.1762,833.9803737000002,833.9809711999987,833.9810662,833.9952474999991,837.1784076000004,837.163048299999,837.1672605000003,837.1784076000004,837.1784076000004,837.1784076000004,837.1784076000004,839.1785598999995,839.1785598999995,839.1785598999995,839.1785598999995,839.162628,3,0.9252371000002313,0.27924419999908423,None,,,,,,,,,,,,,,,,,,,,,,8823,1,2025-10-08_19h46.05.261,sm,2024.2.4,60.0078010137164,2025-10-08 19h46.18.530411 +0200,
11,0,11,,,,,,space,1.680929300000571,None,None,2,0.7022323000001052,0.20840599999974074,None,0,0,0,0,,,,,1,0,1,0,,,,,11,0,11,0,839.1785598999995,,,,,,,,,,,,,,,,,,,,,,,,,,,,,,,,,,,,,,,,,,,,,,,,,,,,,,,,,Hai,4.676,839.1630573000002,839.1635237999999,839.1636111999997,839.1785598999995,843.8610135999988,843.8457417999998,843.848818299999,843.8610135999988,843.8610135999988,843.8610135999988,843.8610135999988,845.8613219999988,845.8613219999988,845.8613219999988,845.8613219999988,845.8459786999993,2,0.7022323000001052,0.20840599999974074,None,,,,,,,,,,,,,,,,,,,,,,8823,1,2025-10-08_19h46.05.261,sm,2024.2.4,60.0078010137164,2025-10-08 19h46.18.530411 +0200,
12,0,12,,,,,,space,1.680929300000571,None,None,3,1.1432311999997182,0.3227258000006259,None,0,0,0,0,,,,,1,0,1,0,,,,,12,0,12,0,845.8613219999988,,,,,,,,,,,,,,,,,,,,,,,,,,,,,,,,,,,,,,,,,,,,,,,,,,,,,,,,,Saft,2.1494,845.8464777999998,845.8470914999998,845.8471988999991,845.8613219999988,848.0110733000001,847.9953458,847.9985410999998,848.0110733000001,848.0110733000001,848.0110733000001,848.0110733000001,850.011416899999,850.011416899999,850.011416899999,850.011416899999,849.9955326999989,3,1.1432311999997182,0.3227258000006259,None,,,,,,,,,,,,,,,,,,,,,,8823,1,2025-10-08_19h46.05.261,sm,2024.2.4,60.0078010137164,2025-10-08 19h46.18.530411 +0200,
13,0,13,,,,,,space,1.680929300000571,None,None,3,1.068101499999102,0.32039830000030634,None,0,0,0,0,,,,,1,0,1,0,,,,,13,0,13,0,850.011416899999,,,,,,,,,,,,,,,,,,,,,,,,,,,,,,,,,,,,,,,,,,,,,,,,,,,,,,,,,Trennung,3.9268,849.9960345,849.9965973999988,849.9967013999994,850.011416899999,853.9439199999997,853.9283825999992,853.9321449999989,853.9439199999997,853.9439199999997,853.9439199999997,853.9439199999997,855.9443168999987,855.9443168999987,855.9443168999987,855.9443168999987,855.9286513999996,3,1.068101499999102,0.32039830000030634,None,,,,,,,,,,,,,,,,,,,,,,8823,1,2025-10-08_19h46.05.261,sm,2024.2.4,60.0078010137164,2025-10-08 19h46.18.530411 +0200,
14,0,14,,,,,,space,1.680929300000571,None,None,2,1.5222214999994321,0.2483737000002293,None,0,0,0,0,,,,,1,0,1,0,,,,,14,0,14,0,855.9443168999987,,,,,,,,,,,,,,,,,,,,,,,,,,,,,,,,,,,,,,,,,,,,,,,,,,,,,,,,,Team,2.2467,855.9291660999988,855.9296897000004,855.9297936000003,855.9443168999987,858.1938855999997,858.1785223999996,858.1819955999999,858.1938855999997,858.1938855999997,858.1938855999997,858.1938855999997,860.1939987000005,860.1939987000005,860.1939987000005,860.1939987000005,860.1784810999998,2,1.5222214999994321,0.2483737000002293,None,,,,,,,,,,,,,,,,,,,,,,8823,1,2025-10-08_19h46.05.261,sm,2024.2.4,60.0078010137164,2025-10-08 19h46.18.530411 +0200,
15,0,15,,,,,,space,1.680929300000571,None,None,2,1.4197022000007564,0.15698619999966468,None,0,0,0,0,,,,,1,0,1,0,,,,,15,0,15,0,860.1939987000005,,,,,,,,,,,,,,,,,,,,,,,,,,,,,,,,,,,,,,,,,,,,,,,,,,,,,,,,,Blätter,2.133,860.1789853999999,860.1796316,860.1797367999989,860.1939987000005,862.3269906999994,862.3113147999993,862.3164197999995,862.3269906999994,862.3269906999994,862.3269906999994,862.3269906999994,864.3270395,864.3270395,864.3270395,864.3270395,864.311608,2,1.4197022000007564,0.15698619999966468,None,,,,,,,,,,,,,,,,,,,,,,8823,1,2025-10-08_19h46.05.261,sm,2024.2.4,60.0078010137164,2025-10-08 19h46.18.530411 +0200,
16,0,16,,,,,,space,1.680929300000571,None,None,3,1.128471799998806,0.283252100000027,None,0,0,0,0,,,,,1,0,1,0,,,,,16,0,16,0,864.3270395,,,,,,,,,,,,,,,,,,,,,,,,,,,,,,,,,,,,,,,,,,,,,,,,,,,,,,,,,Lernen,4.5741,864.3121188999994,864.3126331999993,864.3127427,864.3270395,868.9105240999997,868.8943153,868.8980166999991,868.9105240999997,868.9105240999997,868.9105240999997,868.9105240999997,870.9100536999995,870.9100536999995,870.9100536999995,870.9100536999995,870.8946111000005,3,1.128471799998806,0.283252100000027,None,,,,,,,,,,,,,,,,,,,,,,8823,1,2025-10-08_19h46.05.261,sm,2024.2.4,60.0078010137164,2025-10-08 19h46.18.530411 +0200,
17,0,17,,,,,,space,1.680929300000571,None,None,3,0.812934800000221,0.30083790000026056,None,0,0,0,0,,,,,1,0,1,0,,,,,17,0,17,0,870.9100536999995,,,,,,,,,,,,,,,,,,,,,,,,,,,,,,,,,,,,,,,,,,,,,,,,,,,,,,,,,Atem,2.0407,870.8951192999994,870.8956500000004,870.8957560999988,870.9100536999995,872.9594318,872.9440154000004,872.9473202999998,872.9594318,872.9594318,872.9594318,872.9594318,874.9601543999997,874.9601543999997,874.9601543999997,874.9601543999997,874.9444189999995,3,0.812934800000221,0.30083790000026056,None,,,,,,,,,,,,,,,,,,,,,,8823,1,2025-10-08_19h46.05.261,sm,2024.2.4,60.0078010137164,2025-10-08 19h46.18.530411 +0200,
18,0,18,,,,,,space,1.680929300000571,None,None,3,0.7394807999990007,0.267294999999649,None,0,0,0,0,,,,,1,0,1,0,,,,,18,0,18,0,874.9601543999997,,,,,,,,,,,,,,,,,,,,,,,,,,,,,,,,,,,,,,,,,,,,,,,,,,,,,,,,,Hammer,2.2283,874.944923699999,874.9455696000005,874.9456759999994,874.9601543999997,877.1933628999996,877.1772442999991,877.1808019,877.1933628999996,877.1933628999996,877.1933628999996,877.1933628999996,879.1927065999989,879.1927065999989,879.1927065999989,879.1927065999989,879.1772332,3,0.7394807999990007,0.267294999999649,None,,,,,,,,,,,,,,,,,,,,,,8823,1,2025-10-08_19h46.05.261,sm,2024.2.4,60.0078010137164,2025-10-08 19h46.18.530411 +0200,
19,0,19,,,,,,space,1.680929300000571,None,None,3,0.8988501999992877,0.27120880000074976,None,0,0,0,0,,,,,1,0,1,0,,,,,19,0,19,0,879.1927065999989,,,,,,,,,,,,,,,,,,,,,,,,,,,,,,,,,,,,,,,,,,,,,,,,,,,,,,,,,Keller,2.4498,879.1777454999992,879.1783995999995,879.1785053000003,879.1927065999989,881.6425624999993,881.6271376999994,881.631195599999,881.6425624999993,881.6425624999993,881.6425624999993,881.6425624999993,883.6426821999994,883.6426821999994,883.6426821999994,883.6426821999994,883.6267057000005,3,0.8988501999992877,0.27120880000074976,None,,,,,,,,,,,,,,,,,,,,,,8823,1,2025-10-08_19h46.05.261,sm,2024.2.4,60.0078010137164,2025-10-08 19h46.18.530411 +0200,
20,0,20,,,,,,space,1.680929300000571,None,None,3,0.9248522999987472,0.285368800001379,None,0,0,0,0,,,,,1,0,1,0,,,,,20,0,20,0,883.6426821999994,,,,,,,,,,,,,,,,,,,,,,,,,,,,,,,,,,,,,,,,,,,,,,,,,,,,,,,,,Fernseher,2.0774,883.6271338999995,883.6276058000003,883.6276956999991,883.6426821999994,885.7253382999988,885.7099242000004,885.7133386999994,885.7253382999988,885.7253382999988,885.7253382999988,885.7253382999988,887.7256226999998,887.7256226999998,887.7256226999998,887.7256226999998,887.7102544999998,3,0.9248522999987472,0.285368800001379,None,,,,,,,,,,,,,,,,,,,,,,8823,1,2025-10-08_19h46.05.261,sm,2024.2.4,60.0078010137164,2025-10-08 19h46.18.530411 +0200,
21,0,21,,,,,,space,1.680929300000571,None,None,3,0.7583611000009114,0.24140690000058385,None,0,0,0,0,,,,,1,0,1,0,,,,,21,0,21,0,887.7256226999998,,,,,,,,,,,,,,,,,,,,,,,,,,,,,,,,,,,,,,,,,,,,,,,,,,,,,,,,,Applaus,2.018,887.7107854000005,887.7113040999993,887.711410599999,887.7256226999998,889.742119999999,889.7269404999988,889.7311050999997,889.742119999999,889.742119999999,889.742119999999,889.742119999999,891.7422401999993,891.7422401999993,891.7422401999993,891.7422401999993,891.7265257999989,3,0.7583611000009114,0.24140690000058385,None,,,,,,,,,,,,,,,,,,,,,,8823,1,2025-10-08_19h46.05.261,sm,2024.2.4,60.0078010137164,2025-10-08 19h46.18.530411 +0200,
22,0,22,,,,,,space,1.680929300000571,None,None,3,1.0515272000011464,0.32114089999959106,None,0,0,0,0,,,,,1,0,1,0,,,,,22,0,22,0,891.7422401999993,,,,,,,,,,,,,,,,,,,,,,,,,,,,,,,,,,,,,,,,,,,,,,,,,,,,,,,,,Geschirr,2.6121,891.7270417,891.7275484999991,891.7276593999995,891.7422401999993,894.3586049000005,894.3431392000002,894.348220599999,894.3586049000005,894.3586049000005,894.3586049000005,894.3586049000005,896.3587764000004,896.3587764000004,896.3587764000004,896.3587764000004,896.3430107000004,3,1.0515272000011464,0.32114089999959106,None,,,,,,,,,,,,,,,,,,,,,,8823,1,2025-10-08_19h46.05.261,sm,2024.2.4,60.0078010137164,2025-10-08 19h46.18.530411 +0200,
23,0,23,,,,,,space,1.680929300000571,None,None,3,1.4988916000002064,0.2682206999998016,None,0,0,0,0,,,,,1,0,1,0,,,,,23,0,23,0,896.3587764000004,,,,,,,,,,,,,,,,,,,,,,,,,,,,,,,,,,,,,,,,,,,,,,,,,,,,,,,,,Gold,2.376,896.3435243999993,896.344042499999,896.3441468000001,896.3587764000004,898.7414943999993,898.7258562999996,898.7289626000002,898.7414943999993,898.7414943999993,898.7414943999993,898.7414943999993,900.7415691999995,900.7415691999995,900.7415691999995,900.7415691999995,900.7262185999989,3,1.4988916000002064,0.2682206999998016,None,,,,,,,,,,,,,,,,,,,,,,8823,1,2025-10-08_19h46.05.261,sm,2024.2.4,60.0078010137164,2025-10-08 19h46.18.530411 +0200,
24,0,24,,,,,,space,1.680929300000571,None,None,3,1.089794699999402,0.2663080999991507,None,0,0,0,0,,,,,1,0,1,0,,,,,24,0,24,0,900.7415691999995,,,,,,,,,,,,,,,,,,,,,,,,,,,,,,,,,,,,,,,,,,,,,,,,,,,,,,,,,Zirkus,2.1585,900.7267303999997,900.7272518999998,900.7273561999991,900.7415691999995,902.9082997999994,902.8928130000004,902.8968723999988,902.9082997999994,902.9082997999994,902.9082997999994,902.9082997999994,904.9081621999994,904.9081621999994,904.9081621999994,904.9081621999994,904.8925963000002,3,1.089794699999402,0.2663080999991507,None,,,,,,,,,,,,,,,,,,,,,,8823,1,2025-10-08_19h46.05.261,sm,2024.2.4,60.0078010137164,2025-10-08 19h46.18.530411 +0200,
25,0,25,,,,,,space,1.680929300000571,None,None,2,0.7336261000000377,0.18701539999892702,None,0,0,0,0,,,,,1,0,1,0,,,,,25,0,25,0,904.9081621999994,,,,,,,,,,,,,,,,,,,,,,,,,,,,,,,,,,,,,,,,,,,,,,,,,,,,,,,,,Beine,2.2785,904.8931085000004,904.8937174999992,904.8938237000002,904.9081621999994,907.1908684999999,907.1753465999991,907.1786792999992,907.1908684999999,907.1908684999999,907.1908684999999,907.1908684999999,909.1910955999992,909.1910955999992,909.1910955999992,909.1910955999992,909.1754906999995,2,0.7336261000000377,0.18701539999892702,None,,,,,,,,,,,,,,,,,,,,,,8823,1,2025-10-08_19h46.05.261,sm,2024.2.4,60.0078010137164,2025-10-08 19h46.18.530411 +0200,
26,0,26,,,,,,space,1.680929300000571,None,None,3,0.7470413000010012,0.24873549999938405,None,0,0,0,0,,,,,1,0,1,0,,,,,26,0,26,0,909.1910955999992,,,,,,,,,,,,,,,,,,,,,,,,,,,,,,,,,,,,,,,,,,,,,,,,,,,,,,,,,Bild,3.3898,909.1759937999996,909.1765670000004,909.1766721000004,909.1910955999992,912.5905996999991,912.5751103999992,912.5783071999995,912.5905996999991,912.5905996999991,912.5905996999991,912.5905996999991,914.5910206999997,914.5910206999997,914.5910206999997,914.5910206999997,914.5755271999988,3,0.7470413000010012,0.24873549999938405,None,,,,,,,,,,,,,,,,,,,,,,8823,1,2025-10-08_19h46.05.261,sm,2024.2.4,60.0078010137164,2025-10-08 19h46.18.530411 +0200,
27,0,27,,,,,,space,1.680929300000571,None,None,3,0.8094883000012487,0.2953637999999046,None,0,0,0,0,,,,,1,0,1,0,,,,,27,0,27,0,914.5910206999997,,,,,,,,,,,,,,,,,,,,,,,,,,,,,,,,,,,,,,,,,,,,,,,,,,,,,,,,,Komödie,3.7345,914.5760344999999,914.5765415000005,914.5766454000004,914.5910206999997,918.3406194999989,918.3248555999999,918.3283111000001,918.3406194999989,918.3406194999989,918.3406194999989,918.3406194999989,920.340619999999,920.340619999999,920.340619999999,920.340619999999,920.3250644999989,3,0.8094883000012487,0.2953637999999046,None,,,,,,,,,,,,,,,,,,,,,,8823,1,2025-10-08_19h46.05.261,sm,2024.2.4,60.0078010137164,2025-10-08 19h46.18.530411 +0200,
28,0,28,,,,,,space,1.680929300000571,None,None,3,1.160561200000302,0.21406819999901927,None,0,0,0,0,,,,,1,0,1,0,,,,,28,0,28,0,920.340619999999,,,,,,,,,,,,,,,,,,,,,,,,,,,,,,,,,,,,,,,,,,,,,,,,,,,,,,,,,Trocken,2.1763,920.3255661999992,920.3260845000004,920.3261923999999,920.340619999999,922.5236903000005,922.5077158999993,922.5111846,922.5236903000005,922.5236903000005,922.5236903000005,922.5236903000005,924.5235974999996,924.5235974999996,924.5235974999996,924.5235974999996,924.5085648000004,3,1.160561200000302,0.21406819999901927,None,,,,,,,,,,,,,,,,,,,,,,8823,1,2025-10-08_19h46.05.261,sm,2024.2.4,60.0078010137164,2025-10-08 19h46.18.530411 +0200,
29,0,29,,,,,,space,1.680929300000571,None,None,3,0.686516699999629,0.22841210000115098,None,0,0,0,0,,,,,1,0,1,0,,,,,29,0,29,0,924.5235974999996,,,,,,,,,,,,,,,,,,,,,,,,,,,,,,,,,,,,,,,,,,,,,,,,,,,,,,,,,Fakt,2.0301,924.5090911999996,924.5096276999993,924.509735399999,924.5235974999996,926.5565506999992,926.5413479999988,926.5450639999999,926.5565506999992,926.5565506999992,926.5565506999992,926.5565506999992,928.5568282000004,928.5568282000004,928.5568282000004,928.5568282000004,928.5411693999995,3,0.686516699999629,0.22841210000115098,None,,,,,,,,,,,,,,,,,,,,,,8823,1,2025-10-08_19h46.05.261,sm,2024.2.4,60.0078010137164,2025-10-08 19h46.18.530411 +0200,
30,0,30,,,,,,space,1.680929300000571,None,None,2,0.8447245999996085,0.2371054000013828,None,0,0,0,0,,,,,1,0,1,0,,,,,30,0,30,0,928.5568282000004,,,,,,,,,,,,,,,,,,,,,,,,,,,,,,,,,,,,,,,,,,,,,,,,,,,,,,,,,Alligator,2.7169,928.5417054999998,928.5425434999997,928.5426823999987,928.5568282000004,931.273408699999,931.2575484999998,931.2617442999999,931.273408699999,931.273408699999,931.273408699999,931.273408699999,933.2729985000005,933.2729985000005,933.2729985000005,933.2729985000005,933.2577189000003,2,0.8447245999996085,0.2371054000013828,None,,,,,,,,,,,,,,,,,,,,,,8823,1,2025-10-08_19h46.05.261,sm,2024.2.4,60.0078010137164,2025-10-08 19h46.18.530411 +0200,
31,0,31,,,,,,space,1.680929300000571,None,None,2,1.0434879000004003,0.20547639999858802,None,0,0,0,0,,,,,1,0,1,0,,,,,31,0,31,0,933.2729985000005,,,,,,,,,,,,,,,,,,,,,,,,,,,,,,,,,,,,,,,,,,,,,,,,,,,,,,,,,Hand,3.2822,933.2582322999988,933.2587490000005,933.258867999999,933.2729985000005,936.5559407000001,936.5403315999993,936.5435732000005,936.5559407000001,936.5559407000001,936.5559407000001,936.5559407000001,938.5564372999997,938.5564372999997,938.5564372999997,938.5564372999997,938.5410697999996,2,1.0434879000004003,0.20547639999858802,None,,,,,,,,,,,,,,,,,,,,,,8823,1,2025-10-08_19h46.05.261,sm,2024.2.4,60.0078010137164,2025-10-08 19h46.18.530411 +0200,
32,0,32,,,,,,space,1.680929300000571,None,None,2,1.1863249999987602,0.1834484999999404,None,0,0,0,0,,,,,1,0,1,0,,,,,32,0,32,0,938.5564372999997,,,,,,,,,,,,,,,,,,,,,,,,,,,,,,,,,,,,,,,,,,,,,,,,,,,,,,,,,Spion,2.3334,938.541579499999,938.5420964000004,938.5422029000001,938.5564372999997,940.8891528000004,940.8735403999999,940.8767069999994,940.8891528000004,940.8891528000004,940.8891528000004,940.8891528000004,942.8893281000001,942.8893281000001,942.8893281000001,942.8893281000001,942.8736582999991,2,1.1863249999987602,0.1834484999999404,None,,,,,,,,,,,,,,,,,,,,,,8823,1,2025-10-08_19h46.05.261,sm,2024.2.4,60.0078010137164,2025-10-08 19h46.18.530411 +0200,
33,0,33,,,,,,space,1.680929300000571,None,None,3,0.7123117999999522,0.2757141000001866,None,0,0,0,0,,,,,1,0,1,0,,,,,33,0,33,0,942.8893281000001,,,,,,,,,,,,,,,,,,,,,,,,,,,,,,,,,,,,,,,,,,,,,,,,,,,,,,,,,Brille,5.1314,942.8741680999992,942.8746845999995,942.8747965999992,942.8893281000001,948.0221614000002,948.0065347999989,948.0104205999996,948.0221614000002,948.0221614000002,948.0221614000002,948.0221614000002,950.0221361999993,950.0221361999993,950.0221361999993,950.0221361999993,950.0065407000002,3,0.7123117999999522,0.2757141000001866,None,,,,,,,,,,,,,,,,,,,,,,8823,1,2025-10-08_19h46.05.261,sm,2024.2.4,60.0078010137164,2025-10-08 19h46.18.530411 +0200,
34,0,34,,,,,,space,1.680929300000571,None,None,3,0.8373832999986917,0.2802142000000458,None,0,0,0,0,,,,,1,0,1,0,,,,,34,0,34,0,950.0221361999993,,,,,,,,,,,,,,,,,,,,,,,,,,,,,,,,,,,,,,,,,,,,,,,,,,,,,,,,,Erde,2.0511,950.0070490999988,950.0076375999997,950.0077430000001,950.0221361999993,952.0887457999997,952.0727891999995,952.0756586999996,952.0887457999997,952.0887457999997,952.0887457999997,952.0887457999997,954.0887045,954.0887045,954.0887045,954.0887045,954.0729580999996,3,0.8373832999986917,0.2802142000000458,None,,,,,,,,,,,,,,,,,,,,,,8823,1,2025-10-08_19h46.05.261,sm,2024.2.4,60.0078010137164,2025-10-08 19h46.18.530411 +0200,
35,0,35,,,,,,space,1.680929300000571,None,None,2,0.8939374000001408,0.1944551999986288,None,0,0,0,0,,,,,1,0,1,0,,,,,35,0,35,0,954.0887045,,,,,,,,,,,,,,,,,,,,,,,,,,,,,,,,,,,,,,,,,,,,,,,,,,,,,,,,,Schulter,3.6885,954.0734608000002,954.0740010999998,954.0741067999988,954.0887045,957.7882260999995,957.772531999999,957.7761243999994,957.7882260999995,957.7882260999995,957.7882260999995,957.7882260999995,959.7882274999993,959.7882274999993,959.7882274999993,959.7882274999993,959.7726165000004,2,0.8939374000001408,0.1944551999986288,None,,,,,,,,,,,,,,,,,,,,,,8823,1,2025-10-08_19h46.05.261,sm,2024.2.4,60.0078010137164,2025-10-08 19h46.18.530411 +0200,
36,0,36,,,,,,space,1.680929300000571,None,None,3,0.7743152999992162,0.3061791000000085,None,0,0,0,0,,,,,1,0,1,0,,,,,36,0,36,0,959.7882274999993,,,,,,,,,,,,,,,,,,,,,,,,,,,,,,,,,,,,,,,,,,,,,,,,,,,,,,,,,Sitzgurt,3.5126,959.7731365999989,959.7736659999991,959.7737753999991,959.7882274999993,963.3048729999991,963.2891804999999,963.2953823999997,963.3048729999991,963.3048729999991,963.3048729999991,963.3048729999991,965.3049274000005,965.3049274000005,965.3049274000005,965.3049274000005,965.2887687999992,3,0.7743152999992162,0.3061791000000085,None,,,,,,,,,,,,,,,,,,,,,,8823,1,2025-10-08_19h46.05.261,sm,2024.2.4,60.0078010137164,2025-10-08 19h46.18.530411 +0200,
37,0,37,,,,,,space,1.680929300000571,None,None,3,0.9576072999989265,0.2050894000003609,None,0,0,0,0,,,,,1,0,1,0,,,,,37,0,37,0,965.3049274000005,,,,,,,,,,,,,,,,,,,,,,,,,,,,,,,,,,,,,,,,,,,,,,,,,,,,,,,,,Haare,3.1377,965.2891779999991,965.2896830999998,965.2897663000003,965.3049274000005,968.4545366000002,968.4388466,968.4428552999998,968.4545366000002,968.4545366000002,968.4545366000002,968.4545366000002,970.4543161999991,970.4543161999991,970.4543161999991,970.4543161999991,970.4389152000003,3,0.9576072999989265,0.2050894000003609,None,,,,,,,,,,,,,,,,,,,,,,8823,1,2025-10-08_19h46.05.261,sm,2024.2.4,60.0078010137164,2025-10-08 19h46.18.530411 +0200,
38,0,38,,,,,,space,1.680929300000571,None,None,2,0.9987705000003189,0.19137980000050447,None,0,0,0,0,,,,,1,0,1,0,,,,,38,0,38,0,970.4543161999991,,,,,,,,,,,,,,,,,,,,,,,,,,,,,,,,,,,,,,,,,,,,,,,,,,,,,,,,,Känguru,2.0186,970.4394187999987,970.4399388000002,970.4400444000003,970.4543161999991,972.4875374000003,972.4716639999988,972.4756589999997,972.4875374000003,972.4875374000003,972.4875374000003,972.4875374000003,974.4873473999996,974.4873473999996,974.4873473999996,974.4873473999996,974.4724171999987,2,0.9987705000003189,0.19137980000050447,None,,,,,,,,,,,,,,,,,,,,,,8823,1,2025-10-08_19h46.05.261,sm,2024.2.4,60.0078010137164,2025-10-08 19h46.18.530411 +0200,
39,0,39,,,,,,space,1.680929300000571,None,None,3,0.700446999999258,0.2989066999998613,None,0,0,0,0,,,,,1,0,1,0,,,,,39,0,39,0,974.4873473999996,,,,,,,,,,,,,,,,,,,,,,,,,,,,,,,,,,,,,,,,,,,,,,,,,,,,,,,,,Kappe,3.1702,974.4729327000005,974.473448499999,974.4735545999993,974.4873473999996,977.6703199000003,977.6550502999999,977.6589915999994,977.6703199000003,977.6703199000003,977.6703199000003,977.6703199000003,979.6703486999995,979.6703486999995,979.6703486999995,979.6703486999995,979.6550107000003,3,0.700446999999258,0.2989066999998613,None,,,,,,,,,,,,,,,,,,,,,,8823,1,2025-10-08_19h46.05.261,sm,2024.2.4,60.0078010137164,2025-10-08 19h46.18.530411 +0200,
40,0,40,,,,,,space,1.680929300000571,None,None,3,0.9249920000002021,0.33695839999927557,None,0,0,0,0,,,,,1,0,1,0,,,,,40,0,40,0,979.6703486999995,,,,,,,,,,,,,,,,,,,,,,,,,,,,,,,,,,,,,,,,,,,,,,,,,,,,,,,,,Tanz,4.0757,979.6555238000001,979.6560413999996,979.6561462999998,979.6703486999995,983.7534020999992,983.7379151000005,983.7409129999996,983.7534020999992,983.7534020999992,983.7534020999992,983.7534020999992,985.7539228000005,985.7539228000005,985.7539228000005,985.7539228000005,985.738023599999,3,0.9249920000002021,0.33695839999927557,None,,,,,,,,,,,,,,,,,,,,,,8823,1,2025-10-08_19h46.05.261,sm,2024.2.4,60.0078010137164,2025-10-08 19h46.18.530411 +0200,
41,0,41,,,,,,space,1.680929300000571,None,None,3,0.9301438000002236,0.35102090000145836,None,0,0,0,0,,,,,1,0,1,0,,,,,41,0,41,0,985.7539228000005,,,,,,,,,,,,,,,,,,,,,,,,,,,,,,,,,,,,,,,,,,,,,,,,,,,,,,,,,Vergangenheit,2.1241,985.7385488,985.7393319999992,985.7394480000003,985.7539228000005,987.8870628000004,987.8708616999993,987.8744592000003,987.8870628000004,987.8870628000004,987.8870628000004,987.8870628000004,989.8865795999991,989.8865795999991,989.8865795999991,989.8865795999991,989.8709801000005,3,0.9301438000002236,0.35102090000145836,None,,,,,,,,,,,,,,,,,,,,,,8823,1,2025-10-08_19h46.05.261,sm,2024.2.4,60.0078010137164,2025-10-08 19h46.18.530411 +0200,
42,0,42,,,,,,space,1.680929300000571,None,None,3,0.6759297000007791,0.2044817999994848,None,0,0,0,0,,,,,1,0,1,0,,,,,42,0,42,0,989.8865795999991,,,,,,,,,,,,,,,,,,,,,,,,,,,,,,,,,,,,,,,,,,,,,,,,,,,,,,,,,Teleskop,3.5483,989.8714541999998,989.8719581000005,989.8720565999993,989.8865795999991,993.4362860000001,993.4205471000005,993.4244473999988,993.4362860000001,993.4362860000001,993.4362860000001,993.4362860000001,995.4367392000004,995.4367392000004,995.4367392000004,995.4367392000004,995.4209463999996,3,0.6759297000007791,0.2044817999994848,None,,,,,,,,,,,,,,,,,,,,,,8823,1,2025-10-08_19h46.05.261,sm,2024.2.4,60.0078010137164,2025-10-08 19h46.18.530411 +0200,
43,0,43,,,,,,space,1.680929300000571,None,None,3,1.082603000000745,0.20040029999836406,None,0,0,0,0,,,,,1,0,1,0,,,,,43,0,43,0,995.4367392000004,,,,,,,,,,,,,,,,,,,,,,,,,,,,,,,,,,,,,,,,,,,,,,,,,,,,,,,,,Wind,4.8321,995.4214637000005,995.4219811999992,995.4220879000004,995.4367392000004,1000.2689613999992,1000.2535472,1000.2575751999993,1000.2689613999992,1000.2689613999992,1000.2689613999992,1000.2689613999992,1002.2694124999998,1002.2694124999998,1002.2694124999998,1002.2694124999998,1002.2536283999998,3,1.082603000000745,0.20040029999836406,None,,,,,,,,,,,,,,,,,,,,,,8823,1,2025-10-08_19h46.05.261,sm,2024.2.4,60.0078010137164,2025-10-08 19h46.18.530411 +0200,
44,0,44,,,,,,space,1.680929300000571,None,None,3,0.7685652999989543,0.20681690000128583,None,0,0,0,0,,,,,1,0,1,0,,,,,44,0,44,0,1002.2694124999998,,,,,,,,,,,,,,,,,,,,,,,,,,,,,,,,,,,,,,,,,,,,,,,,,,,,,,,,,Herbst,3.4794,1002.2541361999993,1002.2548028000001,1002.2549163999993,1002.2694124999998,1005.752185899999,1005.7372194,1005.7414883000001,1005.752185899999,1005.752185899999,1005.752185899999,1005.752185899999,1007.7522305000002,1007.7522305000002,1007.7522305000002,1007.7522305000002,1007.7364065999991,3,0.7685652999989543,0.20681690000128583,None,,,,,,,,,,,,,,,,,,,,,,8823,1,2025-10-08_19h46.05.261,sm,2024.2.4,60.0078010137164,2025-10-08 19h46.18.530411 +0200,
45,0,45,,,,,,space,1.680929300000571,None,None,3,0.9883854999989126,0.21042269999998098,None,0,0,0,0,,,,,1,0,1,0,,,,,45,0,45,0,1007.7522305000002,,,,,,,,,,,,,,,,,,,,,,,,,,,,,,,,,,,,,,,,,,,,,,,,,,,,,,,,,Statue,3.2172,1007.7368107000002,1007.7373377999993,1007.7374213000003,1007.7522305000002,1010.9687178999993,1010.9530524999991,1010.9570807,1010.9687178999993,1010.9687178999993,1010.9687178999993,1010.9687178999993,1012.9691007999991,1012.9691007999991,1012.9691007999991,1012.9691007999991,1012.9529719000002,3,0.9883854999989126,0.21042269999998098,None,,,,,,,,,,,,,,,,,,,,,,8823,1,2025-10-08_19h46.05.261,sm,2024.2.4,60.0078010137164,2025-10-08 19h46.18.530411 +0200,
46,0,46,,,,,,space,1.680929300000571,None,None,3,0.7400214000008418,0.23022769999988668,None,0,0,0,0,,,,,1,0,1,0,,,,,46,0,46,0,1012.9691007999991,,,,,,,,,,,,,,,,,,,,,,,,,,,,,,,,,,,,,,,,,,,,,,,,,,,,,,,,,Golf,3.4276,1012.9534777999997,1012.9541291000005,1012.9542342000004,1012.9691007999991,1016.4014353999992,1016.3859573999998,1016.3894424999999,1016.4014353999992,1016.4014353999992,1016.4014353999992,1016.4014353999992,1018.4017917000001,1018.4017917000001,1018.4017917000001,1018.4017917000001,1018.3860733999991,3,0.7400214000008418,0.23022769999988668,None,,,,,,,,,,,,,,,,,,,,,,8823,1,2025-10-08_19h46.05.261,sm,2024.2.4,60.0078010137164,2025-10-08 19h46.18.530411 +0200,
47,0,47,,,,,,space,1.680929300000571,None,None,3,1.3481816000003164,0.25326200000017707,None,0,0,0,0,,,,,1,0,1,0,,,,,47,0,47,0,1018.4017917000001,,,,,,,,,,,,,,,,,,,,,,,,,,,,,,,,,,,,,,,,,,,,,,,,,,,,,,,,,Waschbecken,2.7425,1018.3865545999997,1018.3870585999994,1018.3871598000005,1018.4017917000001,1021.151318799999,1021.1359756000002,1021.1402292000002,1021.151318799999,1021.151318799999,1021.151318799999,1021.151318799999,1023.1513751000002,1023.1513751000002,1023.1513751000002,1023.1513751000002,1023.1358755000001,3,1.3481816000003164,0.25326200000017707,None,,,,,,,,,,,,,,,,,,,,,,8823,1,2025-10-08_19h46.05.261,sm,2024.2.4,60.0078010137164,2025-10-08 19h46.18.530411 +0200,
48,0,48,,,,,,space,1.680929300000571,None,None,3,0.6204658999995445,0.29605809999884514,None,0,0,0,0,,,,,1,0,1,0,,,,,48,0,48,0,1023.1513751000002,,,,,,,,,,,,,,,,,,,,,,,,,,,,,,,,,,,,,,,,,,,,,,,,,,,,,,,,,Soße,4.499,1023.1363812,1023.1368937999996,1023.1369985000001,1023.1513751000002,1027.6510602999988,1027.6358325,1027.6395809000005,1027.6510602999988,1027.6510602999988,1027.6510602999988,1027.6510602999988,1029.6511694,1029.6511694,1029.6511694,1029.6511694,1029.6356127999989,3,0.6204658999995445,0.29605809999884514,None,,,,,,,,,,,,,,,,,,,,,,8823,1,2025-10-08_19h46.05.261,sm,2024.2.4,60.0078010137164,2025-10-08 19h46.18.530411 +0200,
49,0,49,,,,,,space,1.680929300000571,None,None,3,0.7549932999991142,0.22819840000011027,None,0,0,0,0,,,,,1,0,1,0,,,,,49,0,49,0,1029.6511694,,,,,,,,,,,,,,,,,,,,,,,,,,,,,,,,,,,,,,,,,,,,,,,,,,,,,,,,,Platz,2.016,1029.6361318,1029.6366519999992,1029.6367606000003,1029.6511694,1031.6673744,1031.6520366999994,1031.6560601,1031.6673744,1031.6673744,1031.6673744,1031.6673744,1033.6673971,1033.6673971,1033.6673971,1033.6673971,1033.6518082999992,3,0.7549932999991142,0.22819840000011027,None,,,,,,,,,,,,,,,,,,,,,,8823,1,2025-10-08_19h46.05.261,sm,2024.2.4,60.0078010137164,2025-10-08 19h46.18.530411 +0200,
50,0,50,,,,,,space,1.680929300000571,None,None,3,1.072248700000273,0.2772445999999036,None,0,0,0,0,,,,,1,0,1,0,,,,,50,0,50,0,1033.6673971,,,,,,,,,,,,,,,,,,,,,,,,,,,,,,,,,,,,,,,,,,,,,,,,,,,,,,,,,Service,3.296,1033.6522841000005,1033.6527957999988,1033.6528949000003,1033.6673971,1036.967137399999,1036.9514190999998,1036.9560094999997,1036.967137399999,1036.967137399999,1036.967137399999,1036.967137399999,1038.9670836999994,1038.9670836999994,1038.9670836999994,1038.9670836999994,1038.9518374999989,3,1.072248700000273,0.2772445999999036,None,,,,,,,,,,,,,,,,,,,,,,8823,1,2025-10-08_19h46.05.261,sm,2024.2.4,60.0078010137164,2025-10-08 19h46.18.530411 +0200,
51,0,51,,,,,,space,1.680929300000571,None,None,2,0.7131384999993315,0.2167805999997654,None,0,0,0,0,,,,,1,0,1,0,,,,,51,0,51,0,1038.9670836999994,,,,,,,,,,,,,,,,,,,,,,,,,,,,,,,,,,,,,,,,,,,,,,,,,,,,,,,,,Löwe,2.7908,1038.9523442999998,1038.9528572999989,1038.952964,1038.9670836999994,1041.7670386999998,1041.7516789000001,1041.7550591,1041.7670386999998,1041.7670386999998,1041.7670386999998,1041.7670386999998,1043.7668089999988,1043.7668089999988,1043.7668089999988,1043.7668089999988,1043.751508199999,2,0.7131384999993315,0.2167805999997654,None,,,,,,,,,,,,,,,,,,,,,,8823,1,2025-10-08_19h46.05.261,sm,2024.2.4,60.0078010137164,2025-10-08 19h46.18.530411 +0200,
52,0,52,,,,,,space,1.680929300000571,None,None,3,0.7096485000001849,0.24338729999908537,None,0,0,0,0,,,,,1,0,1,0,,,,,52,0,52,0,1043.7668089999988,,,,,,,,,,,,,,,,,,,,,,,,,,,,,,,,,,,,,,,,,,,,,,,,,,,,,,,,,Lava,4.7563,1043.7520141999994,1043.7526571999988,1043.752767599999,1043.7668089999988,1048.5330538999988,1048.5175330000002,1048.5212157000005,1048.5330538999988,1048.5330538999988,1048.5330538999988,1048.5330538999988,1050.5330624999988,1050.5330624999988,1050.5330624999988,1050.5330624999988,1050.5175461,3,0.7096485000001849,0.24338729999908537,None,,,,,,,,,,,,,,,,,,,,,,8823,1,2025-10-08_19h46.05.261,sm,2024.2.4,60.0078010137164,2025-10-08 19h46.18.530411 +0200,
53,0,53,,,,,,space,1.680929300000571,None,None,3,0.6684739000011177,0.23638469999968947,None,0,0,0,0,,,,,1,0,1,0,,,,,53,0,53,0,1050.5330624999988,,,,,,,,,,,,,,,,,,,,,,,,,,,,,,,,,,,,,,,,,,,,,,,,,,,,,,,,,Ecke,2.9204,1050.518063899999,1050.5185772000004,1050.5186811000003,1050.5330624999988,1053.4667541,1053.4505236999994,1053.4536258999997,1053.4667541,1053.4667541,1053.4667541,1053.4667541,1055.4662527,1055.4662527,1055.4662527,1055.4662527,1055.4505528999998,3,0.6684739000011177,0.23638469999968947,None,,,,,,,,,,,,,,,,,,,,,,8823,1,2025-10-08_19h46.05.261,sm,2024.2.4,60.0078010137164,2025-10-08 19h46.18.530411 +0200,
54,0,54,,,,,,space,1.680929300000571,None,None,3,0.7612033000004885,0.2374098000000231,None,0,0,0,0,,,,,1,0,1,0,,,,,54,0,54,0,1055.4662527,,,,,,,,,,,,,,,,,,,,,,,,,,,,,,,,,,,,,,,,,,,,,,,,,,,,,,,,,Tube,2.7249,1055.4510570999992,1055.4516566000002,1055.4517598999992,1055.4662527,1058.1992308999997,1058.1833267999991,1058.1863097000005,1058.1992308999997,1058.1992308999997,1058.1992308999997,1058.1992308999997,1060.1994295999993,1060.1994295999993,1060.1994295999993,1060.1994295999993,1060.1839581999993,3,0.7612033000004885,0.2374098000000231,None,,,,,,,,,,,,,,,,,,,,,,8823,1,2025-10-08_19h46.05.261,sm,2024.2.4,60.0078010137164,2025-10-08 19h46.18.530411 +0200,
55,0,55,,,,,,space,1.680929300000571,None,None,3,0.9784509999990405,0.20159180000155175,None,0,0,0,0,,,,,1,0,1,0,,,,,55,0,55,0,1060.1994295999993,,,,,,,,,,,,,,,,,,,,,,,,,,,,,,,,,,,,,,,,,,,,,,,,,,,,,,,,,Sprache,2.5863,1060.1843465000002,1060.1848434999993,1060.1849462999999,1060.1994295999993,1062.7990425999997,1062.7834000000003,1062.7874116000003,1062.7990425999997,1062.7990425999997,1062.7990425999997,1062.7990425999997,1064.7991469999997,1064.7991469999997,1064.7991469999997,1064.7991469999997,1064.7833529,3,0.9784509999990405,0.20159180000155175,None,,,,,,,,,,,,,,,,,,,,,,8823,1,2025-10-08_19h46.05.261,sm,2024.2.4,60.0078010137164,2025-10-08 19h46.18.530411 +0200,
56,0,56,,,,,,space,1.680929300000571,None,None,3,0.7214724000004935,0.2872049999987212,None,0,0,0,0,,,,,1,0,1,0,,,,,56,0,56,0,1064.7991469999997,,,,,,,,,,,,,,,,,,,,,,,,,,,,,,,,,,,,,,,,,,,,,,,,,,,,,,,,,Papier,3.2699,1064.7838628999998,1064.7845192000004,1064.7846264,1064.7991469999997,1068.0825155999992,1068.066483999999,1068.0709898999994,1068.0825155999992,1068.0825155999992,1068.0825155999992,1068.0825155999992,1070.081970199999,1070.081970199999,1070.081970199999,1070.081970199999,1070.0666741999994,3,0.7214724000004935,0.2872049999987212,None,,,,,,,,,,,,,,,,,,,,,,8823,1,2025-10-08_19h46.05.261,sm,2024.2.4,60.0078010137164,2025-10-08 19h46.18.530411 +0200,
57,0,57,,,,,,space,1.680929300000571,None,None,3,0.9058576999996149,0.24883090000002994,None,0,0,0,0,,,,,1,0,1,0,,,,,57,0,57,0,1070.081970199999,,,,,,,,,,,,,,,,,,,,,,,,,,,,,,,,,,,,,,,,,,,,,,,,,,,,,,,,,Weiß,2.5156,1070.0671846999994,1070.067740999999,1070.0678444000005,1070.081970199999,1072.5984740000004,1072.5828817000001,1072.5875751000003,1072.5984740000004,1072.5984740000004,1072.5984740000004,1072.5984740000004,1074.5983782000003,1074.5983782000003,1074.5983782000003,1074.5983782000003,1074.5827996999997,3,0.9058576999996149,0.24883090000002994,None,,,,,,,,,,,,,,,,,,,,,,8823,1,2025-10-08_19h46.05.261,sm,2024.2.4,60.0078010137164,2025-10-08 19h46.18.530411 +0200,
58,0,58,,,,,,space,1.680929300000571,None,None,3,0.7884591000001819,0.2592231999988144,None,0,0,0,0,,,,,1,0,1,0,,,,,58,0,58,0,1074.5983782000003,,,,,,,,,,,,,,,,,,,,,,,,,,,,,,,,,,,,,,,,,,,,,,,,,,,,,,,,,Ostern,2.0342,1074.5833129000002,1074.5838291,1074.5839328000002,1074.5983782000003,1076.6313157999994,1076.6159687,1076.6229160000003,1076.6313157999994,1076.6313157999994,1076.6313157999994,1076.6313157999994,1078.6314872999992,1078.6314872999992,1078.6314872999992,1078.6314872999992,1078.6157965000002,3,0.7884591000001819,0.2592231999988144,None,,,,,,,,,,,,,,,,,,,,,,8823,1,2025-10-08_19h46.05.261,sm,2024.2.4,60.0078010137164,2025-10-08 19h46.18.530411 +0200,
59,0,59,,,,,,space,1.680929300000571,None,None,3,0.7782548999985011,0.22829970000020694,None,0,0,0,0,,,,,1,0,1,0,,,,,59,0,59,0,1078.6314872999992,,,,,,,,,,,,,,,,,,,,,,,,,,,,,,,,,,,,,,,,,,,,,,,,,,,,,,,,,Telefon,2.3626,1078.6162793999993,1078.6167839999998,1078.6168894000002,1078.6314872999992,1080.9979628,1080.9821862999997,1080.9858177000006,1080.9979628,1080.9979628,1080.9979628,1080.9979628,1082.9982359999995,1082.9982359999995,1082.9982359999995,1082.9982359999995,1082.982667799999,3,0.7782548999985011,0.22829970000020694,None,,,,,,,,,,,,,,,,,,,,,,8823,1,2025-10-08_19h46.05.261,sm,2024.2.4,60.0078010137164,2025-10-08 19h46.18.530411 +0200,
60,0,60,,,,,,space,1.680929300000571,None,None,3,0.9520087000000785,0.2393471999985195,None,0,0,0,0,,,,,1,0,1,0,,,,,60,0,60,0,1082.9982359999995,,,,,,,,,,,,,,,,,,,,,,,,,,,,,,,,,,,,,,,,,,,,,,,,,,,,,,,,,Hütte,2.614,1082.9831890999994,1082.9839933000003,1082.9841104999996,1082.9982359999995,1085.6142273000005,1085.5986047999995,1085.6019691000001,1085.6142273000005,1085.6142273000005,1085.6142273000005,1085.6142273000005,1087.6143133999994,1087.6143133999994,1087.6143133999994,1087.6143133999994,1087.5992408000002,3,0.9520087000000785,0.2393471999985195,None,,,,,,,,,,,,,,,,,,,,,,8823,1,2025-10-08_19h46.05.261,sm,2024.2.4,60.0078010137164,2025-10-08 19h46.18.530411 +0200,
61,0,61,,,,,,space,1.680929300000571,None,None,3,0.796600200001194,0.24882780000007187,None,0,0,0,0,,,,,1,0,1,0,,,,,61,0,61,0,1087.6143133999994,,,,,,,,,,,,,,,,,,,,,,,,,,,,,,,,,,,,,,,,,,,,,,,,,,,,,,,,,Pflege,3.3182,1087.5997490999998,1087.6004620999993,1087.6005667999998,1087.6143133999994,1090.9474897,1090.9317802000005,1090.9356441,1090.9474897,1090.9474897,1090.9474897,1090.9474897,1092.9474845999994,1092.9474845999994,1092.9474845999994,1092.9474845999994,1092.9320361999999,3,0.796600200001194,0.24882780000007187,None,,,,,,,,,,,,,,,,,,,,,,8823,1,2025-10-08_19h46.05.261,sm,2024.2.4,60.0078010137164,2025-10-08 19h46.18.530411 +0200,
62,0,62,,,,,,space,1.680929300000571,None,None,3,0.6760834000015166,0.2525516999994579,None,0,0,0,0,,,,,1,0,1,0,,,,,62,0,62,0,1092.9474845999994,,,,,,,,,,,,,,,,,,,,,,,,,,,,,,,,,,,,,,,,,,,,,,,,,,,,,,,,,Büro,4.4691,1092.9325274000003,1092.9330446000004,1092.9331514999994,1092.9474845999994,1097.4302597999995,1097.4147665,1097.4176991999993,1097.4302597999995,1097.4302597999995,1097.4302597999995,1097.4302597999995,1099.4303394999988,1099.4303394999988,1099.4303394999988,1099.4303394999988,1099.4146024000001,3,0.6760834000015166,0.2525516999994579,None,,,,,,,,,,,,,,,,,,,,,,8823,1,2025-10-08_19h46.05.261,sm,2024.2.4,60.0078010137164,2025-10-08 19h46.18.530411 +0200,
63,0,63,,,,,,space,1.680929300000571,None,None,3,0.9117870999998559,0.21586089999982505,None,0,0,0,0,,,,,1,0,1,0,,,,,63,0,63,0,1099.4303394999988,,,,,,,,,,,,,,,,,,,,,,,,,,,,,,,,,,,,,,,,,,,,,,,,,,,,,,,,,Poesie,2.3551,1099.4150664999997,1099.4155456999997,1099.415637099999,1099.4303394999988,1101.7966701000005,1101.7811681000003,1101.7861199999988,1101.7966701000005,1101.7966701000005,1101.7966701000005,1101.7966701000005,1103.7967282999998,1103.7967282999998,1103.7967282999998,1103.7967282999998,1103.7813836000005,3,0.9117870999998559,0.21586089999982505,None,,,,,,,,,,,,,,,,,,,,,,8823,1,2025-10-08_19h46.05.261,sm,2024.2.4,60.0078010137164,2025-10-08 19h46.18.530411 +0200,
