thisN,thisTrialN,thisRepN,Cue,Target,Mediator1,Mediator2,iti,scanner_ready_press.keys,scanner_ready_press.rt,scanner_ready_press.duration,skip_trigger.keys,living_nonliving.keys,living_nonliving.rt,living_nonliving.duration,end_mapping.keys,blocks.thisRepN,blocks.thisTrialN,blocks.thisN,blocks.thisIndex,load_and_shuffle.thisRepN,load_and_shuffle.thisTrialN,load_and_shuffle.thisN,load_and_shuffle.thisIndex,runs.thisRepN,runs.thisTrialN,runs.thisN,runs.thisIndex,iti_loading_loop.thisRepN,iti_loading_loop.thisTrialN,iti_loading_loop.thisN,iti_loading_loop.thisIndex,semantic_mapping_run.thisRepN,semantic_mapping_run.thisTrialN,semantic_mapping_run.thisN,semantic_mapping_run.thisIndex,thisRow.t,notes,welcome.started,welcome_text.started,key_resp__welcome.started,welcome.stopped,key_resp__welcome.keys,key_resp__welcome.rt,key_resp__welcome.duration,scout.started,scout_text.started,key_resp.started,scout.stopped,key_resp.keys,key_resp.rt,key_resp.duration,instructions_semantic_mapping1.started,sm_instructions1_text.started,sm_instructions1_key.started,instructions_semantic_mapping1.stopped,sm_instructions1_key.keys,sm_instructions1_key.rt,sm_instructions1_key.duration,instructions_semantic_mapping2.started,sm_instructions2_text.started,sm_instructions2_key.started,instructions_semantic_mapping2.stopped,sm_instructions2_key.keys,sm_instructions2_key.rt,sm_instructions2_key.duration,reset_run.started,reset_run.stopped,shuffle_items.started,shuffle_items.stopped,set_up_runs.started,set_up_runs.stopped,load_iti.started,load_iti.stopped,prep_scanner.started,scanner_ready_press.started,ready_set_text.started,prep_scanner.stopped,runs.scanner_ready_press.keys,runs.scanner_ready_press.rt,runs.scanner_ready_press.duration,wait_for_trigger.started,starting_soon.started,skip_trigger.started,wait_for_trigger.stopped,runs.skip_trigger.keys,blank.started,begin_end_run_cross.started,sound_1.started,sound_1.stopped,sound_2.started,sound_2.stopped,begin_end_run_cross.stopped,blank.stopped,CurrentItem,CurrentITI,set_up_trial.started,set_up_trial.stopped,sm_iti.started,iti_cross.started,iti_cross.stopped,sm_iti.stopped,item.started,living_nonliving.started,end_mapping.started,living_nonliving_text.started,semantic_map_item.started,item.stopped,semantic_mapping_run.living_nonliving.keys,semantic_mapping_run.living_nonliving.rt,semantic_mapping_run.living_nonliving.duration,semantic_mapping_run.end_mapping.keys,living_nonliving.stopped,end_mapping.stopped,living_nonliving_text.stopped,semantic_map_item.stopped,fieldmap.started,fieldmap.stopped,runs.fm_key.keys,task_break.started,feeback_text.started,task_break_text.started,task_break_resp.started,feeback_text.stopped,task_break.stopped,runs.task_break_resp.keys,runs.task_break_resp.rt,runs.task_break_resp.duration,fm_text.started,fm_key.started,runs.fm_key.rt,runs.fm_key.duration,thanks.started,thanks_text.started,thanks_text.stopped,thanks.stopped,PID,MRI,date,expName,psychopyVersion,frameRate,expStart,
,,,,,,,,,,,,,,,,,,,,,,,,,,,,,,,,,,,,,,0.0036036999999851105,0.00915900000018155,0.00915900000018155,498.86608180000076,space,498.8485005000002,None,,,,,,,,,,,,,,,,,,,,,,,,,,,,,,,,,,,,,,,,,,,,,,,,,,,,,,,,,,,,,,,,,,,,,,,,,,,,,,,,,,,,,,,,,,,,5848,1,2025-10-08_17h06.22.151,sm,2024.2.4,59.91292255845215,2025-10-08 17h06.39.724420 +0200,
,,,,,,,,,,,,,,,,,,,,,,,,,,,,,,,,,,,,,,,,,,,,,498.8662211999999,498.8801809000006,498.8801809000006,596.1098325000003,space,97.22577480000018,None,,,,,,,,,,,,,,,,,,,,,,,,,,,,,,,,,,,,,,,,,,,,,,,,,,,,,,,,,,,,,,,,,,,,,,,,,,,,,,,,,,,,,5848,1,2025-10-08_17h06.22.151,sm,2024.2.4,59.91292255845215,2025-10-08 17h06.39.724420 +0200,
,,,,,,,,,,,,,,,,,,,,,,,,,,,,,,,,,,,,,,,,,,,,,,,,,,,,596.1099570000006,596.1245066000001,596.1245066000001,604.3594139000006,2,8.229483500000242,None,,,,,,,,,,,,,,,,,,,,,,,,,,,,,,,,,,,,,,,,,,,,,,,,,,,,,,,,,,,,,,,,,,,,,,,,,,,,,,5848,1,2025-10-08_17h06.22.151,sm,2024.2.4,59.91292255845215,2025-10-08 17h06.39.724420 +0200,
,,,,,,,,,,,,,,,,,,,,,,,,,,,,,,,,,,,,,,,,,,,,,,,,,,,,,,,,,,,604.3595325000006,604.3740637999999,604.3740637999999,615.2253396000006,2,10.837458699999843,None,,,,,,,,,,,,,,,,,,,,,,,,,,,,,,,,,,,,,,,,,,,,,,,,,,,,,,,,,,,,,,,,,,,,,,,5848,1,2025-10-08_17h06.22.151,sm,2024.2.4,59.91292255845215,2025-10-08 17h06.39.724420 +0200,
0,0,0,Teleskop,Himmel,Sterne,Weltraum,2.1702,space,7.682770299999902,None,None,3,1.3384477999998126,0.30452359999981127,None,0,0,0,0,0,79,79,55,0,0,0,0,0,79,79,58,0,0,0,0,683.7360264000008,,,,,,,,,,,,,,,,,,,,,,,,,,,,,,615.2263227000003,615.2269030000007,615.3038576000008,615.3042953000004,615.309287,615.3096288000006,615.3414700000003,615.3416687000008,615.3479987000001,615.3528317,615.3528317,623.0418983,space,7.682770299999902,None,623.0420557000007,623.0564928000003,623.0564928000003,671.7199281000003,None,671.7287231,671.7369849000006,671.7353896666666,672.9457252000002,681.7198369666669,682.7257398000002,683.7360264000008,683.7204666000007,Lernen,2.1702,683.7217379000003,683.7224747,683.7256548000005,683.7360264000008,685.9363043000003,685.9038946999999,685.9082272000005,685.9363043000003,685.9363043000003,685.9363043000003,685.9363043000003,687.9197951000006,3,1.3384477999998126,0.30452359999981127,None,,,,,,,,,,,,,,,,,,,,,,,,,5848,1,2025-10-08_17h06.22.151,sm,2024.2.4,59.91292255845215,2025-10-08 17h06.39.724420 +0200,
1,0,1,,,,,,space,7.682770299999902,None,None,3,1.015260600000147,0.2636161999998876,None,0,0,0,0,,,,,0,0,0,0,,,,,1,0,1,0,687.9364620000006,,,,,,,,,,,,,,,,,,,,,,,,,,,,,,,,,,,,,,,,,,,,,,,,,,,,,,,,,,Telefon,2.9112,687.9202835000006,687.9209800000008,687.9210861000001,687.9364620000006,690.8526527000004,690.8369943000007,690.8410849000002,690.8526527000004,690.8526527000004,690.8526527000004,690.8526527000004,692.8372278000006,3,1.015260600000147,0.2636161999998876,None,692.8526204,692.8526204,692.8526204,692.8526204,,,,,,,,,,,,,,,,,,,,,5848,1,2025-10-08_17h06.22.151,sm,2024.2.4,59.91292255845215,2025-10-08 17h06.39.724420 +0200,
2,0,2,,,,,,space,7.682770299999902,None,None,3,1.099810100000468,0.39293499999985215,None,0,0,0,0,,,,,0,0,0,0,,,,,2,0,2,0,692.8526204,,,,,,,,,,,,,,,,,,,,,,,,,,,,,,,,,,,,,,,,,,,,,,,,,,,,,,,,,,Duft,2.7158,692.8377373000003,692.8384846000008,692.8385926999999,692.8526204,695.5687604000004,695.5534312,695.5578502000008,695.5687604000004,695.5687604000004,695.5687604000004,695.5687604000004,697.5535445000005,3,1.099810100000468,0.39293499999985215,None,697.5690638000005,697.5690638000005,697.5690638000005,697.5690638000005,,,,,,,,,,,,,,,,,,,,,5848,1,2025-10-08_17h06.22.151,sm,2024.2.4,59.91292255845215,2025-10-08 17h06.39.724420 +0200,
3,0,3,,,,,,space,7.682770299999902,None,None,3,0.8790386000000581,0.23373850000007224,None,0,0,0,0,,,,,0,0,0,0,,,,,3,0,3,0,697.5690638000005,,,,,,,,,,,,,,,,,,,,,,,,,,,,,,,,,,,,,,,,,,,,,,,,,,,,,,,,,,Nachricht,2.3973,697.5540588000003,697.5546817000004,697.5548538000003,697.5690638000005,699.9689350000008,699.9531393000007,699.9573155000007,699.9689350000008,699.9689350000008,699.9689350000008,699.9689350000008,701.9532985000005,3,0.8790386000000581,0.23373850000007224,None,701.9687523000002,701.9687523000002,701.9687523000002,701.9687523000002,,,,,,,,,,,,,,,,,,,,,5848,1,2025-10-08_17h06.22.151,sm,2024.2.4,59.91292255845215,2025-10-08 17h06.39.724420 +0200,
4,0,4,,,,,,space,7.682770299999902,None,None,3,0.7763119000001097,0.2183294999995269,None,0,0,0,0,,,,,0,0,0,0,,,,,4,0,4,0,701.9687523000002,,,,,,,,,,,,,,,,,,,,,,,,,,,,,,,,,,,,,,,,,,,,,,,,,,,,,,,,,,Spaghetti,2.002,701.9538011000004,701.9543200000007,701.9544247000003,701.9687523000002,703.9850794000004,703.9695167,703.9734376000006,703.9850794000004,703.9850794000004,703.9850794000004,703.9850794000004,705.9696764,3,0.7763119000001097,0.2183294999995269,None,705.9852035000004,705.9852035000004,705.9852035000004,705.9852035000004,,,,,,,,,,,,,,,,,,,,,5848,1,2025-10-08_17h06.22.151,sm,2024.2.4,59.91292255845215,2025-10-08 17h06.39.724420 +0200,
5,0,5,,,,,,space,7.682770299999902,None,None,3,0.6487047999999049,0.22230690000014874,None,0,0,0,0,,,,,0,0,0,0,,,,,5,0,5,0,705.9852035000004,,,,,,,,,,,,,,,,,,,,,,,,,,,,,,,,,,,,,,,,,,,,,,,,,,,,,,,,,,Brille,2.0734,705.9701869,705.9707183,705.9708366000004,705.9852035000004,708.0683614,708.0525799000006,708.0564664000003,708.0683614,708.0683614,708.0683614,708.0683614,710.0525191000006,3,0.6487047999999049,0.22230690000014874,None,710.0684364000008,710.0684364000008,710.0684364000008,710.0684364000008,,,,,,,,,,,,,,,,,,,,,5848,1,2025-10-08_17h06.22.151,sm,2024.2.4,59.91292255845215,2025-10-08 17h06.39.724420 +0200,
6,0,6,,,,,,space,7.682770299999902,None,None,3,1.1782714000000851,0.20146440000007715,None,0,0,0,0,,,,,0,0,0,0,,,,,6,0,6,0,710.0684364000008,,,,,,,,,,,,,,,,,,,,,,,,,,,,,,,,,,,,,,,,,,,,,,,,,,,,,,,,,,Kartoffel,2.047,710.0529705000008,710.0534746000003,710.0535734000005,710.0684364000008,712.1178102000003,712.102202,712.1080731000002,712.1178102000003,712.1178102000003,712.1178102000003,712.1178102000003,714.1025303000006,3,1.1782714000000851,0.20146440000007715,None,714.1180691,714.1180691,714.1180691,714.1180691,,,,,,,,,,,,,,,,,,,,,5848,1,2025-10-08_17h06.22.151,sm,2024.2.4,59.91292255845215,2025-10-08 17h06.39.724420 +0200,
7,0,7,,,,,,space,7.682770299999902,None,None,2,0.6337974999996732,0.21836549999989074,None,0,0,0,0,,,,,0,0,0,0,,,,,7,0,7,0,714.1180691,,,,,,,,,,,,,,,,,,,,,,,,,,,,,,,,,,,,,,,,,,,,,,,,,,,,,,,,,,Spinne,2.2701,714.1030432000007,714.1035674000004,714.1036736000005,714.1180691,716.4010193000004,716.3856678000002,716.3899052000006,716.4010193000004,716.4010193000004,716.4010193000004,716.4010193000004,718.3854846000004,2,0.6337974999996732,0.21836549999989074,None,718.4011976000002,718.4011976000002,718.4011976000002,718.4011976000002,,,,,,,,,,,,,,,,,,,,,5848,1,2025-10-08_17h06.22.151,sm,2024.2.4,59.91292255845215,2025-10-08 17h06.39.724420 +0200,
8,0,8,,,,,,space,7.682770299999902,None,None,3,0.9195692000002964,0.21246119999977964,None,0,0,0,0,,,,,0,0,0,0,,,,,8,0,8,0,718.4011976000002,,,,,,,,,,,,,,,,,,,,,,,,,,,,,,,,,,,,,,,,,,,,,,,,,,,,,,,,,,Luft,2.5739,718.3859968000006,718.3865078000008,718.3866194000002,718.4011976000002,720.9841905000003,720.9685288000001,720.9729205000003,720.9841905000003,720.9841905000003,720.9841905000003,720.9841905000003,722.9686716000006,3,0.9195692000002964,0.21246119999977964,None,722.9842088000005,722.9842088000005,722.9842088000005,722.9842088000005,,,,,,,,,,,,,,,,,,,,,5848,1,2025-10-08_17h06.22.151,sm,2024.2.4,59.91292255845215,2025-10-08 17h06.39.724420 +0200,
9,0,9,,,,,,space,7.682770299999902,None,None,3,0.7281558999993649,0.2094680000000153,None,0,0,0,0,,,,,0,0,0,0,,,,,9,0,9,0,722.9842088000005,,,,,,,,,,,,,,,,,,,,,,,,,,,,,,,,,,,,,,,,,,,,,,,,,,,,,,,,,,Bad,2.6669,722.9691777000007,722.9697112000003,722.9698161000006,722.9842088000005,725.6504958000005,725.6353884,725.6392300000007,725.6504958000005,725.6504958000005,725.6504958000005,725.6504958000005,727.6350951000004,3,0.7281558999993649,0.2094680000000153,None,727.6508091000005,727.6508091000005,727.6508091000005,727.6508091000005,,,,,,,,,,,,,,,,,,,,,5848,1,2025-10-08_17h06.22.151,sm,2024.2.4,59.91292255845215,2025-10-08 17h06.39.724420 +0200,
10,0,10,,,,,,space,7.682770299999902,None,None,3,0.6679861000002347,0.22145309999996243,None,0,0,0,0,,,,,0,0,0,0,,,,,10,0,10,0,727.6508091000005,,,,,,,,,,,,,,,,,,,,,,,,,,,,,,,,,,,,,,,,,,,,,,,,,,,,,,,,,,Klinge,5.5316,727.6355939000005,727.6362210000007,727.6363292000005,727.6508091000005,733.1834689000007,733.1677978000007,733.1709096000004,733.1834689000007,733.1834689000007,733.1834689000007,733.1834689000007,735.1678490000004,3,0.6679861000002347,0.22145309999996243,None,735.1835630000005,735.1835630000005,735.1835630000005,735.1835630000005,,,,,,,,,,,,,,,,,,,,,5848,1,2025-10-08_17h06.22.151,sm,2024.2.4,59.91292255845215,2025-10-08 17h06.39.724420 +0200,
11,0,11,,,,,,space,7.682770299999902,None,None,2,1.5843794000002163,0.19575689999965107,None,0,0,0,0,,,,,0,0,0,0,,,,,11,0,11,0,735.1835630000005,,,,,,,,,,,,,,,,,,,,,,,,,,,,,,,,,,,,,,,,,,,,,,,,,,,,,,,,,,Baum,2.8374,735.1683913000006,735.1689041,735.1690117000007,735.1835630000005,738.0331974000001,738.0177817000003,738.0207856000006,738.0331974000001,738.0331974000001,738.0331974000001,738.0331974000001,740.0178803000008,2,1.5843794000002163,0.19575689999965107,None,740.0331970000007,740.0331970000007,740.0331970000007,740.0331970000007,,,,,,,,,,,,,,,,,,,,,5848,1,2025-10-08_17h06.22.151,sm,2024.2.4,59.91292255845215,2025-10-08 17h06.39.724420 +0200,
12,0,12,,,,,,space,7.682770299999902,None,None,3,0.7156314000003476,0.2287903999995251,None,0,0,0,0,,,,,0,0,0,0,,,,,12,0,12,0,740.0331970000007,,,,,,,,,,,,,,,,,,,,,,,,,,,,,,,,,,,,,,,,,,,,,,,,,,,,,,,,,,Statue,2.6391,740.0184014000006,740.018932,740.0190385000005,740.0331970000007,742.6826439000006,742.6675340000002,742.6705185000001,742.6826439000006,742.6826439000006,742.6826439000006,742.6826439000006,744.6677731,3,0.7156314000003476,0.2287903999995251,None,744.6834518000005,744.6834518000005,744.6834518000005,744.6834518000005,,,,,,,,,,,,,,,,,,,,,5848,1,2025-10-08_17h06.22.151,sm,2024.2.4,59.91292255845215,2025-10-08 17h06.39.724420 +0200,
13,0,13,,,,,,space,7.682770299999902,None,None,2,0.6370622000004005,0.17846519999966404,None,0,0,0,0,,,,,0,0,0,0,,,,,13,0,13,0,744.6834518000005,,,,,,,,,,,,,,,,,,,,,,,,,,,,,,,,,,,,,,,,,,,,,,,,,,,,,,,,,,Fledermaus,2.0414,744.6683237000007,744.6688770000001,744.6689913,744.6834518000005,746.7326638000004,746.7169215000004,746.7227010000006,746.7326638000004,746.7326638000004,746.7326638000004,746.7326638000004,748.7170946000006,2,0.6370622000004005,0.17846519999966404,None,748.7326743000003,748.7326743000003,748.7326743000003,748.7326743000003,,,,,,,,,,,,,,,,,,,,,5848,1,2025-10-08_17h06.22.151,sm,2024.2.4,59.91292255845215,2025-10-08 17h06.39.724420 +0200,
14,0,14,,,,,,space,7.682770299999902,None,None,2,0.6564933999998175,0.1875489000003654,None,0,0,0,0,,,,,0,0,0,0,,,,,14,0,14,0,748.7326743000003,,,,,,,,,,,,,,,,,,,,,,,,,,,,,,,,,,,,,,,,,,,,,,,,,,,,,,,,,,Schaf,2.0608,748.7176078000002,748.7181210000008,748.7182276000003,748.7326743000003,750.7991681000003,750.7835739000002,750.7873016000003,750.7991681000003,750.7991681000003,750.7991681000003,750.7991681000003,752.7835792000005,2,0.6564933999998175,0.1875489000003654,None,752.7992286000008,752.7992286000008,752.7992286000008,752.7992286000008,,,,,,,,,,,,,,,,,,,,,5848,1,2025-10-08_17h06.22.151,sm,2024.2.4,59.91292255845215,2025-10-08 17h06.39.724420 +0200,
15,0,15,,,,,,space,7.682770299999902,None,None,2,0.731689400000505,0.18508269999983895,None,0,0,0,0,,,,,0,0,0,0,,,,,15,0,15,0,752.7992286000008,,,,,,,,,,,,,,,,,,,,,,,,,,,,,,,,,,,,,,,,,,,,,,,,,,,,,,,,,,Koch,2.3125,752.7840898000004,752.7845921000007,752.7847010000005,752.7992286000008,755.1155321000006,755.1000236,755.1030414000006,755.1155321000006,755.1155321000006,755.1155321000006,755.1155321000006,757.1000233000004,2,0.731689400000505,0.18508269999983895,None,757.1157702,757.1157702,757.1157702,757.1157702,,,,,,,,,,,,,,,,,,,,,5848,1,2025-10-08_17h06.22.151,sm,2024.2.4,59.91292255845215,2025-10-08 17h06.39.724420 +0200,
16,0,16,,,,,,space,7.682770299999902,None,None,3,0.6049736000004486,0.2464681000001292,None,0,0,0,0,,,,,0,0,0,0,,,,,16,0,16,0,757.1157702,,,,,,,,,,,,,,,,,,,,,,,,,,,,,,,,,,,,,,,,,,,,,,,,,,,,,,,,,,Sturm,2.1332,757.1005316999999,757.1010499000004,757.1011570999999,757.1157702,759.2486364000006,759.2330968000006,759.236441,759.2486364000006,759.2486364000006,759.2486364000006,759.2486364000006,761.2333173000006,3,0.6049736000004486,0.2464681000001292,None,761.2488085000005,761.2488085000005,761.2488085000005,761.2488085000005,,,,,,,,,,,,,,,,,,,,,5848,1,2025-10-08_17h06.22.151,sm,2024.2.4,59.91292255845215,2025-10-08 17h06.39.724420 +0200,
17,0,17,,,,,,space,7.682770299999902,None,None,3,0.7066958999994313,0.2163196000001335,None,0,0,0,0,,,,,0,0,0,0,,,,,17,0,17,0,761.2488085000005,,,,,,,,,,,,,,,,,,,,,,,,,,,,,,,,,,,,,,,,,,,,,,,,,,,,,,,,,,Hilfe,2.1658,761.2338268000003,761.2343445000006,761.2344517000001,761.2488085000005,763.4151054000004,763.3996491000007,763.4055051000005,763.4151054000004,763.4151054000004,763.4151054000004,763.4151054000004,765.3995203000004,3,0.7066958999994313,0.2163196000001335,None,765.4152276000004,765.4152276000004,765.4152276000004,765.4152276000004,,,,,,,,,,,,,,,,,,,,,5848,1,2025-10-08_17h06.22.151,sm,2024.2.4,59.91292255845215,2025-10-08 17h06.39.724420 +0200,
18,0,18,,,,,,space,7.682770299999902,None,None,3,0.8618280999999115,0.2148235000004206,None,0,0,0,0,,,,,0,0,0,0,,,,,18,0,18,0,765.4152276000004,,,,,,,,,,,,,,,,,,,,,,,,,,,,,,,,,,,,,,,,,,,,,,,,,,,,,,,,,,Rasen,2.5617,765.4000317,765.4005520000001,765.4006628000006,765.4152276000004,767.9815879000007,767.9661449000005,767.9701709999999,767.9815879000007,767.9815879000007,767.9815879000007,767.9815879000007,769.9659508000004,3,0.8618280999999115,0.2148235000004206,None,769.9815071000003,769.9815071000003,769.9815071000003,769.9815071000003,,,,,,,,,,,,,,,,,,,,,5848,1,2025-10-08_17h06.22.151,sm,2024.2.4,59.91292255845215,2025-10-08 17h06.39.724420 +0200,
19,0,19,,,,,,space,7.682770299999902,None,None,2,0.7396281000001181,0.200406899999507,None,0,0,0,0,,,,,0,0,0,0,,,,,19,0,19,0,769.9815071000003,,,,,,,,,,,,,,,,,,,,,,,,,,,,,,,,,,,,,,,,,,,,,,,,,,,,,,,,,,Besucher,2.7217,769.9664584000002,769.9671109000001,769.9672204000008,769.9815071000003,772.7144802000003,772.6992806000007,772.7034860000003,772.7144802000003,772.7144802000003,772.7144802000003,772.7144802000003,774.6990039000002,2,0.7396281000001181,0.200406899999507,None,774.7145120000005,774.7145120000005,774.7145120000005,774.7145120000005,,,,,,,,,,,,,,,,,,,,,5848,1,2025-10-08_17h06.22.151,sm,2024.2.4,59.91292255845215,2025-10-08 17h06.39.724420 +0200,
20,0,20,,,,,,space,7.682770299999902,None,None,3,0.8527659000001222,0.24059889999989537,None,0,0,0,0,,,,,0,0,0,0,,,,,20,0,20,0,774.7145120000005,,,,,,,,,,,,,,,,,,,,,,,,,,,,,,,,,,,,,,,,,,,,,,,,,,,,,,,,,,Schnorchel,2.2347,774.6995147000007,774.7000248000004,774.7001307,774.7145120000005,776.9641404000004,776.9486132000002,776.9530589000005,776.9641404000004,776.9641404000004,776.9641404000004,776.9641404000004,778.9489891000003,3,0.8527659000001222,0.24059889999989537,None,778.9642403000007,778.9642403000007,778.9642403000007,778.9642403000007,,,,,,,,,,,,,,,,,,,,,5848,1,2025-10-08_17h06.22.151,sm,2024.2.4,59.91292255845215,2025-10-08 17h06.39.724420 +0200,
21,0,21,,,,,,space,7.682770299999902,None,None,3,0.812110500000017,0.26070070000059786,None,0,0,0,0,,,,,0,0,0,0,,,,,21,0,21,0,778.9642403000007,,,,,,,,,,,,,,,,,,,,,,,,,,,,,,,,,,,,,,,,,,,,,,,,,,,,,,,,,,Vulkan,2.9369,778.9494996000003,778.9500148000006,778.9501196000001,778.9642403000007,781.9141579000006,781.8982664000005,781.9016650000003,781.9141579000006,781.9141579000006,781.9141579000006,781.9141579000006,783.8982306000007,3,0.812110500000017,0.26070070000059786,None,783.9141677000007,783.9141677000007,783.9141677000007,783.9141677000007,,,,,,,,,,,,,,,,,,,,,5848,1,2025-10-08_17h06.22.151,sm,2024.2.4,59.91292255845215,2025-10-08 17h06.39.724420 +0200,
22,0,22,,,,,,space,7.682770299999902,None,None,3,0.7222246999999697,0.2461769000001368,None,0,0,0,0,,,,,0,0,0,0,,,,,22,0,22,0,783.9141677000007,,,,,,,,,,,,,,,,,,,,,,,,,,,,,,,,,,,,,,,,,,,,,,,,,,,,,,,,,,Glück,3.6853,783.8987361,783.8993297000006,783.8994350000003,783.9141677000007,787.6138916,787.5980029000002,787.6015033000003,787.6138916,787.6138916,787.6138916,787.6138916,789.5980911000006,3,0.7222246999999697,0.2461769000001368,None,789.6137698000002,789.6137698000002,789.6137698000002,789.6137698000002,,,,,,,,,,,,,,,,,,,,,5848,1,2025-10-08_17h06.22.151,sm,2024.2.4,59.91292255845215,2025-10-08 17h06.39.724420 +0200,
23,0,23,,,,,,space,7.682770299999902,None,None,2,0.7974640000002182,0.19439190000048256,None,0,0,0,0,,,,,0,0,0,0,,,,,23,0,23,0,789.6137698000002,,,,,,,,,,,,,,,,,,,,,,,,,,,,,,,,,,,,,,,,,,,,,,,,,,,,,,,,,,Publikum,5.6146,789.5986008,789.5991260999999,789.5992335000001,789.6137698000002,795.229851,795.2145329000004,795.2211808000002,795.229851,795.229851,795.229851,795.229851,797.2143406000005,2,0.7974640000002182,0.19439190000048256,None,797.2298967000006,797.2298967000006,797.2298967000006,797.2298967000006,,,,,,,,,,,,,,,,,,,,,5848,1,2025-10-08_17h06.22.151,sm,2024.2.4,59.91292255845215,2025-10-08 17h06.39.724420 +0200,
24,0,24,,,,,,space,7.682770299999902,None,None,2,0.7088122999994084,0.1911113000005571,None,0,0,0,0,,,,,0,0,0,0,,,,,24,0,24,0,797.2298967000006,,,,,,,,,,,,,,,,,,,,,,,,,,,,,,,,,,,,,,,,,,,,,,,,,,,,,,,,,,Hase,3.2207,797.2148528000007,797.2153631000001,797.2154701,797.2298967000006,800.4630752000003,800.4475012000003,800.4510516,800.4630752000003,800.4630752000003,800.4630752000003,800.4630752000003,802.4474184000001,2,0.7088122999994084,0.1911113000005571,None,802.4630717,802.4630717,802.4630717,802.4630717,,,,,,,,,,,,,,,,,,,,,5848,1,2025-10-08_17h06.22.151,sm,2024.2.4,59.91292255845215,2025-10-08 17h06.39.724420 +0200,
25,0,25,,,,,,space,7.682770299999902,None,None,3,0.7288859999998749,0.2485339999993812,None,0,0,0,0,,,,,0,0,0,0,,,,,25,0,25,0,802.4630717,,,,,,,,,,,,,,,,,,,,,,,,,,,,,,,,,,,,,,,,,,,,,,,,,,,,,,,,,,Kapitel,3.5103,802.4479226000003,802.4485184000005,802.4486274000001,802.4630717,805.9791682000005,805.9636184000001,805.9671176000002,805.9791682000005,805.9791682000005,805.9791682000005,805.9791682000005,807.9638412000004,3,0.7288859999998749,0.2485339999993812,None,807.9792219999999,807.9792219999999,807.9792219999999,807.9792219999999,,,,,,,,,,,,,,,,,,,,,5848,1,2025-10-08_17h06.22.151,sm,2024.2.4,59.91292255845215,2025-10-08 17h06.39.724420 +0200,
26,0,26,,,,,,space,7.682770299999902,None,None,2,1.3289807999999539,0.212003999999979,None,0,0,0,0,,,,,0,0,0,0,,,,,26,0,26,0,807.9792219999999,,,,,,,,,,,,,,,,,,,,,,,,,,,,,,,,,,,,,,,,,,,,,,,,,,,,,,,,,,Schmerz,2.5924,807.9643526,807.9649310000004,807.9650389000008,807.9792219999999,810.5789363000004,810.5631659999999,810.5674379000002,810.5789363000004,810.5789363000004,810.5789363000004,810.5789363000004,812.5635925000006,2,1.3289807999999539,0.212003999999979,None,812.5792524000008,812.5792524000008,812.5792524000008,812.5792524000008,,,,,,,,,,,,,,,,,,,,,5848,1,2025-10-08_17h06.22.151,sm,2024.2.4,59.91292255845215,2025-10-08 17h06.39.724420 +0200,
27,0,27,,,,,,space,7.682770299999902,None,None,3,0.7728419999994003,0.23798170000009122,None,0,0,0,0,,,,,0,0,0,0,,,,,27,0,27,0,812.5792524000008,,,,,,,,,,,,,,,,,,,,,,,,,,,,,,,,,,,,,,,,,,,,,,,,,,,,,,,,,,Saft,3.6405,812.5640960000001,812.5646528000007,812.5647604000005,812.5792524000008,816.2287521000007,816.2129359,816.2157043000007,816.2287521000007,816.2287521000007,816.2287521000007,816.2287521000007,818.2132060000004,3,0.7728419999994003,0.23798170000009122,None,818.2288630000003,818.2288630000003,818.2288630000003,818.2288630000003,,,,,,,,,,,,,,,,,,,,,5848,1,2025-10-08_17h06.22.151,sm,2024.2.4,59.91292255845215,2025-10-08 17h06.39.724420 +0200,
28,0,28,,,,,,space,7.682770299999902,None,None,3,0.6787463000000571,0.22539419999975507,None,0,0,0,0,,,,,0,0,0,0,,,,,28,0,28,0,818.2288630000003,,,,,,,,,,,,,,,,,,,,,,,,,,,,,,,,,,,,,,,,,,,,,,,,,,,,,,,,,,Geschirr,2.0982,818.2137177000004,818.2142352000001,818.2143427000001,818.2288630000003,820.3286207000001,820.3129917000006,820.3171284,820.3286207000001,820.3286207000001,820.3286207000001,820.3286207000001,822.3131418000003,3,0.6787463000000571,0.22539419999975507,None,822.3285909000006,822.3285909000006,822.3285909000006,822.3285909000006,,,,,,,,,,,,,,,,,,,,,5848,1,2025-10-08_17h06.22.151,sm,2024.2.4,59.91292255845215,2025-10-08 17h06.39.724420 +0200,
29,0,29,,,,,,space,7.682770299999902,None,None,3,0.8428171999994447,0.2516867000003913,None,0,0,0,0,,,,,0,0,0,0,,,,,29,0,29,0,822.3285909000006,,,,,,,,,,,,,,,,,,,,,,,,,,,,,,,,,,,,,,,,,,,,,,,,,,,,,,,,,,Schreibtisch,2.9185,822.3136639000004,822.3141766000008,822.3142832000003,822.3285909000006,825.2617557000003,825.2459770000005,825.2500203,825.2617557000003,825.2617557000003,825.2617557000003,825.2617557000003,827.2459462000006,3,0.8428171999994447,0.2516867000003913,None,827.2616299000001,827.2616299000001,827.2616299000001,827.2616299000001,,,,,,,,,,,,,,,,,,,,,5848,1,2025-10-08_17h06.22.151,sm,2024.2.4,59.91292255845215,2025-10-08 17h06.39.724420 +0200,
30,0,30,,,,,,space,7.682770299999902,None,None,3,0.7951282999993055,0.2504354000002422,None,0,0,0,0,,,,,0,0,0,0,,,,,30,0,30,0,827.2616299000001,,,,,,,,,,,,,,,,,,,,,,,,,,,,,,,,,,,,,,,,,,,,,,,,,,,,,,,,,,Olympia,3.8041,827.2464556000004,827.2469636000005,827.2470745,827.2616299000001,831.0785209000005,831.0623905000002,831.0710177999999,831.0785209000005,831.0785209000005,831.0785209000005,831.0785209000005,833.0623014000003,3,0.7951282999993055,0.2504354000002422,None,833.0782415000003,833.0782415000003,833.0782415000003,833.0782415000003,,,,,,,,,,,,,,,,,,,,,5848,1,2025-10-08_17h06.22.151,sm,2024.2.4,59.91292255845215,2025-10-08 17h06.39.724420 +0200,
31,0,31,,,,,,space,7.682770299999902,None,None,3,0.6051157000001695,0.2611349999997401,None,0,0,0,0,,,,,0,0,0,0,,,,,31,0,31,0,833.0782415000003,,,,,,,,,,,,,,,,,,,,,,,,,,,,,,,,,,,,,,,,,,,,,,,,,,,,,,,,,,Papier,3.6546,833.0628110000007,833.0633302000006,833.0634355000002,833.0782415000003,836.7443129000003,836.7285767000003,836.7323716000001,836.7443129000003,836.7443129000003,836.7443129000003,836.7443129000003,838.7285911000008,3,0.6051157000001695,0.2611349999997401,None,838.7440785000008,838.7440785000008,838.7440785000008,838.7440785000008,,,,,,,,,,,,,,,,,,,,,5848,1,2025-10-08_17h06.22.151,sm,2024.2.4,59.91292255845215,2025-10-08 17h06.39.724420 +0200,
32,0,32,,,,,,space,7.682770299999902,None,None,2,1.4196116000002803,0.18744349999997212,None,0,0,0,0,,,,,0,0,0,0,,,,,32,0,32,0,838.7440785000008,,,,,,,,,,,,,,,,,,,,,,,,,,,,,,,,,,,,,,,,,,,,,,,,,,,,,,,,,,Zähne,2.3561,838.7290704000006,838.7295677000002,838.7296695000005,838.7440785000008,841.1105500000003,841.0954690000008,841.1019713000005,841.1105500000003,841.1105500000003,841.1105500000003,841.1105500000003,843.0951301000005,2,1.4196116000002803,0.18744349999997212,None,843.1106363000008,843.1106363000008,843.1106363000008,843.1106363000008,,,,,,,,,,,,,,,,,,,,,5848,1,2025-10-08_17h06.22.151,sm,2024.2.4,59.91292255845215,2025-10-08 17h06.39.724420 +0200,
33,0,33,,,,,,space,7.682770299999902,None,None,2,0.5879322999999204,0.1631588999998712,None,0,0,0,0,,,,,0,0,0,0,,,,,33,0,33,0,843.1106363000008,,,,,,,,,,,,,,,,,,,,,,,,,,,,,,,,,,,,,,,,,,,,,,,,,,,,,,,,,,Eule,5.3654,843.0956523000004,843.0961641000004,843.0962675000001,843.1106363000008,848.4769712000007,848.4611894,848.4642775000002,848.4769712000007,848.4769712000007,848.4769712000007,848.4769712000007,850.4617885000007,2,0.5879322999999204,0.1631588999998712,None,850.4771866000001,850.4771866000001,850.4771866000001,850.4771866000001,,,,,,,,,,,,,,,,,,,,,5848,1,2025-10-08_17h06.22.151,sm,2024.2.4,59.91292255845215,2025-10-08 17h06.39.724420 +0200,
34,0,34,,,,,,space,7.682770299999902,None,None,2,0.6491505000003599,0.19333480000022973,None,0,0,0,0,,,,,0,0,0,0,,,,,34,0,34,0,850.4771866000001,,,,,,,,,,,,,,,,,,,,,,,,,,,,,,,,,,,,,,,,,,,,,,,,,,,,,,,,,,Familie,3.3892,850.4623388,850.4631724999999,850.4633149000001,850.4771866000001,853.8766327000003,853.8608825000001,853.8644051000001,853.8766327000003,853.8766327000003,853.8766327000003,853.8766327000003,855.8612055000003,2,0.6491505000003599,0.19333480000022973,None,855.8767132000003,855.8767132000003,855.8767132000003,855.8767132000003,,,,,,,,,,,,,,,,,,,,,5848,1,2025-10-08_17h06.22.151,sm,2024.2.4,59.91292255845215,2025-10-08 17h06.39.724420 +0200,
35,0,35,,,,,,space,7.682770299999902,None,None,3,1.2172839000004387,0.22067739999965852,None,0,0,0,0,,,,,0,0,0,0,,,,,35,0,35,0,855.8767132000003,,,,,,,,,,,,,,,,,,,,,,,,,,,,,,,,,,,,,,,,,,,,,,,,,,,,,,,,,,Universität,3.0728,855.8617200000008,855.8622455000004,855.8623506000004,855.8767132000003,858.9601132000007,858.9441962000001,858.9509606000001,858.9601132000007,858.9601132000007,858.9601132000007,858.9601132000007,860.9439300000004,3,1.2172839000004387,0.22067739999965852,None,860.9597926000006,860.9597926000006,860.9597926000006,860.9597926000006,,,,,,,,,,,,,,,,,,,,,5848,1,2025-10-08_17h06.22.151,sm,2024.2.4,59.91292255845215,2025-10-08 17h06.39.724420 +0200,
36,0,36,,,,,,space,7.682770299999902,None,None,3,0.6521799999991345,0.25893900000028225,None,0,0,0,0,,,,,0,0,0,0,,,,,36,0,36,0,860.9597926000006,,,,,,,,,,,,,,,,,,,,,,,,,,,,,,,,,,,,,,,,,,,,,,,,,,,,,,,,,,Kaffee,2.2788,860.9443896000002,860.9449067000005,860.9450022000001,860.9597926000006,863.2429592000008,863.2274302000005,863.2314793000005,863.2429592000008,863.2429592000008,863.2429592000008,863.2429592000008,865.2273796,3,0.6521799999991345,0.25893900000028225,None,865.2432440000002,865.2432440000002,865.2432440000002,865.2432440000002,,,,,,,,,,,,,,,,,,,,,5848,1,2025-10-08_17h06.22.151,sm,2024.2.4,59.91292255845215,2025-10-08 17h06.39.724420 +0200,
37,0,37,,,,,,space,7.682770299999902,None,None,3,0.8243100999998205,0.19205690000035247,None,0,0,0,0,,,,,0,0,0,0,,,,,37,0,37,0,865.2432440000002,,,,,,,,,,,,,,,,,,,,,,,,,,,,,,,,,,,,,,,,,,,,,,,,,,,,,,,,,,Gold,3.7679,865.2278895,865.2285581000006,865.2286797000006,865.2432440000002,869.0260571000008,869.0104869000006,869.0141078000006,869.0260571000008,869.0260571000008,869.0260571000008,869.0260571000008,871.0101843000002,3,0.8243100999998205,0.19205690000035247,None,871.0257780000002,871.0257780000002,871.0257780000002,871.0257780000002,,,,,,,,,,,,,,,,,,,,,5848,1,2025-10-08_17h06.22.151,sm,2024.2.4,59.91292255845215,2025-10-08 17h06.39.724420 +0200,
38,0,38,,,,,,space,7.682770299999902,None,None,3,0.6188155999998344,0.22136940000018512,None,0,0,0,0,,,,,0,0,0,0,,,,,38,0,38,0,871.0257780000002,,,,,,,,,,,,,,,,,,,,,,,,,,,,,,,,,,,,,,,,,,,,,,,,,,,,,,,,,,Berg,3.7782,871.0107017,871.0113848000001,871.0114941000002,871.0257780000002,874.8090049000002,874.7936569000003,874.7981855000007,874.8090049000002,874.8090049000002,874.8090049000002,874.8090049000002,876.7931928000007,3,0.6188155999998344,0.22136940000018512,None,876.8087936000002,876.8087936000002,876.8087936000002,876.8087936000002,,,,,,,,,,,,,,,,,,,,,5848,1,2025-10-08_17h06.22.151,sm,2024.2.4,59.91292255845215,2025-10-08 17h06.39.724420 +0200,
39,0,39,,,,,,space,7.682770299999902,None,None,3,0.6322082999995473,0.23734030000014172,None,0,0,0,0,,,,,0,0,0,0,,,,,39,0,39,0,876.8087936000002,,,,,,,,,,,,,,,,,,,,,,,,,,,,,,,,,,,,,,,,,,,,,,,,,,,,,,,,,,Sicherheit,2.959,876.7937045000008,876.7942399000003,876.7943455000004,876.8087936000002,879.7751349,879.7598465000001,879.7642337000007,879.7751349,879.7751349,879.7751349,879.7751349,881.7598120000002,3,0.6322082999995473,0.23734030000014172,None,881.7753016000006,881.7753016000006,881.7753016000006,881.7753016000006,,,,,,,,,,,,,,,,,,,,,5848,1,2025-10-08_17h06.22.151,sm,2024.2.4,59.91292255845215,2025-10-08 17h06.39.724420 +0200,
40,0,40,,,,,,space,7.682770299999902,None,None,2,1.0625612000003457,0.20208499999989726,None,0,0,0,0,,,,,0,0,0,0,,,,,40,0,40,0,881.7753016000006,,,,,,,,,,,,,,,,,,,,,,,,,,,,,,,,,,,,,,,,,,,,,,,,,,,,,,,,,,Liebe,4.0079,881.7603267000004,881.7608440000004,881.7609501000006,881.7753016000006,885.7916844000001,885.7760251,885.7797895000003,885.7916844000001,885.7916844000001,885.7916844000001,885.7916844000001,887.7760100000005,2,1.0625612000003457,0.20208499999989726,None,887.7915270000003,887.7915270000003,887.7915270000003,887.7915270000003,,,,,,,,,,,,,,,,,,,,,5848,1,2025-10-08_17h06.22.151,sm,2024.2.4,59.91292255845215,2025-10-08 17h06.39.724420 +0200,
41,0,41,,,,,,space,7.682770299999902,None,None,2,0.6182558000000427,0.1700009999995018,None,0,0,0,0,,,,,0,0,0,0,,,,,41,0,41,0,887.7915270000003,,,,,,,,,,,,,,,,,,,,,,,,,,,,,,,,,,,,,,,,,,,,,,,,,,,,,,,,,,Bruder,2.5281,887.7765192000006,887.7771589000004,887.7772645000005,887.7915270000003,890.3247206000005,890.3095047000006,890.3136002000001,890.3247206000005,890.3247206000005,890.3247206000005,890.3247206000005,892.3091955,2,0.6182558000000427,0.1700009999995018,None,892.3246663,892.3246663,892.3246663,892.3246663,,,,,,,,,,,,,,,,,,,,,5848,1,2025-10-08_17h06.22.151,sm,2024.2.4,59.91292255845215,2025-10-08 17h06.39.724420 +0200,
42,0,42,,,,,,space,7.682770299999902,None,None,3,0.5899595999999292,0.21049000000039086,None,0,0,0,0,,,,,0,0,0,0,,,,,42,0,42,0,892.3246663,,,,,,,,,,,,,,,,,,,,,,,,,,,,,,,,,,,,,,,,,,,,,,,,,,,,,,,,,,Kerzen,3.1658,892.3097028000002,892.3102224000004,892.3103278000008,892.3246663,895.4909520000001,895.4755715000001,895.4795993000007,895.4909520000001,895.4909520000001,895.4909520000001,895.4909520000001,897.4752827000002,3,0.5899595999999292,0.21049000000039086,None,897.4912443000003,897.4912443000003,897.4912443000003,897.4912443000003,,,,,,,,,,,,,,,,,,,,,5848,1,2025-10-08_17h06.22.151,sm,2024.2.4,59.91292255845215,2025-10-08 17h06.39.724420 +0200,
43,0,43,,,,,,space,7.682770299999902,None,None,3,0.6878339999993841,0.24434410000048956,None,0,0,0,0,,,,,0,0,0,0,,,,,43,0,43,0,897.4912443000003,,,,,,,,,,,,,,,,,,,,,,,,,,,,,,,,,,,,,,,,,,,,,,,,,,,,,,,,,,Fahrrad,3.0881,897.4757409000003,897.4762470000005,897.4763512,897.4912443000003,900.5910322,900.5750620000008,900.579068,900.5910322,900.5910322,900.5910322,900.5910322,902.5752893000008,3,0.6878339999993841,0.24434410000048956,None,902.5908120000004,902.5908120000004,902.5908120000004,902.5908120000004,,,,,,,,,,,,,,,,,,,,,5848,1,2025-10-08_17h06.22.151,sm,2024.2.4,59.91292255845215,2025-10-08 17h06.39.724420 +0200,
44,0,44,,,,,,space,7.682770299999902,None,None,3,0.7172504999998637,0.22735759999977745,None,0,0,0,0,,,,,0,0,0,0,,,,,44,0,44,0,902.5908120000004,,,,,,,,,,,,,,,,,,,,,,,,,,,,,,,,,,,,,,,,,,,,,,,,,,,,,,,,,,Winter,3.9405,902.5757896000005,902.5763095000002,902.5764181000004,902.5908120000004,906.5405783000006,906.5251893000004,906.5294735000007,906.5405783000006,906.5405783000006,906.5405783000006,906.5405783000006,908.5250728000001,3,0.7172504999998637,0.22735759999977745,None,908.5403996000005,908.5403996000005,908.5403996000005,908.5403996000005,,,,,,,,,,,,,,,,,,,,,5848,1,2025-10-08_17h06.22.151,sm,2024.2.4,59.91292255845215,2025-10-08 17h06.39.724420 +0200,
45,0,45,,,,,,space,7.682770299999902,None,None,3,0.8911340000004202,0.2323791999997411,None,0,0,0,0,,,,,0,0,0,0,,,,,45,0,45,0,908.5403996000005,,,,,,,,,,,,,,,,,,,,,,,,,,,,,,,,,,,,,,,,,,,,,,,,,,,,,,,,,,Skizze,4.2356,908.5255998000002,908.5261415000004,908.5262584000002,908.5403996000005,912.7900686000003,912.7741300000007,912.7779313000001,912.7900686000003,912.7900686000003,912.7900686000003,912.7900686000003,914.7744482000007,3,0.8911340000004202,0.2323791999997411,None,914.7899638000008,914.7899638000008,914.7899638000008,914.7899638000008,,,,,,,,,,,,,,,,,,,,,5848,1,2025-10-08_17h06.22.151,sm,2024.2.4,59.91292255845215,2025-10-08 17h06.39.724420 +0200,
46,0,46,,,,,,space,7.682770299999902,None,None,3,1.6983937000004516,0.18982499999947322,None,0,0,0,0,,,,,0,0,0,0,,,,,46,0,46,0,914.7899638000008,,,,,,,,,,,,,,,,,,,,,,,,,,,,,,,,,,,,,,,,,,,,,,,,,,,,,,,,,,Ehe,3.0529,914.7749543,914.7756165999999,914.7757260000008,914.7899638000008,917.8567283000002,917.8406176000008,917.8437155000001,917.8567283000002,917.8567283000002,917.8567283000002,917.8567283000002,919.8407203000006,3,1.6983937000004516,0.18982499999947322,None,919.8563379000007,919.8563379000007,919.8563379000007,919.8563379000007,,,,,,,,,,,,,,,,,,,,,5848,1,2025-10-08_17h06.22.151,sm,2024.2.4,59.91292255845215,2025-10-08 17h06.39.724420 +0200,
47,0,47,,,,,,space,7.682770299999902,None,None,3,0.567134800000531,0.23333869999987655,None,0,0,0,0,,,,,0,0,0,0,,,,,47,0,47,0,919.8563379000007,,,,,,,,,,,,,,,,,,,,,,,,,,,,,,,,,,,,,,,,,,,,,,,,,,,,,,,,,,Stiefel,2.6433,919.8412232000001,919.8417308000007,919.8418382,919.8563379000007,922.5059349000003,922.4904461000006,922.4938895000005,922.5059349000003,922.5059349000003,922.5059349000003,922.5059349000003,924.4910172,3,0.567134800000531,0.23333869999987655,None,924.5064042000004,924.5064042000004,924.5064042000004,924.5064042000004,,,,,,,,,,,,,,,,,,,,,5848,1,2025-10-08_17h06.22.151,sm,2024.2.4,59.91292255845215,2025-10-08 17h06.39.724420 +0200,
48,0,48,,,,,,space,7.682770299999902,None,None,2,1.0128887999999279,0.18650979999983974,None,0,0,0,0,,,,,0,0,0,0,,,,,48,0,48,0,924.5064042000004,,,,,,,,,,,,,,,,,,,,,,,,,,,,,,,,,,,,,,,,,,,,,,,,,,,,,,,,,,Akrobatin,4.0533,924.4915258000001,924.4921859000005,924.4922929000004,924.5064042000004,928.5726348000007,928.5570091,928.5606709000003,928.5726348000007,928.5726348000007,928.5726348000007,928.5726348000007,930.5571567000006,2,1.0128887999999279,0.18650979999983974,None,930.5723911000005,930.5723911000005,930.5723911000005,930.5723911000005,,,,,,,,,,,,,,,,,,,,,5848,1,2025-10-08_17h06.22.151,sm,2024.2.4,59.91292255845215,2025-10-08 17h06.39.724420 +0200,
49,0,49,,,,,,space,7.682770299999902,None,None,3,1.1504899999999907,0.2183906999998726,None,0,0,0,0,,,,,0,0,0,0,,,,,49,0,49,0,930.5723911000005,,,,,,,,,,,,,,,,,,,,,,,,,,,,,,,,,,,,,,,,,,,,,,,,,,,,,,,,,,Riechen,2.8528,930.5576682999999,930.5581795000007,930.5582844,930.5723911000005,933.4390240000002,933.4231820000005,933.4271691000004,933.4390240000002,933.4390240000002,933.4390240000002,933.4390240000002,935.4234486000005,3,1.1504899999999907,0.2183906999998726,None,935.4390218000008,935.4390218000008,935.4390218000008,935.4390218000008,,,,,,,,,,,,,,,,,,,,,5848,1,2025-10-08_17h06.22.151,sm,2024.2.4,59.91292255845215,2025-10-08 17h06.39.724420 +0200,
50,0,50,,,,,,space,7.682770299999902,None,None,2,0.6686995000000024,0.20991940000021714,None,0,0,0,0,,,,,0,0,0,0,,,,,50,0,50,0,935.4390218000008,,,,,,,,,,,,,,,,,,,,,,,,,,,,,,,,,,,,,,,,,,,,,,,,,,,,,,,,,,Lachen,2.3852,935.4239605000002,935.4244698000002,935.4245783000006,935.4390218000008,937.8385948000005,937.8230020999999,937.8265486,937.8385948000005,937.8385948000005,937.8385948000005,937.8385948000005,939.8229684000007,2,0.6686995000000024,0.20991940000021714,None,939.8387345000001,939.8387345000001,939.8387345000001,939.8387345000001,,,,,,,,,,,,,,,,,,,,,5848,1,2025-10-08_17h06.22.151,sm,2024.2.4,59.91292255845215,2025-10-08 17h06.39.724420 +0200,
51,0,51,,,,,,space,7.682770299999902,None,None,3,1.2764004000000568,0.20508599999993748,None,0,0,0,0,,,,,0,0,0,0,,,,,51,0,51,0,939.8387345000001,,,,,,,,,,,,,,,,,,,,,,,,,,,,,,,,,,,,,,,,,,,,,,,,,,,,,,,,,,Club,4.9535,939.8234782,939.8239763000001,939.8240843000003,939.8387345000001,944.8057977000008,944.7894536000003,944.7971787000006,944.8057977000008,944.8057977000008,944.8057977000008,944.8057977000008,946.7898468000003,3,1.2764004000000568,0.20508599999993748,None,946.8050774000003,946.8050774000003,946.8050774000003,946.8050774000003,,,,,,,,,,,,,,,,,,,,,5848,1,2025-10-08_17h06.22.151,sm,2024.2.4,59.91292255845215,2025-10-08 17h06.39.724420 +0200,
52,0,52,,,,,,space,7.682770299999902,None,None,3,0.6246722999994745,0.22304480000002513,None,0,0,0,0,,,,,0,0,0,0,,,,,52,0,52,0,946.8050774000003,,,,,,,,,,,,,,,,,,,,,,,,,,,,,,,,,,,,,,,,,,,,,,,,,,,,,,,,,,Lokomotive,2.6898,946.7903749000006,946.7909421000004,946.7910595000003,946.8050774000003,949.5045847000001,949.4888828000003,949.4923557000002,949.5045847000001,949.5045847000001,949.5045847000001,949.5045847000001,951.4895663000007,3,0.6246722999994745,0.22304480000002513,None,951.5046353000007,951.5046353000007,951.5046353000007,951.5046353000007,,,,,,,,,,,,,,,,,,,,,5848,1,2025-10-08_17h06.22.151,sm,2024.2.4,59.91292255845215,2025-10-08 17h06.39.724420 +0200,
53,0,53,,,,,,space,7.682770299999902,None,None,3,0.6247612000006484,0.20480039999984,None,0,0,0,0,,,,,0,0,0,0,,,,,53,0,53,0,951.5046353000007,,,,,,,,,,,,,,,,,,,,,,,,,,,,,,,,,,,,,,,,,,,,,,,,,,,,,,,,,,Ball,3.7173,951.4900662,951.4905682000008,951.4906789000006,951.5046353000007,955.2206816000007,955.2053064000002,955.2085096999999,955.2206816000007,955.2206816000007,955.2206816000007,955.2206816000007,957.2056049000003,3,0.6247612000006484,0.20480039999984,None,957.2208696000007,957.2208696000007,957.2208696000007,957.2208696000007,,,,,,,,,,,,,,,,,,,,,5848,1,2025-10-08_17h06.22.151,sm,2024.2.4,59.91292255845215,2025-10-08 17h06.39.724420 +0200,
54,0,54,,,,,,space,7.682770299999902,None,None,3,0.8983670000006896,0.2098491999995531,None,0,0,0,0,,,,,0,0,0,0,,,,,54,0,54,0,957.2208696000007,,,,,,,,,,,,,,,,,,,,,,,,,,,,,,,,,,,,,,,,,,,,,,,,,,,,,,,,,,Schleim,2.0676,957.2061078000006,957.2068530000006,957.2069615,957.2208696000007,959.3040835000002,959.2883296,959.2918843000007,959.3040835000002,959.3040835000002,959.3040835000002,959.3040835000002,961.2884828000006,3,0.8983670000006896,0.2098491999995531,None,961.3040269000003,961.3040269000003,961.3040269000003,961.3040269000003,,,,,,,,,,,,,,,,,,,,,5848,1,2025-10-08_17h06.22.151,sm,2024.2.4,59.91292255845215,2025-10-08 17h06.39.724420 +0200,
55,0,55,,,,,,space,7.682770299999902,None,None,3,1.0070559999994657,0.20444150000002992,None,0,0,0,0,,,,,0,0,0,0,,,,,55,0,55,0,961.3040269000003,,,,,,,,,,,,,,,,,,,,,,,,,,,,,,,,,,,,,,,,,,,,,,,,,,,,,,,,,,Popcorn,3.5305,961.2889948000002,961.2896894000005,961.2898604000002,961.3040269000003,964.8370273,964.8216707000001,964.8251114000004,964.8370273,964.8370273,964.8370273,964.8370273,966.8217275000006,3,1.0070559999994657,0.20444150000002992,None,966.8370161000003,966.8370161000003,966.8370161000003,966.8370161000003,,,,,,,,,,,,,,,,,,,,,5848,1,2025-10-08_17h06.22.151,sm,2024.2.4,59.91292255845215,2025-10-08 17h06.39.724420 +0200,
56,0,56,,,,,,space,7.682770299999902,None,None,3,1.2223741000007067,0.16615939999974216,None,0,0,0,0,,,,,0,0,0,0,,,,,56,0,56,0,966.8370161000003,,,,,,,,,,,,,,,,,,,,,,,,,,,,,,,,,,,,,,,,,,,,,,,,,,,,,,,,,,Geschmack,3.4789,966.8222278000003,966.8227639000006,966.8228713000008,966.8370161000003,970.3200555000003,970.3045826000007,970.3088387000007,970.3200555000003,970.3200555000003,970.3200555000003,970.3200555000003,972.3046658000003,3,1.2223741000007067,0.16615939999974216,None,972.3202268000005,972.3202268000005,972.3202268000005,972.3202268000005,,,,,,,,,,,,,,,,,,,,,5848,1,2025-10-08_17h06.22.151,sm,2024.2.4,59.91292255845215,2025-10-08 17h06.39.724420 +0200,
57,0,57,,,,,,space,7.682770299999902,None,None,3,0.5982645000003686,0.1758442999998806,None,0,0,0,0,,,,,0,0,0,0,,,,,57,0,57,0,972.3202268000005,,,,,,,,,,,,,,,,,,,,,,,,,,,,,,,,,,,,,,,,,,,,,,,,,,,,,,,,,,Keller,2.1225,972.3051805000005,972.3057946000008,972.3059050000002,972.3202268000005,974.4538271000001,974.4374261000003,974.4406659000006,974.4538271000001,974.4538271000001,974.4538271000001,974.4538271000001,976.4375964000001,3,0.5982645000003686,0.1758442999998806,None,976.4533696000008,976.4533696000008,976.4533696000008,976.4533696000008,,,,,,,,,,,,,,,,,,,,,5848,1,2025-10-08_17h06.22.151,sm,2024.2.4,59.91292255845215,2025-10-08 17h06.39.724420 +0200,
58,0,58,,,,,,space,7.682770299999902,None,None,3,0.7051048999992418,0.20256490000065241,None,0,0,0,0,,,,,0,0,0,0,,,,,58,0,58,0,976.4533696000008,,,,,,,,,,,,,,,,,,,,,,,,,,,,,,,,,,,,,,,,,,,,,,,,,,,,,,,,,,Haare,2.1517,976.4381124000001,976.4386219000007,976.4387328000003,976.4533696000008,978.6195061000008,978.6040277000002,978.6094830000002,978.6195061000008,978.6195061000008,978.6195061000008,978.6195061000008,980.6040584000002,3,0.7051048999992418,0.20256490000065241,None,980.6199047,980.6199047,980.6199047,980.6199047,,,,,,,,,,,,,,,,,,,,,5848,1,2025-10-08_17h06.22.151,sm,2024.2.4,59.91292255845215,2025-10-08 17h06.39.724420 +0200,
59,0,59,,,,,,space,7.682770299999902,None,None,3,0.7360508000001573,0.3202014999997118,None,0,0,0,0,,,,,0,0,0,0,,,,,59,0,59,0,980.6199047,,,,,,,,,,,,,,,,,,,,,,,,,,,,,,,,,,,,,,,,,,,,,,,,,,,,,,,,,,Bett,4.0974,980.6045590000003,980.6050826000001,980.6051867000006,980.6199047,984.7191813,984.7036171,984.7066351000003,984.7191813,984.7191813,984.7191813,984.7191813,986.7042527000003,3,0.7360508000001573,0.3202014999997118,None,986.7193194000001,986.7193194000001,986.7193194000001,986.7193194000001,,,,,,,,,,,,,,,,,,,,,5848,1,2025-10-08_17h06.22.151,sm,2024.2.4,59.91292255845215,2025-10-08 17h06.39.724420 +0200,
60,0,60,,,,,,space,7.682770299999902,None,None,3,0.6798994999999195,0.2589514000001145,None,0,0,0,0,,,,,0,0,0,0,,,,,60,0,60,0,986.7193194000001,,,,,,,,,,,,,,,,,,,,,,,,,,,,,,,,,,,,,,,,,,,,,,,,,,,,,,,,,,Rock,2.6842,986.7047596000002,986.7052718000004,986.7053758000002,986.7193194000001,989.4024872,989.3869417000005,989.3905519,989.4024872,989.4024872,989.4024872,989.4024872,991.3869288000005,3,0.6798994999999195,0.2589514000001145,None,991.4026367000006,991.4026367000006,991.4026367000006,991.4026367000006,,,,,,,,,,,,,,,,,,,,,5848,1,2025-10-08_17h06.22.151,sm,2024.2.4,59.91292255845215,2025-10-08 17h06.39.724420 +0200,
61,0,61,,,,,,space,7.682770299999902,None,None,2,0.919363500000145,0.22245619999921473,None,0,0,0,0,,,,,0,0,0,0,,,,,61,0,61,0,991.4026367000006,,,,,,,,,,,,,,,,,,,,,,,,,,,,,,,,,,,,,,,,,,,,,,,,,,,,,,,,,,Tischler,3.4178,991.3874369000005,991.3879429000008,991.3880525000004,991.4026367000006,994.8353048000008,994.8199213000007,994.8238721000007,994.8353048000008,994.8353048000008,994.8353048000008,994.8353048000008,996.8199650000006,2,0.919363500000145,0.22245619999921473,None,996.8352911000002,996.8352911000002,996.8352911000002,996.8352911000002,,,,,,,,,,,,,,,,,,,,,5848,1,2025-10-08_17h06.22.151,sm,2024.2.4,59.91292255845215,2025-10-08 17h06.39.724420 +0200,
62,0,62,,,,,,space,7.682770299999902,None,None,3,0.5586828000004971,0.3160805999996228,None,0,0,0,0,,,,,0,0,0,0,,,,,62,0,62,0,996.8352911000002,,,,,,,,,,,,,,,,,,,,,,,,,,,,,,,,,,,,,,,,,,,,,,,,,,,,,,,,,,Geschichte,2.6833,996.8204683000004,996.8211761000002,996.8212839000007,996.8352911000002,999.5183309000004,999.5031343999999,999.5076912000004,999.5183309000004,999.5183309000004,999.5183309000004,999.5183309000004,1001.5028768000002,3,0.5586828000004971,0.3160805999996228,None,1001.5185677,1001.5185677,1001.5185677,1001.5185677,,,,,,,,,,,,,,,,,,,,,5848,1,2025-10-08_17h06.22.151,sm,2024.2.4,59.91292255845215,2025-10-08 17h06.39.724420 +0200,
63,0,63,,,,,,space,7.682770299999902,None,None,3,0.8465117999994618,0.21501680000073975,None,0,0,0,0,,,,,0,0,0,0,,,,,63,0,63,0,1001.5185677,,,,,,,,,,,,,,,,,,,,,,,,,,,,,,,,,,,,,,,,,,,,,,,,,,,,,,,,,,Moor,2.711,1001.5033907000006,1001.5039039000003,1001.5040085,1001.5185677,1004.2349560000002,1004.2193149000004,1004.2230456000007,1004.2349560000002,1004.2349560000002,1004.2349560000002,1004.2349560000002,1006.2193993000001,3,0.8465117999994618,0.21501680000073975,None,1006.2349829000004,1006.2349829000004,1006.2349829000004,1006.2349829000004,,,,,,,,,,,,,,,,,,,,,5848,1,2025-10-08_17h06.22.151,sm,2024.2.4,59.91292255845215,2025-10-08 17h06.39.724420 +0200,
64,0,64,,,,,,space,7.682770299999902,None,None,3,0.8995885000003909,0.19743480000033742,None,0,0,0,0,,,,,0,0,0,0,,,,,64,0,64,0,1006.2349829000004,,,,,,,,,,,,,,,,,,,,,,,,,,,,,,,,,,,,,,,,,,,,,,,,,,,,,,,,,,Himmel,2.106,1006.2199111,1006.2204246000001,1006.2205311000007,1006.2349829000004,1008.3514453000007,1008.3357451000002,1008.3398950000001,1008.3514453000007,1008.3514453000007,1008.3514453000007,1008.3514453000007,1010.3357433000001,3,0.8995885000003909,0.19743480000033742,None,1010.3515443000006,1010.3515443000006,1010.3515443000006,1010.3515443000006,,,,,,,,,,,,,,,,,,,,,5848,1,2025-10-08_17h06.22.151,sm,2024.2.4,59.91292255845215,2025-10-08 17h06.39.724420 +0200,
65,0,65,,,,,,space,7.682770299999902,None,None,3,0.6700203999998848,0.22737379999944096,None,0,0,0,0,,,,,0,0,0,0,,,,,65,0,65,0,1010.3515443000006,,,,,,,,,,,,,,,,,,,,,,,,,,,,,,,,,,,,,,,,,,,,,,,,,,,,,,,,,,Foto,2.0307,1010.3362506000003,1010.3369011000004,1010.3370083,1010.3515443000006,1012.3844607999999,1012.3690269000008,1012.3736865999999,1012.3844607999999,1012.3844607999999,1012.3844607999999,1012.3844607999999,1014.3689328,3,0.6700203999998848,0.22737379999944096,None,1014.3845762000001,1014.3845762000001,1014.3845762000001,1014.3845762000001,,,,,,,,,,,,,,,,,,,,,5848,1,2025-10-08_17h06.22.151,sm,2024.2.4,59.91292255845215,2025-10-08 17h06.39.724420 +0200,
66,0,66,,,,,,space,7.682770299999902,None,None,3,0.9988840999994864,0.22031460000016523,None,0,0,0,0,,,,,0,0,0,0,,,,,66,0,66,0,1014.3845762000001,,,,,,,,,,,,,,,,,,,,,,,,,,,,,,,,,,,,,,,,,,,,,,,,,,,,,,,,,,Zigarette,5.1665,1014.3694394000004,1014.3699447000008,1014.3700504000008,1014.3845762000001,1019.5507594000001,1019.5353901000008,1019.5402686000007,1019.5507594000001,1019.5507594000001,1019.5507594000001,1019.5507594000001,1021.5350333000006,3,0.9988840999994864,0.22031460000016523,None,1021.5508330000002,1021.5508330000002,1021.5508330000002,1021.5508330000002,,,,,,,,,,,,,,,,,,,,,5848,1,2025-10-08_17h06.22.151,sm,2024.2.4,59.91292255845215,2025-10-08 17h06.39.724420 +0200,
67,0,67,,,,,,space,7.682770299999902,None,None,3,1.0988110999996934,0.2541915000001609,None,0,0,0,0,,,,,0,0,0,0,,,,,67,0,67,0,1021.5508330000002,,,,,,,,,,,,,,,,,,,,,,,,,,,,,,,,,,,,,,,,,,,,,,,,,,,,,,,,,,Safari,2.3972,1021.5355634000007,1021.5360782000007,1021.5361853000004,1021.5508330000002,1023.9504463000003,1023.9348215,1023.9386154000003,1023.9504463000003,1023.9504463000003,1023.9504463000003,1023.9504463000003,1025.9346947000004,3,1.0988110999996934,0.2541915000001609,None,1025.9504288000007,1025.9504288000007,1025.9504288000007,1025.9504288000007,,,,,,,,,,,,,,,,,,,,,5848,1,2025-10-08_17h06.22.151,sm,2024.2.4,59.91292255845215,2025-10-08 17h06.39.724420 +0200,
68,0,68,,,,,,space,7.682770299999902,None,None,3,0.627494200000001,0.18851140000060695,None,0,0,0,0,,,,,0,0,0,0,,,,,68,0,68,0,1025.9504288000007,,,,,,,,,,,,,,,,,,,,,,,,,,,,,,,,,,,,,,,,,,,,,,,,,,,,,,,,,,Tube,2.6799,1025.9351722000001,1025.9356973000004,1025.9357978000007,1025.9504288000007,1028.6341006000002,1028.6180134000006,1028.6215710000006,1028.6341006000002,1028.6341006000002,1028.6341006000002,1028.6341006000002,1030.6181044000004,3,0.627494200000001,0.18851140000060695,None,1030.6334932,1030.6334932,1030.6334932,1030.6334932,,,,,,,,,,,,,,,,,,,,,5848,1,2025-10-08_17h06.22.151,sm,2024.2.4,59.91292255845215,2025-10-08 17h06.39.724420 +0200,
69,0,69,,,,,,space,7.682770299999902,None,None,3,0.9132411999999022,0.2938274000007368,None,0,0,0,0,,,,,0,0,0,0,,,,,69,0,69,0,1030.6334932,,,,,,,,,,,,,,,,,,,,,,,,,,,,,,,,,,,,,,,,,,,,,,,,,,,,,,,,,,Blumen,3.4279,1030.6186168000004,1030.6191402000004,1030.6192454000002,1030.6334932,1034.0664550000001,1034.0510703,1034.0543978000005,1034.0664550000001,1034.0664550000001,1034.0664550000001,1034.0664550000001,1036.0510268000007,3,0.9132411999999022,0.2938274000007368,None,1036.0664390000002,1036.0664390000002,1036.0664390000002,1036.0664390000002,,,,,,,,,,,,,,,,,,,,,5848,1,2025-10-08_17h06.22.151,sm,2024.2.4,59.91292255845215,2025-10-08 17h06.39.724420 +0200,
70,0,70,,,,,,space,7.682770299999902,None,None,3,1.6250404000002163,0.24004530000001978,None,0,0,0,0,,,,,0,0,0,0,,,,,70,0,70,0,1036.0664390000002,,,,,,,,,,,,,,,,,,,,,,,,,,,,,,,,,,,,,,,,,,,,,,,,,,,,,,,,,,Reise,2.0349,1036.0515015,1036.0521318,1036.0522316000006,1036.0664390000002,1038.1162490000006,1038.1006808000002,1038.1047234000007,1038.1162490000006,1038.1162490000006,1038.1162490000006,1038.1162490000006,1040.1007483000003,3,1.6250404000002163,0.24004530000001978,None,1040.1163236000002,1040.1163236000002,1040.1163236000002,1040.1163236000002,,,,,,,,,,,,,,,,,,,,,5848,1,2025-10-08_17h06.22.151,sm,2024.2.4,59.91292255845215,2025-10-08 17h06.39.724420 +0200,
71,0,71,,,,,,space,7.682770299999902,None,None,3,1.1435496000003695,0.23172929999964254,None,0,0,0,0,,,,,0,0,0,0,,,,,71,0,71,0,1040.1163236000002,,,,,,,,,,,,,,,,,,,,,,,,,,,,,,,,,,,,,,,,,,,,,,,,,,,,,,,,,,Wahrheit,4.7161,1040.1012589000002,1040.1018457,1040.1019539000008,1040.1163236000002,1044.8324461000002,1044.8172858000007,1044.8226048000006,1044.8324461000002,1044.8324461000002,1044.8324461000002,1044.8324461000002,1046.8169685000003,3,1.1435496000003695,0.23172929999964254,None,1046.8330448000006,1046.8330448000006,1046.8330448000006,1046.8330448000006,,,,,,,,,,,,,,,,,,,,,5848,1,2025-10-08_17h06.22.151,sm,2024.2.4,59.91292255845215,2025-10-08 17h06.39.724420 +0200,
72,0,72,,,,,,space,7.682770299999902,None,None,3,0.7263198000000557,0.21008140000049025,None,0,0,0,0,,,,,0,0,0,0,,,,,72,0,72,0,1046.8330448000006,,,,,,,,,,,,,,,,,,,,,,,,,,,,,,,,,,,,,,,,,,,,,,,,,,,,,,,,,,Schlüssel,2.3331,1046.8174823,1046.8180012000003,1046.8181095,1046.8330448000006,1049.1656571000003,1049.1503736000004,1049.1542441000001,1049.1656571000003,1049.1656571000003,1049.1656571000003,1049.1656571000003,1051.1501526000002,3,0.7263198000000557,0.21008140000049025,None,1051.1655377000006,1051.1655377000006,1051.1655377000006,1051.1655377000006,,,,,,,,,,,,,,,,,,,,,5848,1,2025-10-08_17h06.22.151,sm,2024.2.4,59.91292255845215,2025-10-08 17h06.39.724420 +0200,
73,0,73,,,,,,space,7.682770299999902,None,None,3,1.6088156000005256,0.17756129999997938,None,0,0,0,0,,,,,0,0,0,0,,,,,73,0,73,0,1051.1655377000006,,,,,,,,,,,,,,,,,,,,,,,,,,,,,,,,,,,,,,,,,,,,,,,,,,,,,,,,,,Knöchel,2.0832,1051.1506590000008,1051.1511646000008,1051.1512710000006,1051.1655377000006,1053.2488177000005,1053.2331692000007,1053.2370369,1053.2488177000005,1053.2488177000005,1053.2488177000005,1053.2488177000005,1055.2332943000001,3,1.6088156000005256,0.17756129999997938,None,1055.2487825000007,1055.2487825000007,1055.2487825000007,1055.2487825000007,,,,,,,,,,,,,,,,,,,,,5848,1,2025-10-08_17h06.22.151,sm,2024.2.4,59.91292255845215,2025-10-08 17h06.39.724420 +0200,
74,0,74,,,,,,space,7.682770299999902,None,None,3,0.6896276000006765,0.3231501999998727,None,0,0,0,0,,,,,0,0,0,0,,,,,74,0,74,0,1055.2487825000007,,,,,,,,,,,,,,,,,,,,,,,,,,,,,,,,,,,,,,,,,,,,,,,,,,,,,,,,,,Beutel,3.7326,1055.2338020000007,1055.2344602000003,1055.2345661,1055.2487825000007,1058.9814047,1058.9660931000008,1058.9697802,1058.9814047,1058.9814047,1058.9814047,1058.9814047,1060.9663566,3,0.6896276000006765,0.3231501999998727,None,1060.9820719,1060.9820719,1060.9820719,1060.9820719,,,,,,,,,,,,,,,,,,,,,5848,1,2025-10-08_17h06.22.151,sm,2024.2.4,59.91292255845215,2025-10-08 17h06.39.724420 +0200,
75,0,75,,,,,,space,7.682770299999902,None,None,3,0.6200759000003018,0.220396200000323,None,0,0,0,0,,,,,0,0,0,0,,,,,75,0,75,0,1060.9820719,,,,,,,,,,,,,,,,,,,,,,,,,,,,,,,,,,,,,,,,,,,,,,,,,,,,,,,,,,Fernseher,2.8625,1060.9668714,1060.9673712000003,1060.9674753,1060.9820719,1063.8482687000005,1063.8324924000008,1063.8367512000004,1063.8482687000005,1063.8482687000005,1063.8482687000005,1063.8482687000005,1065.8324273000007,3,0.6200759000003018,0.220396200000323,None,1065.8481908000003,1065.8481908000003,1065.8481908000003,1065.8481908000003,,,,,,,,,,,,,,,,,,,,,5848,1,2025-10-08_17h06.22.151,sm,2024.2.4,59.91292255845215,2025-10-08 17h06.39.724420 +0200,
76,0,76,,,,,,space,7.682770299999902,None,None,3,0.7718987999996898,0.3311180999999124,None,0,0,0,0,,,,,0,0,0,0,,,,,76,0,76,0,1065.8481908000003,,,,,,,,,,,,,,,,,,,,,,,,,,,,,,,,,,,,,,,,,,,,,,,,,,,,,,,,,,Herbst,2.425,1065.8329271000002,1065.8335561000004,1065.8336614,1065.8481908000003,1068.2811161,1068.2657102000003,1068.2694693000003,1068.2811161,1068.2811161,1068.2811161,1068.2811161,1070.2655760000007,3,0.7718987999996898,0.3311180999999124,None,1070.2813244000008,1070.2813244000008,1070.2813244000008,1070.2813244000008,,,,,,,,,,,,,,,,,,,,,5848,1,2025-10-08_17h06.22.151,sm,2024.2.4,59.91292255845215,2025-10-08 17h06.39.724420 +0200,
77,0,77,,,,,,space,7.682770299999902,None,None,2,1.361427900000308,0.15656849999959377,None,0,0,0,0,,,,,0,0,0,0,,,,,77,0,77,0,1070.2813244000008,,,,,,,,,,,,,,,,,,,,,,,,,,,,,,,,,,,,,,,,,,,,,,,,,,,,,,,,,,Zeigen,2.2318,1070.2660690000002,1070.2665647000003,1070.2666638,1070.2813244000008,1072.5149141000002,1072.4987824,1072.5040392,1072.5149141000002,1072.5149141000002,1072.5149141000002,1072.5149141000002,1074.4987971,2,1.361427900000308,0.15656849999959377,None,1074.5146284000002,1074.5146284000002,1074.5146284000002,1074.5146284000002,,,,,,,,,,,,,,,,,,,,,5848,1,2025-10-08_17h06.22.151,sm,2024.2.4,59.91292255845215,2025-10-08 17h06.39.724420 +0200,
78,0,78,,,,,,space,7.682770299999902,None,None,3,0.8127860999993572,0.20247110000036628,None,0,0,0,0,,,,,0,0,0,0,,,,,78,0,78,0,1074.5146284000002,,,,,,,,,,,,,,,,,,,,,,,,,,,,,,,,,,,,,,,,,,,,,,,,,,,,,,,,,,Anhänger,2.2076,1074.4993121000007,1074.4998256000008,1074.4999281,1074.5146284000002,1076.7314420000002,1076.7153203000007,1076.7195872000002,1076.7314420000002,1076.7314420000002,1076.7314420000002,1076.7314420000002,1078.7153892000006,3,0.8127860999993572,0.20247110000036628,None,1078.7308823000003,1078.7308823000003,1078.7308823000003,1078.7308823000003,,,,,,,,,,,,,,,,,,,,,5848,1,2025-10-08_17h06.22.151,sm,2024.2.4,59.91292255845215,2025-10-08 17h06.39.724420 +0200,
79,0,79,,,,,,space,7.682770299999902,None,None,3,0.7151054999994813,0.1608355999997002,None,0,0,0,0,,,,,0,0,0,0,,,,,79,0,79,0,1078.7308823000003,,,,,,,,,,,,,,,,,,,,,,,,,,,,,,,,,,,,,,,,,,,,,,,,,,,,,,,,,,Zimt,2.235,1078.7158964,1078.7164081,1078.7165141000005,1078.7308823000003,1080.9806837000006,1080.9649117000008,1080.9685374,1080.9806837000006,1080.9806837000006,1080.9806837000006,1080.9806837000006,1082.9650479000002,3,0.7151054999994813,0.1608355999997002,None,1082.9917923000003,1082.9917923000003,1082.9917923000003,1082.9917923000003,,,,,,,,,,,,,,,,,,,,,5848,1,2025-10-08_17h06.22.151,sm,2024.2.4,59.91292255845215,2025-10-08 17h06.39.724420 +0200,
0,0,0,,,,,2.0832,space,1.766113900000164,None,None,2,0.8066221999997651,0.2692920999998023,None,0,0,0,0,,,,,1,0,1,0,0,79,79,55,0,0,0,0,1133.5776084,,,,,,,,,,,,,,,,,,,,,,,,,,,,,,,,,,,,1107.1768033000008,1107.1770683000004,1107.1833581,1107.1879076000005,1107.1879076000005,1108.9642020000001,space,1.766113900000164,None,1108.9643580000002,1108.9791939000006,1108.9791939000006,1121.5633817000007,None,1121.5708467000004,1121.5782145000003,1121.578588266667,1122.7865317000005,1131.5779360666668,1132.5858813000004,1133.5776084,1133.5625831000007,Klempner,2.0832,1133.5640129000003,1133.5646928000006,1133.5648078000004,1133.5776084,1135.6607335000008,1135.6452844000005,1135.6488436,1135.6607335000008,1135.6607335000008,1135.6607335000008,1135.6607335000008,1137.6454605000008,2,0.8066221999997651,0.2692920999998023,None,1137.6610475000007,1137.6610475000007,1137.6610475000007,1137.6610475000007,1094.9802545000002,1094.9803241,None,1094.9888164000004,1094.9962709000001,1098.9962770000002,1098.9962770000002,1098.9962770000002,1107.1310870000007,2,8.132044899999528,None,,,,,,,,,5848,1,2025-10-08_17h06.22.151,sm,2024.2.4,59.91292255845215,2025-10-08 17h06.39.724420 +0200,
1,0,1,,,,,,space,1.766113900000164,None,None,2,0.7063041000001249,0.24028719999932946,None,0,0,0,0,,,,,1,0,1,0,,,,,1,0,1,0,1137.6610475000007,,,,,,,,,,,,,,,,,,,,,,,,,,,,,,,,,,,,,,,,,,,,,,,,,,,,,,,,,,Schwimmen,2.2701,1137.6459750000004,1137.6466451000006,1137.6467524,1137.6610475000007,1139.9441423000007,1139.9284692,1139.9330324000002,1139.9441423000007,1139.9441423000007,1139.9441423000007,1139.9441423000007,1141.9282556000007,2,0.7063041000001249,0.24028719999932946,None,1141.9438711000003,1141.9438711000003,1141.9438711000003,1141.9438711000003,,,,,,,,,,,,,,,,,,,,,5848,1,2025-10-08_17h06.22.151,sm,2024.2.4,59.91292255845215,2025-10-08 17h06.39.724420 +0200,
2,0,2,,,,,,space,1.766113900000164,None,None,3,0.6651929999998174,0.23938650000036432,None,0,0,0,0,,,,,1,0,1,0,,,,,2,0,2,0,1141.9438711000003,,,,,,,,,,,,,,,,,,,,,,,,,,,,,,,,,,,,,,,,,,,,,,,,,,,,,,,,,,Rebe,2.3972,1141.9287438000001,1141.9292511000003,1141.9293586000003,1141.9438711000003,1144.3435130000007,1144.3278281000003,1144.3308185000005,1144.3435130000007,1144.3435130000007,1144.3435130000007,1144.3435130000007,1146.3281863000002,3,0.6651929999998174,0.23938650000036432,None,1146.3436426000007,1146.3436426000007,1146.3436426000007,1146.3436426000007,,,,,,,,,,,,,,,,,,,,,5848,1,2025-10-08_17h06.22.151,sm,2024.2.4,59.91292255845215,2025-10-08 17h06.39.724420 +0200,
3,0,3,,,,,,space,1.766113900000164,None,None,3,0.6261452999997346,0.24427730000024894,None,0,0,0,0,,,,,1,0,1,0,,,,,3,0,3,0,1146.3436426000007,,,,,,,,,,,,,,,,,,,,,,,,,,,,,,,,,,,,,,,,,,,,,,,,,,,,,,,,,,Sumpf,4.0974,1146.3286940000007,1146.3292196000002,1146.3293271000002,1146.3436426000007,1150.4431840000007,1150.4274196000006,1150.4307640000006,1150.4431840000007,1150.4431840000007,1150.4431840000007,1150.4431840000007,1152.4278865000006,3,0.6261452999997346,0.24427730000024894,None,1152.4431568,1152.4431568,1152.4431568,1152.4431568,,,,,,,,,,,,,,,,,,,,,5848,1,2025-10-08_17h06.22.151,sm,2024.2.4,59.91292255845215,2025-10-08 17h06.39.724420 +0200,
4,0,4,,,,,,space,1.766113900000164,None,None,None,,,None,0,0,0,0,,,,,1,0,1,0,,,,,4,0,4,0,1152.4431568,,,,,,,,,,,,,,,,,,,,,,,,,,,,,,,,,,,,,,,,,,,,,,,,,,,,,,,,,,Mund,5.6146,1152.4284030000008,1152.4289266000005,1152.4290383000007,1152.4431568,1158.0591835000005,1158.0443015,1158.0482507000006,1158.0591835000005,1158.0591835000005,1158.0591835000005,1158.0591835000005,1160.0441584,None,,,None,1160.0594125000007,1160.0594125000007,1160.0594125000007,1160.0594125000007,,,,,,,,,,,,,,,,,,,,,5848,1,2025-10-08_17h06.22.151,sm,2024.2.4,59.91292255845215,2025-10-08 17h06.39.724420 +0200,
5,0,5,,,,,,space,1.766113900000164,None,None,3,0.6223524000006364,0.1708995999997569,None,0,0,0,0,,,,,1,0,1,0,,,,,5,0,5,0,1160.0594125000007,,,,,,,,,,,,,,,,,,,,,,,,,,,,,,,,,,,,,,,,,,,,,,,,,,,,,,,,,,Sauber,2.9112,1160.0446397000005,1160.0451489000006,1160.0452541000004,1160.0594125000007,1162.9760419000004,1162.960164,1162.9636676,1162.9760419000004,1162.9760419000004,1162.9760419000004,1162.9760419000004,1164.9603833,3,0.6223524000006364,0.1708995999997569,None,1164.9759174,1164.9759174,1164.9759174,1164.9759174,,,,,,,,,,,,,,,,,,,,,5848,1,2025-10-08_17h06.22.151,sm,2024.2.4,59.91292255845215,2025-10-08 17h06.39.724420 +0200,
6,0,6,,,,,,space,1.766113900000164,None,None,3,0.625109199999315,0.18211890000020503,None,0,0,0,0,,,,,1,0,1,0,,,,,6,0,6,0,1164.9759174,,,,,,,,,,,,,,,,,,,,,,,,,,,,,,,,,,,,,,,,,,,,,,,,,,,,,,,,,,Rolle,5.3654,1164.9608878,1164.96155,1164.9616572000004,1164.9759174,1170.3421803,1170.3265387000001,1170.3299302000005,1170.3421803,1170.3421803,1170.3421803,1170.3421803,1172.3267811000005,3,0.625109199999315,0.18211890000020503,None,1172.3425343000008,1172.3425343000008,1172.3425343000008,1172.3425343000008,,,,,,,,,,,,,,,,,,,,,5848,1,2025-10-08_17h06.22.151,sm,2024.2.4,59.91292255845215,2025-10-08 17h06.39.724420 +0200,
7,0,7,,,,,,space,1.766113900000164,None,None,3,0.6598944999996093,0.2242303000002721,None,0,0,0,0,,,,,1,0,1,0,,,,,7,0,7,0,1172.3425343000008,,,,,,,,,,,,,,,,,,,,,,,,,,,,,,,,,,,,,,,,,,,,,,,,,,,,,,,,,,Zirkus,4.7161,1172.3272816000008,1172.3278711000003,1172.3279774000002,1172.3425343000008,1177.0584345000007,1177.0428364,1177.0469167,1177.0584345000007,1177.0584345000007,1177.0584345000007,1177.0584345000007,1179.0429358000001,3,0.6598944999996093,0.2242303000002721,None,1179.0582933000005,1179.0582933000005,1179.0582933000005,1179.0582933000005,,,,,,,,,,,,,,,,,,,,,5848,1,2025-10-08_17h06.22.151,sm,2024.2.4,59.91292255845215,2025-10-08 17h06.39.724420 +0200,
8,0,8,,,,,,space,1.766113900000164,None,None,3,0.863635599999725,0.22700470000017958,None,0,0,0,0,,,,,1,0,1,0,,,,,8,0,8,0,1179.0582933000005,,,,,,,,,,,,,,,,,,,,,,,,,,,,,,,,,,,,,,,,,,,,,,,,,,,,,,,,,,Konzert,2.1517,1179.0434474000003,1179.0439649,1179.0440770000005,1179.0582933000005,1181.2250514000007,1181.2091745000007,1181.2126571000008,1181.2250514000007,1181.2250514000007,1181.2250514000007,1181.2250514000007,1183.2092576000005,3,0.863635599999725,0.22700470000017958,None,1183.2248999000003,1183.2248999000003,1183.2248999000003,1183.2248999000003,,,,,,,,,,,,,,,,,,,,,5848,1,2025-10-08_17h06.22.151,sm,2024.2.4,59.91292255845215,2025-10-08 17h06.39.724420 +0200,
9,0,9,,,,,,space,1.766113900000164,None,None,2,0.7759304999999586,0.22524220000013884,None,0,0,0,0,,,,,1,0,1,0,,,,,9,0,9,0,1183.2248999000003,,,,,,,,,,,,,,,,,,,,,,,,,,,,,,,,,,,,,,,,,,,,,,,,,,,,,,,,,,Student,2.6433,1183.2097726000002,1183.2102815000007,1183.2103883,1183.2248999000003,1185.8743931000008,1185.8588708000007,1185.8622946000005,1185.8743931000008,1185.8743931000008,1185.8743931000008,1185.8743931000008,1187.8591016,2,0.7759304999999586,0.22524220000013884,None,1187.8746462,1187.8746462,1187.8746462,1187.8746462,,,,,,,,,,,,,,,,,,,,,5848,1,2025-10-08_17h06.22.151,sm,2024.2.4,59.91292255845215,2025-10-08 17h06.39.724420 +0200,
10,0,10,,,,,,space,1.766113900000164,None,None,3,0.6269337000003361,0.20613289999982953,None,0,0,0,0,,,,,1,0,1,0,,,,,10,0,10,0,1187.8746462,,,,,,,,,,,,,,,,,,,,,,,,,,,,,,,,,,,,,,,,,,,,,,,,,,,,,,,,,,Tür,2.6391,1187.8596230000003,1187.8601334000004,1187.8602466000002,1187.8746462,1190.5243057000007,1190.5088447000007,1190.5129929000004,1190.5243057000007,1190.5243057000007,1190.5243057000007,1190.5243057000007,1192.5089638,3,0.6269337000003361,0.20613289999982953,None,1192.5245991000002,1192.5245991000002,1192.5245991000002,1192.5245991000002,,,,,,,,,,,,,,,,,,,,,5848,1,2025-10-08_17h06.22.151,sm,2024.2.4,59.91292255845215,2025-10-08 17h06.39.724420 +0200,
11,0,11,,,,,,space,1.766113900000164,None,None,2,0.8003459999999905,0.2736566000003222,None,0,0,0,0,,,,,1,0,1,0,,,,,11,0,11,0,1192.5245991000002,,,,,,,,,,,,,,,,,,,,,,,,,,,,,,,,,,,,,,,,,,,,,,,,,,,,,,,,,,Augen,3.4178,1192.5094532000003,1192.5100975000005,1192.5102075000004,1192.5245991000002,1195.9574598,1195.9418721000002,1195.9457203000002,1195.9574598,1195.9574598,1195.9574598,1195.9574598,1197.9416839000005,2,0.8003459999999905,0.2736566000003222,None,1197.9574336000005,1197.9574336000005,1197.9574336000005,1197.9574336000005,,,,,,,,,,,,,,,,,,,,,5848,1,2025-10-08_17h06.22.151,sm,2024.2.4,59.91292255845215,2025-10-08 17h06.39.724420 +0200,
12,0,12,,,,,,space,1.766113900000164,None,None,2,0.6731107999994492,0.3418079000002763,None,0,0,0,0,,,,,1,0,1,0,,,,,12,0,12,0,1197.9574336000005,,,,,,,,,,,,,,,,,,,,,,,,,,,,,,,,,,,,,,,,,,,,,,,,,,,,,,,,,,Elephant,2.959,1197.9421914000004,1197.9426938000006,1197.9428010000001,1197.9574336000005,1200.9238313000005,1200.9080888000008,1200.9122044000005,1200.9238313000005,1200.9238313000005,1200.9238313000005,1200.9238313000005,1202.9081424000005,2,0.6731107999994492,0.3418079000002763,None,1202.9242657000004,1202.9242657000004,1202.9242657000004,1202.9242657000004,,,,,,,,,,,,,,,,,,,,,5848,1,2025-10-08_17h06.22.151,sm,2024.2.4,59.91292255845215,2025-10-08 17h06.39.724420 +0200,
13,0,13,,,,,,space,1.766113900000164,None,None,3,0.6727545000003374,0.17310619999989285,None,0,0,0,0,,,,,1,0,1,0,,,,,13,0,13,0,1202.9242657000004,,,,,,,,,,,,,,,,,,,,,,,,,,,,,,,,,,,,,,,,,,,,,,,,,,,,,,,,,,Wissen,2.1225,1202.9085762000004,1202.9090691000001,1202.9091663,1202.9242657000004,1205.0570356000007,1205.0413199000004,1205.0454187000005,1205.0570356000007,1205.0570356000007,1205.0570356000007,1205.0570356000007,1207.0413253000006,3,0.6727545000003374,0.17310619999989285,None,1207.0570404,1207.0570404,1207.0570404,1207.0570404,,,,,,,,,,,,,,,,,,,,,5848,1,2025-10-08_17h06.22.151,sm,2024.2.4,59.91292255845215,2025-10-08 17h06.39.724420 +0200,
14,0,14,,,,,,space,1.766113900000164,None,None,3,1.0431138000003557,0.18595490000006976,None,0,0,0,0,,,,,1,0,1,0,,,,,14,0,14,0,1207.0570404,,,,,,,,,,,,,,,,,,,,,,,,,,,,,,,,,,,,,,,,,,,,,,,,,,,,,,,,,,Erbe,2.3331,1207.0418338,1207.0424851000007,1207.0425901000008,1207.0570404,1209.3902539,1209.3742423000003,1209.3774375000003,1209.3902539,1209.3902539,1209.3902539,1209.3902539,1211.3746654000006,3,1.0431138000003557,0.18595490000006976,None,1211.3898880000006,1211.3898880000006,1211.3898880000006,1211.3898880000006,,,,,,,,,,,,,,,,,,,,,5848,1,2025-10-08_17h06.22.151,sm,2024.2.4,59.91292255845215,2025-10-08 17h06.39.724420 +0200,
15,0,15,,,,,,space,1.766113900000164,None,None,2,0.8193212999995012,0.20687890000044717,None,0,0,0,0,,,,,1,0,1,0,,,,,15,0,15,0,1211.3898880000006,,,,,,,,,,,,,,,,,,,,,,,,,,,,,,,,,,,,,,,,,,,,,,,,,,,,,,,,,,Freund,2.8374,1211.3751770000008,1211.3756933000004,1211.3758010000001,1211.3898880000006,1214.2400179000006,1214.2241616000001,1214.2284060000002,1214.2400179000006,1214.2400179000006,1214.2400179000006,1214.2400179000006,1216.2241747000007,2,0.8193212999995012,0.20687890000044717,None,1216.2396378000003,1216.2396378000003,1216.2396378000003,1216.2396378000003,,,,,,,,,,,,,,,,,,,,,5848,1,2025-10-08_17h06.22.151,sm,2024.2.4,59.91292255845215,2025-10-08 17h06.39.724420 +0200,
16,0,16,,,,,,space,1.766113900000164,None,None,3,0.5855370999997831,0.18545720000020083,None,0,0,0,0,,,,,1,0,1,0,,,,,16,0,16,0,1216.2396378000003,,,,,,,,,,,,,,,,,,,,,,,,,,,,,,,,,,,,,,,,,,,,,,,,,,,,,,,,,,Radio,2.2318,1216.2246852000007,1216.2253371000006,1216.2254415000007,1216.2396378000003,1218.4727613000005,1218.4571480000004,1218.4606170000006,1218.4727613000005,1218.4727613000005,1218.4727613000005,1218.4727613000005,1220.4577509,3,0.5855370999997831,0.18545720000020083,None,1220.4730564000001,1220.4730564000001,1220.4730564000001,1220.4730564000001,,,,,,,,,,,,,,,,,,,,,5848,1,2025-10-08_17h06.22.151,sm,2024.2.4,59.91292255845215,2025-10-08 17h06.39.724420 +0200,
17,0,17,,,,,,space,1.766113900000164,None,None,3,1.0352435000004334,0.23826519999965967,None,0,0,0,0,,,,,1,0,1,0,,,,,17,0,17,0,1220.4730564000001,,,,,,,,,,,,,,,,,,,,,,,,,,,,,,,,,,,,,,,,,,,,,,,,,,,,,,,,,,Waschbecken,2.3125,1220.4582662000003,1220.4587847000003,1220.4588931000008,1220.4730564000001,1222.7890982000008,1222.7733893000004,1222.7778115,1222.7890982000008,1222.7890982000008,1222.7890982000008,1222.7890982000008,1224.7737518000004,3,1.0352435000004334,0.23826519999965967,None,1224.7892588000004,1224.7892588000004,1224.7892588000004,1224.7892588000004,,,,,,,,,,,,,,,,,,,,,5848,1,2025-10-08_17h06.22.151,sm,2024.2.4,59.91292255845215,2025-10-08 17h06.39.724420 +0200,
18,0,18,,,,,,space,1.766113900000164,None,None,3,0.7227687999993577,0.2031036000007589,None,0,0,0,0,,,,,1,0,1,0,,,,,18,0,18,0,1224.7892588000004,,,,,,,,,,,,,,,,,,,,,,,,,,,,,,,,,,,,,,,,,,,,,,,,,,,,,,,,,,Mäher,2.0734,1224.7742581000002,1224.7749075000002,1224.7750133,1224.7892588000004,1226.872327,1226.8567564000004,1226.8604007000004,1226.872327,1226.872327,1226.872327,1226.872327,1228.8566293000003,3,0.7227687999993577,0.2031036000007589,None,1228.8723347000005,1228.8723347000005,1228.8723347000005,1228.8723347000005,,,,,,,,,,,,,,,,,,,,,5848,1,2025-10-08_17h06.22.151,sm,2024.2.4,59.91292255845215,2025-10-08 17h06.39.724420 +0200,
19,0,19,,,,,,space,1.766113900000164,None,None,3,0.7003788000001805,0.20872489999965183,None,0,0,0,0,,,,,1,0,1,0,,,,,19,0,19,0,1228.8723347000005,,,,,,,,,,,,,,,,,,,,,,,,,,,,,,,,,,,,,,,,,,,,,,,,,,,,,,,,,,Kino,5.5316,1228.8571397000005,1228.8576508000006,1228.8577560000003,1228.8723347000005,1234.4051746000005,1234.3899418,1234.3935947,1234.4051746000005,1234.4051746000005,1234.4051746000005,1234.4051746000005,1236.3901745000003,3,0.7003788000001805,0.20872489999965183,None,1236.4052602000002,1236.4052602000002,1236.4052602000002,1236.4052602000002,,,,,,,,,,,,,,,,,,,,,5848,1,2025-10-08_17h06.22.151,sm,2024.2.4,59.91292255845215,2025-10-08 17h06.39.724420 +0200,
20,0,20,,,,,,space,1.766113900000164,None,None,3,0.587742800000342,0.2354074999993827,None,0,0,0,0,,,,,1,0,1,0,,,,,20,0,20,0,1236.4052602000002,,,,,,,,,,,,,,,,,,,,,,,,,,,,,,,,,,,,,,,,,,,,,,,,,,,,,,,,,,Trocken,2.3852,1236.3906851000002,1236.3912003000005,1236.3913069,1236.4052602000002,1238.8049742000003,1238.7894523000004,1238.7931585000006,1238.8049742000003,1238.8049742000003,1238.8049742000003,1238.8049742000003,1240.7895629000004,3,0.587742800000342,0.2354074999993827,None,1240.8049859000002,1240.8049859000002,1240.8049859000002,1240.8049859000002,,,,,,,,,,,,,,,,,,,,,5848,1,2025-10-08_17h06.22.151,sm,2024.2.4,59.91292255845215,2025-10-08 17h06.39.724420 +0200,
21,0,21,,,,,,space,1.766113900000164,None,None,3,0.8742257000003519,0.2320133999992322,None,0,0,0,0,,,,,1,0,1,0,,,,,21,0,21,0,1240.8049859000002,,,,,,,,,,,,,,,,,,,,,,,,,,,,,,,,,,,,,,,,,,,,,,,,,,,,,,,,,,Zeitung,2.8625,1240.7900719,1240.7906525000008,1240.7907591000003,1240.8049859000002,1243.6711314000004,1243.6557206000007,1243.6599482000001,1243.6711314000004,1243.6711314000004,1243.6711314000004,1243.6711314000004,1245.6558374000006,3,0.8742257000003519,0.2320133999992322,None,1245.6712519000002,1245.6712519000002,1245.6712519000002,1245.6712519000002,,,,,,,,,,,,,,,,,,,,,5848,1,2025-10-08_17h06.22.151,sm,2024.2.4,59.91292255845215,2025-10-08 17h06.39.724420 +0200,
22,0,22,,,,,,space,1.766113900000164,None,None,3,0.9314335999997638,0.1954438000002483,None,0,0,0,0,,,,,1,0,1,0,,,,,22,0,22,0,1245.6712519000002,,,,,,,,,,,,,,,,,,,,,,,,,,,,,,,,,,,,,,,,,,,,,,,,,,,,,,,,,,Scheidung,3.5305,1245.6563430000006,1245.6569029000002,1245.6570081,1245.6712519000002,1249.2044939000007,1249.1891667,1249.1939920000004,1249.2044939000007,1249.2044939000007,1249.2044939000007,1249.2044939000007,1251.1887276000007,3,0.9314335999997638,0.1954438000002483,None,1251.2044678000002,1251.2044678000002,1251.2044678000002,1251.2044678000002,,,,,,,,,,,,,,,,,,,,,5848,1,2025-10-08_17h06.22.151,sm,2024.2.4,59.91292255845215,2025-10-08 17h06.39.724420 +0200,
23,0,23,,,,,,space,1.766113900000164,None,None,3,0.8675771999996869,0.24343750000025466,None,0,0,0,0,,,,,1,0,1,0,,,,,23,0,23,0,1251.2044678000002,,,,,,,,,,,,,,,,,,,,,,,,,,,,,,,,,,,,,,,,,,,,,,,,,,,,,,,,,,Komödie,2.235,1251.1892450000005,1251.1897513000004,1251.1898615,1251.2044678000002,1253.4546630000004,1253.4384992000005,1253.4444944000006,1253.4546630000004,1253.4546630000004,1253.4546630000004,1253.4546630000004,1255.4385069,3,0.8675771999996869,0.24343750000025466,None,1255.4540889,1255.4540889,1255.4540889,1255.4540889,,,,,,,,,,,,,,,,,,,,,5848,1,2025-10-08_17h06.22.151,sm,2024.2.4,59.91292255845215,2025-10-08 17h06.39.724420 +0200,
24,0,24,,,,,,space,1.766113900000164,None,None,2,1.0011935000002268,0.2462972000002992,None,0,0,0,0,,,,,1,0,1,0,,,,,24,0,24,0,1255.4540889,,,,,,,,,,,,,,,,,,,,,,,,,,,,,,,,,,,,,,,,,,,,,,,,,,,,,,,,,,Schläger,2.0608,1255.4390119,1255.4396644000008,1255.4397744000007,1255.4540889,1257.5204927000004,1257.5050345,1257.5088954000003,1257.5204927000004,1257.5204927000004,1257.5204927000004,1257.5204927000004,1259.5051036000004,2,1.0011935000002268,0.2462972000002992,None,1259.5204963000006,1259.5204963000006,1259.5204963000006,1259.5204963000006,,,,,,,,,,,,,,,,,,,,,5848,1,2025-10-08_17h06.22.151,sm,2024.2.4,59.91292255845215,2025-10-08 17h06.39.724420 +0200,
25,0,25,,,,,,space,1.766113900000164,None,None,3,0.65955539999959,0.2598691000002873,None,0,0,0,0,,,,,1,0,1,0,,,,,25,0,25,0,1259.5204963000006,,,,,,,,,,,,,,,,,,,,,,,,,,,,,,,,,,,,,,,,,,,,,,,,,,,,,,,,,,Klee,4.2356,1259.5056185000003,1259.5061306000007,1259.5062344000007,1259.5204963000006,1263.7703861,1263.7545280000004,1263.7580788000005,1263.7703861,1263.7703861,1263.7703861,1263.7703861,1265.7545549000006,3,0.65955539999959,0.2598691000002873,None,1265.7703315000008,1265.7703315000008,1265.7703315000008,1265.7703315000008,,,,,,,,,,,,,,,,,,,,,5848,1,2025-10-08_17h06.22.151,sm,2024.2.4,59.91292255845215,2025-10-08 17h06.39.724420 +0200,
26,0,26,,,,,,space,1.766113900000164,None,None,3,1.4842126999992615,0.2323169000001144,None,0,0,0,0,,,,,1,0,1,0,,,,,26,0,26,0,1265.7703315000008,,,,,,,,,,,,,,,,,,,,,,,,,,,,,,,,,,,,,,,,,,,,,,,,,,,,,,,,,,Medaille,3.2207,1265.7549779,1265.7554937000004,1265.7555842000002,1265.7703315000008,1269.0030548000004,1268.9876344000004,1268.9910284000007,1269.0030548000004,1269.0030548000004,1269.0030548000004,1269.0030548000004,1270.9876938000007,3,1.4842126999992615,0.2323169000001144,None,1271.0031596000008,1271.0031596000008,1271.0031596000008,1271.0031596000008,,,,,,,,,,,,,,,,,,,,,5848,1,2025-10-08_17h06.22.151,sm,2024.2.4,59.91292255845215,2025-10-08 17h06.39.724420 +0200,
27,0,27,,,,,,space,1.766113900000164,None,None,3,0.8740711000000374,0.23636330000044836,None,0,0,0,0,,,,,1,0,1,0,,,,,27,0,27,0,1271.0031596000008,,,,,,,,,,,,,,,,,,,,,,,,,,,,,,,,,,,,,,,,,,,,,,,,,,,,,,,,,,Wohnung,3.9405,1270.9882017,1270.9887293000002,1270.9888386000002,1271.0031596000008,1274.9529656000004,1274.9374827000001,1274.9413821000007,1274.9529656000004,1274.9529656000004,1274.9529656000004,1274.9529656000004,1276.9376700000003,3,0.8740711000000374,0.23636330000044836,None,1276.9531739000004,1276.9531739000004,1276.9531739000004,1276.9531739000004,,,,,,,,,,,,,,,,,,,,,5848,1,2025-10-08_17h06.22.151,sm,2024.2.4,59.91292255845215,2025-10-08 17h06.39.724420 +0200,
28,0,28,,,,,,space,1.766113900000164,None,None,2,1.4199797999999646,0.35910019999937504,None,0,0,0,0,,,,,1,0,1,0,,,,,28,0,28,0,1276.9531739000004,,,,,,,,,,,,,,,,,,,,,,,,,,,,,,,,,,,,,,,,,,,,,,,,,,,,,,,,,,Feier,2.0349,1276.9382043000005,1276.9387586000003,1276.9388737,1276.9531739000004,1279.0026884000008,1278.9873438000004,1278.9914068000007,1279.0026884000008,1279.0026884000008,1279.0026884000008,1279.0026884000008,1280.9873282000008,2,1.4199797999999646,0.35910019999937504,None,1281.0027028000004,1281.0027028000004,1281.0027028000004,1281.0027028000004,,,,,,,,,,,,,,,,,,,,,5848,1,2025-10-08_17h06.22.151,sm,2024.2.4,59.91292255845215,2025-10-08 17h06.39.724420 +0200,
29,0,29,,,,,,space,1.766113900000164,None,None,3,0.5808679000001575,0.19839859999956388,None,0,0,0,0,,,,,1,0,1,0,,,,,29,0,29,0,1281.0027028000004,,,,,,,,,,,,,,,,,,,,,,,,,,,,,,,,,,,,,,,,,,,,,,,,,,,,,,,,,,Tasse,2.6669,1280.9878492000007,1280.9883651,1280.9884729000005,1281.0027028000004,1283.6691673000005,1283.6535634000002,1283.6577310000002,1283.6691673000005,1283.6691673000005,1283.6691673000005,1283.6691673000005,1285.6535427000008,3,0.5808679000001575,0.19839859999956388,None,1285.6692102000006,1285.6692102000006,1285.6692102000006,1285.6692102000006,,,,,,,,,,,,,,,,,,,,,5848,1,2025-10-08_17h06.22.151,sm,2024.2.4,59.91292255845215,2025-10-08 17h06.39.724420 +0200,
30,0,30,,,,,,space,1.766113900000164,None,None,3,0.5626972000000023,0.2204996000000392,None,0,0,0,0,,,,,1,0,1,0,,,,,30,0,30,0,1285.6692102000006,,,,,,,,,,,,,,,,,,,,,,,,,,,,,,,,,,,,,,,,,,,,,,,,,,,,,,,,,,Hose,2.1658,1285.6540508000007,1285.6545852,1285.6546938000001,1285.6692102000006,1287.8354831000006,1287.8201308000007,1287.8247033000007,1287.8354831000006,1287.8354831000006,1287.8354831000006,1287.8354831000006,1289.8201788000006,3,0.5626972000000023,0.2204996000000392,None,1289.8355717000004,1289.8355717000004,1289.8355717000004,1289.8355717000004,,,,,,,,,,,,,,,,,,,,,5848,1,2025-10-08_17h06.22.151,sm,2024.2.4,59.91292255845215,2025-10-08 17h06.39.724420 +0200,
31,0,31,,,,,,space,1.766113900000164,None,None,3,0.7195799999999508,0.2135292999992089,None,0,0,0,0,,,,,1,0,1,0,,,,,31,0,31,0,1289.8355717000004,,,,,,,,,,,,,,,,,,,,,,,,,,,,,,,,,,,,,,,,,,,,,,,,,,,,,,,,,,Loch,2.1332,1289.8206905000006,1289.8214482000003,1289.8215544000004,1289.8355717000004,1291.9691825,1291.9531409,1291.9567632000008,1291.9691825,1291.9691825,1291.9691825,1291.9691825,1293.9531883,3,0.7195799999999508,0.2135292999992089,None,1293.9687347,1293.9687347,1293.9687347,1293.9687347,,,,,,,,,,,,,,,,,,,,,5848,1,2025-10-08_17h06.22.151,sm,2024.2.4,59.91292255845215,2025-10-08 17h06.39.724420 +0200,
32,0,32,,,,,,space,1.766113900000164,None,None,2,1.0028898999999,0.21982650000063586,None,0,0,0,0,,,,,1,0,1,0,,,,,32,0,32,0,1293.9687347,,,,,,,,,,,,,,,,,,,,,,,,,,,,,,,,,,,,,,,,,,,,,,,,,,,,,,,,,,Krieg,2.5739,1293.9536927,1293.9544406000005,1293.9545468000006,1293.9687347,1296.5516557,1296.5360232000003,1296.5397139000006,1296.5516557,1296.5516557,1296.5516557,1296.5516557,1298.5362187,2,1.0028898999999,0.21982650000063586,None,1298.5516185000006,1298.5516185000006,1298.5516185000006,1298.5516185000006,,,,,,,,,,,,,,,,,,,,,5848,1,2025-10-08_17h06.22.151,sm,2024.2.4,59.91292255845215,2025-10-08 17h06.39.724420 +0200,
33,0,33,,,,,,space,1.766113900000164,None,None,3,0.6810117999993963,0.2084528000004866,None,0,0,0,0,,,,,1,0,1,0,,,,,33,0,33,0,1298.5516185000006,,,,,,,,,,,,,,,,,,,,,,,,,,,,,,,,,,,,,,,,,,,,,,,,,,,,,,,,,,Klippe,5.1665,1298.5367326000005,1298.5372454000008,1298.5373514000003,1298.5516185000006,1303.7179849000004,1303.7023995,1303.7057864000008,1303.7179849000004,1303.7179849000004,1303.7179849000004,1303.7179849000004,1305.7022641000003,3,0.6810117999993963,0.2084528000004866,None,1305.7178640000002,1305.7178640000002,1305.7178640000002,1305.7178640000002,,,,,,,,,,,,,,,,,,,,,5848,1,2025-10-08_17h06.22.151,sm,2024.2.4,59.91292255845215,2025-10-08 17h06.39.724420 +0200,
34,0,34,,,,,,space,1.766113900000164,None,None,3,0.6502407999996649,0.21472650000032445,None,0,0,0,0,,,,,1,0,1,0,,,,,34,0,34,0,1305.7178640000002,,,,,,,,,,,,,,,,,,,,,,,,,,,,,,,,,,,,,,,,,,,,,,,,,,,,,,,,,,Garten,3.7326,1305.7027701000006,1305.7032947000007,1305.7034013000002,1305.7178640000002,1309.4509794000005,1309.4353649000004,1309.4392146,1309.4509794000005,1309.4509794000005,1309.4509794000005,1309.4509794000005,1311.4358040000006,3,0.6502407999996649,0.21472650000032445,None,1311.4511667000006,1311.4511667000006,1311.4511667000006,1311.4511667000006,,,,,,,,,,,,,,,,,,,,,5848,1,2025-10-08_17h06.22.151,sm,2024.2.4,59.91292255845215,2025-10-08 17h06.39.724420 +0200,
35,0,35,,,,,,space,1.766113900000164,None,None,3,1.1067666999997527,0.193654400000014,None,0,0,0,0,,,,,1,0,1,0,,,,,35,0,35,0,1311.4511667000006,,,,,,,,,,,,,,,,,,,,,,,,,,,,,,,,,,,,,,,,,,,,,,,,,,,,,,,,,,Puppe,2.002,1311.4362736000003,1311.4368703,1311.4369695000005,1311.4511667000006,1313.4674090000008,1313.4517733000002,1313.4557821000008,1313.4674090000008,1313.4674090000008,1313.4674090000008,1313.4674090000008,1315.4519704000004,3,1.1067666999997527,0.193654400000014,None,1315.4674989000005,1315.4674989000005,1315.4674989000005,1315.4674989000005,,,,,,,,,,,,,,,,,,,,,5848,1,2025-10-08_17h06.22.151,sm,2024.2.4,59.91292255845215,2025-10-08 17h06.39.724420 +0200,
36,0,36,,,,,,space,1.766113900000164,None,None,2,1.4897570000002816,0.21638660000007803,None,0,0,0,0,,,,,1,0,1,0,,,,,36,0,36,0,1315.4674989000005,,,,,,,,,,,,,,,,,,,,,,,,,,,,,,,,,,,,,,,,,,,,,,,,,,,,,,,,,,Nase,2.7217,1315.4524835000002,1315.4529979000008,1315.4531036000008,1315.4674989000005,1318.2003282000005,1318.1849516000002,1318.1884525000005,1318.2003282000005,1318.2003282000005,1318.2003282000005,1318.2003282000005,1320.1850351000003,2,1.4897570000002816,0.21638660000007803,None,1320.2003746,1320.2003746,1320.2003746,1320.2003746,,,,,,,,,,,,,,,,,,,,,5848,1,2025-10-08_17h06.22.151,sm,2024.2.4,59.91292255845215,2025-10-08 17h06.39.724420 +0200,
37,0,37,,,,,,space,1.766113900000164,None,None,2,0.6046839999999065,0.2374221000000034,None,0,0,0,0,,,,,1,0,1,0,,,,,37,0,37,0,1320.2003746,,,,,,,,,,,,,,,,,,,,,,,,,,,,,,,,,,,,,,,,,,,,,,,,,,,,,,,,,,Känguru,3.1658,1320.1855397,1320.1861781000007,1320.1862842,1320.2003746,1323.3670908000004,1323.3515676000006,1323.3563799000003,1323.3670908000004,1323.3670908000004,1323.3670908000004,1323.3670908000004,1325.3515226,2,0.6046839999999065,0.2374221000000034,None,1325.3669880000007,1325.3669880000007,1325.3669880000007,1325.3669880000007,,,,,,,,,,,,,,,,,,,,,5848,1,2025-10-08_17h06.22.151,sm,2024.2.4,59.91292255845215,2025-10-08 17h06.39.724420 +0200,
38,0,38,,,,,,space,1.766113900000164,None,None,3,0.7001774000000296,0.23879740000029415,None,0,0,0,0,,,,,1,0,1,0,,,,,38,0,38,0,1325.3669880000007,,,,,,,,,,,,,,,,,,,,,,,,,,,,,,,,,,,,,,,,,,,,,,,,,,,,,,,,,,Kappe,2.9185,1325.3520422000001,1325.3525872,1325.3526949000006,1325.3669880000007,1328.2997242000001,1328.2841826000003,1328.2876872000006,1328.2997242000001,1328.2997242000001,1328.2997242000001,1328.2997242000001,1330.2842685000005,3,0.7001774000000296,0.23879740000029415,None,1330.3002283000005,1330.3002283000005,1330.3002283000005,1330.3002283000005,,,,,,,,,,,,,,,,,,,,,5848,1,2025-10-08_17h06.22.151,sm,2024.2.4,59.91292255845215,2025-10-08 17h06.39.724420 +0200,
39,0,39,,,,,,space,1.766113900000164,None,None,2,0.8084347999993042,0.22487050000017916,None,0,0,0,0,,,,,1,0,1,0,,,,,39,0,39,0,1330.3002283000005,,,,,,,,,,,,,,,,,,,,,,,,,,,,,,,,,,,,,,,,,,,,,,,,,,,,,,,,,,Gruppe,3.7782,1330.2847746000007,1330.2852913000006,1330.2853981000007,1330.3002283000005,1334.0829673000007,1334.0675505,1334.0717882000008,1334.0829673000007,1334.0829673000007,1334.0829673000007,1334.0829673000007,1336.0675582000003,2,0.8084347999993042,0.22487050000017916,None,1336.0830962,1336.0830962,1336.0830962,1336.0830962,,,,,,,,,,,,,,,,,,,,,5848,1,2025-10-08_17h06.22.151,sm,2024.2.4,59.91292255845215,2025-10-08 17h06.39.724420 +0200,
40,0,40,,,,,,space,1.766113900000164,None,None,3,0.6755603000001429,0.18906890000016574,None,0,0,0,0,,,,,1,0,1,0,,,,,40,0,40,0,1336.0830962,,,,,,,,,,,,,,,,,,,,,,,,,,,,,,,,,,,,,,,,,,,,,,,,,,,,,,,,,,Kamera,2.711,1336.0680761000003,1336.0686779000007,1336.0688561000006,1336.0830962,1338.7990516,1338.7834337000004,1338.7868285000004,1338.7990516,1338.7990516,1338.7990516,1338.7990516,1340.7839159000005,3,0.6755603000001429,0.18906890000016574,None,1340.7993624,1340.7993624,1340.7993624,1340.7993624,,,,,,,,,,,,,,,,,,,,,5848,1,2025-10-08_17h06.22.151,sm,2024.2.4,59.91292255845215,2025-10-08 17h06.39.724420 +0200,
41,0,41,,,,,,space,1.766113900000164,None,None,2,0.6152769999998782,0.2247006000006877,None,0,0,0,0,,,,,1,0,1,0,,,,,41,0,41,0,1340.7993624,,,,,,,,,,,,,,,,,,,,,,,,,,,,,,,,,,,,,,,,,,,,,,,,,,,,,,,,,,Spion,2.6842,1340.7844361000007,1340.7849579000003,1340.7850698000002,1340.7993624,1343.4992929,1343.4832363000005,1343.4864338000007,1343.4992929,1343.4992929,1343.4992929,1343.4992929,1345.4836679,2,0.6152769999998782,0.2247006000006877,None,1345.4989811000005,1345.4989811000005,1345.4989811000005,1345.4989811000005,,,,,,,,,,,,,,,,,,,,,5848,1,2025-10-08_17h06.22.151,sm,2024.2.4,59.91292255845215,2025-10-08 17h06.39.724420 +0200,
42,0,42,,,,,,space,1.766113900000164,None,None,3,0.6670319000004383,0.2582758999997168,None,0,0,0,0,,,,,1,0,1,0,,,,,42,0,42,0,1345.4989811000005,,,,,,,,,,,,,,,,,,,,,,,,,,,,,,,,,,,,,,,,,,,,,,,,,,,,,,,,,,Bart,3.0529,1345.4841763000004,1345.4846953000006,1345.4848000000002,1345.4989811000005,1348.5655380000007,1348.5499859000001,1348.5535808000004,1348.5655380000007,1348.5655380000007,1348.5655380000007,1348.5655380000007,1350.5498228000006,3,0.6670319000004383,0.2582758999997168,None,1350.5656303000005,1350.5656303000005,1350.5656303000005,1350.5656303000005,,,,,,,,,,,,,,,,,,,,,5848,1,2025-10-08_17h06.22.151,sm,2024.2.4,59.91292255845215,2025-10-08 17h06.39.724420 +0200,
43,0,43,,,,,,space,1.766113900000164,None,None,3,0.6698028999999224,0.2862062000003789,None,0,0,0,0,,,,,1,0,1,0,,,,,43,0,43,0,1350.5656303000005,,,,,,,,,,,,,,,,,,,,,,,,,,,,,,,,,,,,,,,,,,,,,,,,,,,,,,,,,,Schwarz,2.3561,1350.5503512000005,1350.5509269000004,1350.5510352000001,1350.5656303000005,1352.9315862000003,1352.9161020000001,1352.9192413,1352.9315862000003,1352.9315862000003,1352.9315862000003,1352.9315862000003,1354.916233,3,0.6698028999999224,0.2862062000003789,None,1354.9319627000004,1354.9319627000004,1354.9319627000004,1354.9319627000004,,,,,,,,,,,,,,,,,,,,,5848,1,2025-10-08_17h06.22.151,sm,2024.2.4,59.91292255845215,2025-10-08 17h06.39.724420 +0200,
44,0,44,,,,,,space,1.766113900000164,None,None,2,1.153275799999392,0.1914732000004733,None,0,0,0,0,,,,,1,0,1,0,,,,,44,0,44,0,1354.9319627000004,,,,,,,,,,,,,,,,,,,,,,,,,,,,,,,,,,,,,,,,,,,,,,,,,,,,,,,,,,Bücher,3.4789,1354.9167411000008,1354.9172551000001,1354.9173642000005,1354.9319627000004,1358.4149795000003,1358.3994247,1358.4036083,1358.4149795000003,1358.4149795000003,1358.4149795000003,1358.4149795000003,1360.3993738,2,1.153275799999392,0.1914732000004733,None,1360.4150106000006,1360.4150106000006,1360.4150106000006,1360.4150106000006,,,,,,,,,,,,,,,,,,,,,5848,1,2025-10-08_17h06.22.151,sm,2024.2.4,59.91292255845215,2025-10-08 17h06.39.724420 +0200,
45,0,45,,,,,,space,1.766113900000164,None,None,3,0.6505168999992748,0.28025200000047334,None,0,0,0,0,,,,,1,0,1,0,,,,,45,0,45,0,1360.4150106000006,,,,,,,,,,,,,,,,,,,,,,,,,,,,,,,,,,,,,,,,,,,,,,,,,,,,,,,,,,Krone,3.6405,1360.3998787,1360.4003938000005,1360.4005072,1360.4150106000006,1364.0646649,1364.0489107000003,1364.0519796000008,1364.0646649,1364.0646649,1364.0646649,1364.0646649,1366.0492210000002,3,0.6505168999992748,0.28025200000047334,None,1366.0647643000002,1366.0647643000002,1366.0647643000002,1366.0647643000002,,,,,,,,,,,,,,,,,,,,,5848,1,2025-10-08_17h06.22.151,sm,2024.2.4,59.91292255845215,2025-10-08 17h06.39.724420 +0200,
46,0,46,,,,,,space,1.766113900000164,None,None,3,1.02322439999989,0.2154378999994151,None,0,0,0,0,,,,,1,0,1,0,,,,,46,0,46,0,1366.0647643000002,,,,,,,,,,,,,,,,,,,,,,,,,,,,,,,,,,,,,,,,,,,,,,,,,,,,,,,,,,Chips,2.5924,1366.0497284000003,1366.0502411000007,1366.0503470000003,1366.0647643000002,1368.6642474,1368.6488423,1368.6526076,1368.6642474,1368.6642474,1368.6642474,1368.6642474,1370.6488081000007,3,1.02322439999989,0.2154378999994151,None,1370.6643859000005,1370.6643859000005,1370.6643859000005,1370.6643859000005,,,,,,,,,,,,,,,,,,,,,5848,1,2025-10-08_17h06.22.151,sm,2024.2.4,59.91292255845215,2025-10-08 17h06.39.724420 +0200,
47,0,47,,,,,,space,1.766113900000164,None,None,3,0.6526856000000407,0.21343960000012885,None,0,0,0,0,,,,,1,0,1,0,,,,,47,0,47,0,1370.6643859000005,,,,,,,,,,,,,,,,,,,,,,,,,,,,,,,,,,,,,,,,,,,,,,,,,,,,,,,,,,Gel,3.3892,1370.6493607000002,1370.6500518000003,1370.6502021000006,1370.6643859000005,1374.0639471000004,1374.0485168000005,1374.0520906000002,1374.0639471000004,1374.0639471000004,1374.0639471000004,1374.0639471000004,1376.0484417000007,3,0.6526856000000407,0.21343960000012885,None,1376.0641656000007,1376.0641656000007,1376.0641656000007,1376.0641656000007,,,,,,,,,,,,,,,,,,,,,5848,1,2025-10-08_17h06.22.151,sm,2024.2.4,59.91292255845215,2025-10-08 17h06.39.724420 +0200,
48,0,48,,,,,,space,1.766113900000164,None,None,3,0.5546242000000348,0.21729860000050394,None,0,0,0,0,,,,,1,0,1,0,,,,,48,0,48,0,1376.0641656000007,,,,,,,,,,,,,,,,,,,,,,,,,,,,,,,,,,,,,,,,,,,,,,,,,,,,,,,,,,Gleis,2.0307,1376.0489367,1376.0494703000004,1376.0495819000007,1376.0641656000007,1378.0970774000007,1378.0813356000008,1378.0846773000003,1378.0970774000007,1378.0970774000007,1378.0970774000007,1378.0970774000007,1380.0817651000007,3,0.5546242000000348,0.21729860000050394,None,1380.0970636000002,1380.0970636000002,1380.0970636000002,1380.0970636000002,,,,,,,,,,,,,,,,,,,,,5848,1,2025-10-08_17h06.22.151,sm,2024.2.4,59.91292255845215,2025-10-08 17h06.39.724420 +0200,
49,0,49,,,,,,space,1.766113900000164,None,None,2,0.9708881999995356,0.19983850000062375,None,0,0,0,0,,,,,1,0,1,0,,,,,49,0,49,0,1380.0970636000002,,,,,,,,,,,,,,,,,,,,,,,,,,,,,,,,,,,,,,,,,,,,,,,,,,,,,,,,,,Blut,2.8528,1380.0822791,1380.0830234000005,1380.0831280000002,1380.0970636000002,1382.9635375000007,1382.948351,1382.9515744,1382.9635375000007,1382.9635375000007,1382.9635375000007,1382.9635375000007,1384.9480003000008,2,0.9708881999995356,0.19983850000062375,None,1384.9633993000007,1384.9633993000007,1384.9633993000007,1384.9633993000007,,,,,,,,,,,,,,,,,,,,,5848,1,2025-10-08_17h06.22.151,sm,2024.2.4,59.91292255845215,2025-10-08 17h06.39.724420 +0200,
50,0,50,,,,,,space,1.766113900000164,None,None,3,0.9620344000004479,0.1890825999998924,None,0,0,0,0,,,,,1,0,1,0,,,,,50,0,50,0,1384.9633993000007,,,,,,,,,,,,,,,,,,,,,,,,,,,,,,,,,,,,,,,,,,,,,,,,,,,,,,,,,,Apfel,2.1702,1384.9485074000004,1384.9490988000007,1384.9492028000004,1384.9633993000007,1387.1466254000006,1387.1310039,1387.1348641000004,1387.1466254000006,1387.1466254000006,1387.1466254000006,1387.1466254000006,1389.1306509000005,3,0.9620344000004479,0.1890825999998924,None,1389.1467453000005,1389.1467453000005,1389.1467453000005,1389.1467453000005,,,,,,,,,,,,,,,,,,,,,5848,1,2025-10-08_17h06.22.151,sm,2024.2.4,59.91292255845215,2025-10-08 17h06.39.724420 +0200,
51,0,51,,,,,,space,1.766113900000164,None,None,3,0.7535556999991968,0.20480870000028517,None,0,0,0,0,,,,,1,0,1,0,,,,,51,0,51,0,1389.1467453000005,,,,,,,,,,,,,,,,,,,,,,,,,,,,,,,,,,,,,,,,,,,,,,,,,,,,,,,,,,Ostern,4.0533,1389.1310538000007,1389.1318020000008,1389.1318875000006,1389.1467453000005,1393.2129652000003,1393.1972654,1393.2021805000004,1393.2129652000003,1393.2129652000003,1393.2129652000003,1393.2129652000003,1395.1976066000007,3,0.7535556999991968,0.20480870000028517,None,1395.2129877000007,1395.2129877000007,1395.2129877000007,1395.2129877000007,,,,,,,,,,,,,,,,,,,,,5848,1,2025-10-08_17h06.22.151,sm,2024.2.4,59.91292255845215,2025-10-08 17h06.39.724420 +0200,
52,0,52,,,,,,space,1.766113900000164,None,None,3,0.6595253999994384,0.20009190000018862,None,0,0,0,0,,,,,1,0,1,0,,,,,52,0,52,0,1395.2129877000007,,,,,,,,,,,,,,,,,,,,,,,,,,,,,,,,,,,,,,,,,,,,,,,,,,,,,,,,,,Rose,2.425,1395.1981358000003,1395.1988163000005,1395.1989296000002,1395.2129877000007,1397.6466966000007,1397.6305826000007,1397.6341247,1397.6466966000007,1397.6466966000007,1397.6466966000007,1397.6466966000007,1399.6303574000003,3,0.6595253999994384,0.20009190000018862,None,1399.6460321000004,1399.6460321000004,1399.6460321000004,1399.6460321000004,,,,,,,,,,,,,,,,,,,,,5848,1,2025-10-08_17h06.22.151,sm,2024.2.4,59.91292255845215,2025-10-08 17h06.39.724420 +0200,
53,0,53,,,,,,space,1.766113900000164,None,None,3,0.9194876000001386,0.21140229999946314,None,0,0,0,0,,,,,1,0,1,0,,,,,53,0,53,0,1399.6460321000004,,,,,,,,,,,,,,,,,,,,,,,,,,,,,,,,,,,,,,,,,,,,,,,,,,,,,,,,,,Büro,3.6546,1399.6308754000001,1399.6314774000002,1399.6315834000006,1399.6460321000004,1403.3121345,1403.2964970000003,1403.2995052000006,1403.3121345,1403.3121345,1403.3121345,1403.3121345,1405.2969635,3,0.9194876000001386,0.21140229999946314,None,1405.3124106000005,1405.3124106000005,1405.3124106000005,1405.3124106000005,,,,,,,,,,,,,,,,,,,,,5848,1,2025-10-08_17h06.22.151,sm,2024.2.4,59.91292255845215,2025-10-08 17h06.39.724420 +0200,
54,0,54,,,,,,space,1.766113900000164,None,None,3,0.7948090999998385,0.23907619999954477,None,0,0,0,0,,,,,1,0,1,0,,,,,54,0,54,0,1405.3124106000005,,,,,,,,,,,,,,,,,,,,,,,,,,,,,,,,,,,,,,,,,,,,,,,,,,,,,,,,,,Zapfen,3.5103,1405.2974857,1405.2979935000003,1405.2980990000005,1405.3124106000005,1408.8285737000006,1408.8131174,1408.8177136000004,1408.8285737000006,1408.8285737000006,1408.8285737000006,1408.8285737000006,1410.8130751000008,3,0.7948090999998385,0.23907619999954477,None,1410.8287974000004,1410.8287974000004,1410.8287974000004,1410.8287974000004,,,,,,,,,,,,,,,,,,,,,5848,1,2025-10-08_17h06.22.151,sm,2024.2.4,59.91292255845215,2025-10-08 17h06.39.724420 +0200,
55,0,55,,,,,,space,1.766113900000164,None,None,3,1.0455944999994244,0.3088071000001946,None,0,0,0,0,,,,,1,0,1,0,,,,,55,0,55,0,1410.8287974000004,,,,,,,,,,,,,,,,,,,,,,,,,,,,,,,,,,,,,,,,,,,,,,,,,,,,,,,,,,Gegenwart,3.6853,1410.8135834000004,1410.8140871000005,1410.8141948000002,1410.8287974000004,1414.5290533000007,1414.5125892000005,1414.5162650000002,1414.5290533000007,1414.5290533000007,1414.5290533000007,1414.5290533000007,1416.5126194000004,3,1.0455944999994244,0.3088071000001946,None,1416.5284549000007,1416.5284549000007,1416.5284549000007,1416.5284549000007,,,,,,,,,,,,,,,,,,,,,5848,1,2025-10-08_17h06.22.151,sm,2024.2.4,59.91292255845215,2025-10-08 17h06.39.724420 +0200,
56,0,56,,,,,,space,1.766113900000164,None,None,3,1.144196600000214,0.2151413000001412,None,0,0,0,0,,,,,1,0,1,0,,,,,56,0,56,0,1416.5284549000007,,,,,,,,,,,,,,,,,,,,,,,,,,,,,,,,,,,,,,,,,,,,,,,,,,,,,,,,,,Monument,2.3973,1416.5131232000003,1416.5136345,1416.5137405000005,1416.5284549000007,1418.9282412000002,1418.9126735,1418.9168465000002,1418.9282412000002,1418.9282412000002,1418.9282412000002,1418.9282412000002,1420.9125303,3,1.144196600000214,0.2151413000001412,None,1420.9281665000008,1420.9281665000008,1420.9281665000008,1420.9281665000008,,,,,,,,,,,,,,,,,,,,,5848,1,2025-10-08_17h06.22.151,sm,2024.2.4,59.91292255845215,2025-10-08 17h06.39.724420 +0200,
57,0,57,,,,,,space,1.766113900000164,None,None,2,0.7887302999997701,0.22735730000022158,None,0,0,0,0,,,,,1,0,1,0,,,,,57,0,57,0,1420.9281665000008,,,,,,,,,,,,,,,,,,,,,,,,,,,,,,,,,,,,,,,,,,,,,,,,,,,,,,,,,,Geschwister,2.2788,1420.9130329,1420.9137068,1420.9138284,1420.9281665000008,1423.2118633,1423.1954650000007,1423.1998590000003,1423.2118633,1423.2118633,1423.2118633,1423.2118633,1425.1957728000007,2,0.7887302999997701,0.22735730000022158,None,1425.2111254000001,1425.2111254000001,1425.2111254000001,1425.2111254000001,,,,,,,,,,,,,,,,,,,,,5848,1,2025-10-08_17h06.22.151,sm,2024.2.4,59.91292255845215,2025-10-08 17h06.39.724420 +0200,
58,0,58,,,,,,space,1.766113900000164,None,None,2,1.2402619000004051,0.26626690000011877,None,0,0,0,0,,,,,1,0,1,0,,,,,58,0,58,0,1425.2111254000001,,,,,,,,,,,,,,,,,,,,,,,,,,,,,,,,,,,,,,,,,,,,,,,,,,,,,,,,,,Ausbruch,3.0881,1425.1962838,1425.1967961,1425.1969054,1425.2111254000001,1428.3112404000003,1428.2952377000001,1428.2990743,1428.3112404000003,1428.3112404000003,1428.3112404000003,1428.3112404000003,1430.2954147,2,1.2402619000004051,0.26626690000011877,None,1430.3107740000005,1430.3107740000005,1430.3107740000005,1430.3107740000005,,,,,,,,,,,,,,,,,,,,,5848,1,2025-10-08_17h06.22.151,sm,2024.2.4,59.91292255845215,2025-10-08 17h06.39.724420 +0200,
59,0,59,,,,,,space,1.766113900000164,None,None,2,1.0983974000000671,0.22196879999955854,None,0,0,0,0,,,,,1,0,1,0,,,,,59,0,59,0,1430.3107740000005,,,,,,,,,,,,,,,,,,,,,,,,,,,,,,,,,,,,,,,,,,,,,,,,,,,,,,,,,,Feuer,4.9535,1430.2959262000004,1430.2964966,1430.2966012000006,1430.3107740000005,1435.2771710000006,1435.261716,1435.2657132000004,1435.2771710000006,1435.2771710000006,1435.2771710000006,1435.2771710000006,1437.2616266000005,2,1.0983974000000671,0.22196879999955854,None,1437.2771991,1437.2771991,1437.2771991,1437.2771991,,,,,,,,,,,,,,,,,,,,,5848,1,2025-10-08_17h06.22.151,sm,2024.2.4,59.91292255845215,2025-10-08 17h06.39.724420 +0200,
60,0,60,,,,,,space,1.766113900000164,None,None,3,1.0115375999994285,0.36466120000022784,None,0,0,0,0,,,,,1,0,1,0,,,,,60,0,60,0,1437.2771991,,,,,,,,,,,,,,,,,,,,,,,,,,,,,,,,,,,,,,,,,,,,,,,,,,,,,,,,,,Nummer,2.2076,1437.2621383000005,1437.2626565,1437.2627634,1437.2771991,1439.4937915,1439.4780927000002,1439.4822366000008,1439.4937915,1439.4937915,1439.4937915,1439.4937915,1441.4778720000004,3,1.0115375999994285,0.36466120000022784,None,1441.4942791000003,1441.4942791000003,1441.4942791000003,1441.4942791000003,,,,,,,,,,,,,,,,,,,,,5848,1,2025-10-08_17h06.22.151,sm,2024.2.4,59.91292255845215,2025-10-08 17h06.39.724420 +0200,
61,0,61,,,,,,space,1.766113900000164,None,None,3,0.8279544000006354,0.19211429999995744,None,0,0,0,0,,,,,1,0,1,0,,,,,61,0,61,0,1441.4942791000003,,,,,,,,,,,,,,,,,,,,,,,,,,,,,,,,,,,,,,,,,,,,,,,,,,,,,,,,,,Tal,3.0728,1441.4783249000002,1441.4788093000006,1441.4789106000007,1441.4942791000003,1444.5766827000007,1444.5610544,1444.5640639000003,1444.5766827000007,1444.5766827000007,1444.5766827000007,1444.5766827000007,1446.5612366000005,3,0.8279544000006354,0.19211429999995744,None,1446.5768154000007,1446.5768154000007,1446.5768154000007,1446.5768154000007,,,,,,,,,,,,,,,,,,,,,5848,1,2025-10-08_17h06.22.151,sm,2024.2.4,59.91292255845215,2025-10-08 17h06.39.724420 +0200,
62,0,62,,,,,,space,1.766113900000164,None,None,2,0.8124096000001373,0.21499089999997523,None,0,0,0,0,,,,,1,0,1,0,,,,,62,0,62,0,1446.5768154000007,,,,,,,,,,,,,,,,,,,,,,,,,,,,,,,,,,,,,,,,,,,,,,,,,,,,,,,,,,Präsident,2.047,1446.5617532000006,1446.5622662000005,1446.5623713000004,1446.5768154000007,1448.6262294000007,1448.6107125000008,1448.6141588,1448.6262294000007,1448.6262294000007,1448.6262294000007,1448.6262294000007,1450.6108979,2,0.8124096000001373,0.21499089999997523,None,1450.6267484,1450.6267484,1450.6267484,1450.6267484,,,,,,,,,,,,,,,,,,,,,5848,1,2025-10-08_17h06.22.151,sm,2024.2.4,59.91292255845215,2025-10-08 17h06.39.724420 +0200,
63,0,63,,,,,,space,1.766113900000164,None,None,2,1.080140900000515,0.3018562999995993,None,0,0,0,0,,,,,1,0,1,0,,,,,63,0,63,0,1450.6267484,,,,,,,,,,,,,,,,,,,,,,,,,,,,,,,,,,,,,,,,,,,,,,,,,,,,,,,,,,Weltraum,2.0982,1450.6114178000007,1450.6119319,1450.6120388,1450.6267484,1452.7262559,1452.7112695000005,1452.7154739000007,1452.7262559,1452.7262559,1452.7262559,1452.7262559,1454.7107336,2,1.080140900000515,0.3018562999995993,None,1454.7264254000002,1454.7264254000002,1454.7264254000002,1454.7264254000002,,,,,,,,,,,,,,,,,,,,,5848,1,2025-10-08_17h06.22.151,sm,2024.2.4,59.91292255845215,2025-10-08 17h06.39.724420 +0200,
