thisN,thisTrialN,thisRepN,Cue,Target,Mediator1,Mediator2,iti,scanner_ready_press.keys,scanner_ready_press.rt,scanner_ready_press.duration,skip_trigger.keys,living_nonliving.keys,end_mapping.keys,living_nonliving.rt,living_nonliving.duration,blocks.thisRepN,blocks.thisTrialN,blocks.thisN,blocks.thisIndex,load_and_shuffle.thisRepN,load_and_shuffle.thisTrialN,load_and_shuffle.thisN,load_and_shuffle.thisIndex,runs.thisRepN,runs.thisTrialN,runs.thisN,runs.thisIndex,iti_loading_loop.thisRepN,iti_loading_loop.thisTrialN,iti_loading_loop.thisN,iti_loading_loop.thisIndex,semantic_mapping_run.thisRepN,semantic_mapping_run.thisTrialN,semantic_mapping_run.thisN,semantic_mapping_run.thisIndex,thisRow.t,notes,welcome.started,welcome_text.started,key_resp__welcome.started,welcome.stopped,key_resp__welcome.keys,key_resp__welcome.rt,key_resp__welcome.duration,scout.started,scout_text.started,key_resp.started,scout.stopped,key_resp.keys,key_resp.rt,key_resp.duration,instructions_semantic_mapping1.started,sm_instructions1_text.started,sm_instructions1_key.started,instructions_semantic_mapping1.stopped,sm_instructions1_key.keys,sm_instructions1_key.rt,sm_instructions1_key.duration,instructions_semantic_mapping2.started,sm_instructions2_text.started,sm_instructions2_key.started,instructions_semantic_mapping2.stopped,sm_instructions2_key.keys,sm_instructions2_key.rt,sm_instructions2_key.duration,reset_run.started,reset_run.stopped,shuffle_items.started,shuffle_items.stopped,set_up_runs.started,set_up_runs.stopped,load_iti.started,load_iti.stopped,prep_scanner.started,scanner_ready_press.started,ready_set_text.started,prep_scanner.stopped,runs.scanner_ready_press.keys,runs.scanner_ready_press.rt,runs.scanner_ready_press.duration,wait_for_trigger.started,starting_soon.started,skip_trigger.started,wait_for_trigger.stopped,runs.skip_trigger.keys,blank.started,begin_end_run_cross.started,sound_1.started,sound_1.stopped,sound_2.started,sound_2.stopped,blank.stopped,CurrentItem,CurrentITI,set_up_trial.started,set_up_trial.stopped,sm_iti.started,iti_cross.started,iti_cross.stopped,sm_iti.stopped,item.started,living_nonliving.started,end_mapping.started,living_nonliving_text.started,semantic_map_item.started,living_nonliving.stopped,end_mapping.stopped,living_nonliving_text.stopped,semantic_map_item.stopped,item.stopped,semantic_mapping_run.living_nonliving.keys,semantic_mapping_run.end_mapping.keys,semantic_mapping_run.living_nonliving.rt,semantic_mapping_run.living_nonliving.duration,fieldmap.started,fieldmap.stopped,runs.fm_key.keys,task_break.started,feeback_text.started,task_break_text.started,task_break_resp.started,feeback_text.stopped,task_break.stopped,runs.task_break_resp.keys,runs.task_break_resp.rt,runs.task_break_resp.duration,begin_end_run_cross.stopped,fm_text.started,fm_key.started,runs.fm_key.rt,runs.fm_key.duration,thanks.started,thanks_text.started,thanks_text.stopped,thanks.stopped,PID,MRI,date,expName,psychopyVersion,frameRate,expStart,
,,,,,,,,,,,,,,,,,,,,,,,,,,,,,,,,,,,,,,0.003657999999632011,0.0101329999997688,0.0101329999997688,4.631164700000227,space,4.61067230000026,None,,,,,,,,,,,,,,,,,,,,,,,,,,,,,,,,,,,,,,,,,,,,,,,,,,,,,,,,,,,,,,,,,,,,,,,,,,,,,,,,,,,,,,,,,,,,2594,1,2025-10-22_20h13.04.433,sm,2024.2.4,59.94003598780302,2025-10-22 20h13.17.369235 +0200,
,,,,,,,,,,,,,,,,,,,,,,,,,,,,,,,,,,,,,,,,,,,,,4.631280599999627,4.6401458000000275,4.6401458000000275,97.38661630000024,space,92.73209479999969,None,,,,,,,,,,,,,,,,,,,,,,,,,,,,,,,,,,,,,,,,,,,,,,,,,,,,,,,,,,,,,,,,,,,,,,,,,,,,,,,,,,,,,2594,1,2025-10-22_20h13.04.433,sm,2024.2.4,59.94003598780302,2025-10-22 20h13.17.369235 +0200,
,,,,,,,,,,,,,,,,,,,,,,,,,,,,,,,,,,,,,,,,,,,,,,,,,,,,97.38672700000006,97.4037145000002,97.4037145000002,112.70452079999995,3,15.296513199999936,None,,,,,,,,,,,,,,,,,,,,,,,,,,,,,,,,,,,,,,,,,,,,,,,,,,,,,,,,,,,,,,,,,,,,,,,,,,,,,,2594,1,2025-10-22_20h13.04.433,sm,2024.2.4,59.94003598780302,2025-10-22 20h13.17.369235 +0200,
,,,,,,,,,,,,,,,,,,,,,,,,,,,,,,,,,,,,,,,,,,,,,,,,,,,,,,,,,,,112.70464329999959,112.71906709999985,112.71906709999985,126.2200684999998,3,13.496365800000603,None,,,,,,,,,,,,,,,,,,,,,,,,,,,,,,,,,,,,,,,,,,,,,,,,,,,,,,,,,,,,,,,,,,,,,,,2594,1,2025-10-22_20h13.04.433,sm,2024.2.4,59.94003598780302,2025-10-22 20h13.17.369235 +0200,
0,0,0,Brise,Strand,Luft,Wind,2.9531,space,4.188636400000178,None,None,None,None,,,0,0,0,0,0,79,79,60,0,0,0,0,0,79,79,41,0,0,0,0,188.63143409999975,,,,,,,,,,,,,,,,,,,,,,,,,,,,,,126.22094519999973,126.22154890000002,126.28892040000028,126.28919119999955,126.29370269999981,126.29399000000012,126.32472789999974,126.32492589999947,126.33154599999943,126.33624830000008,126.33624830000008,130.53688839999995,space,4.188636400000178,None,130.53703700000005,130.5515402000001,130.5515402000001,176.60016929999983,None,176.60835270000007,176.6169245000001,176.61560276666685,177.82240579999961,186.61497916666693,187.62198499999977,188.61496660000012,Safari,2.9531,188.61633340000026,188.6171758999999,188.6203585000003,188.63143409999975,191.59793769999942,191.58224119999977,191.58664270000008,191.59793769999942,191.59793769999942,191.59793769999942,191.59793769999942,193.59821209999973,193.59821209999973,193.59821209999973,193.59821209999973,193.58225309999943,None,None,,,,,,,,,,,,,,,,,,,,,,,,2594,1,2025-10-22_20h13.04.433,sm,2024.2.4,59.94003598780302,2025-10-22 20h13.17.369235 +0200,
1,0,1,,,,,,space,4.188636400000178,None,None,2,None,1.3769421999995757,0.19005269999979646,0,0,0,0,,,,,0,0,0,0,,,,,1,0,1,0,193.59821209999973,,,,,,,,,,,,,,,,,,,,,,,,,,,,,,,,,,,,,,,,,,,,,,,,,,,,,,,,,Moor,3.4074,193.58273980000013,193.5832350999999,193.5833401,193.59821209999973,197.01409650000005,196.99847789999967,197.0016528999995,197.01409650000005,197.01409650000005,197.01409650000005,197.01409650000005,199.01408429999992,199.01408429999992,199.01408429999992,199.01408429999992,198.99854929999947,2,None,1.3769421999995757,0.19005269999979646,,,,,,,,,,,,,,,,,,,,,,2594,1,2025-10-22_20h13.04.433,sm,2024.2.4,59.94003598780302,2025-10-22 20h13.17.369235 +0200,
2,0,2,,,,,,space,4.188636400000178,None,None,3,None,1.0234204999997019,0.2519225000005463,0,0,0,0,,,,,0,0,0,0,,,,,2,0,2,0,199.01408429999992,,,,,,,,,,,,,,,,,,,,,,,,,,,,,,,,,,,,,,,,,,,,,,,,,,,,,,,,,Fahrrad,2.7951,198.99906139999985,198.99970829999984,198.99981019999996,199.01408429999992,201.81369449999966,201.7982224999996,201.80530269999963,201.81369449999966,201.81369449999966,201.81369449999966,201.81369449999966,203.8141786999995,203.8141786999995,203.8141786999995,203.8141786999995,203.79822909999984,3,None,1.0234204999997019,0.2519225000005463,,,,,,,,,,,,,,,,,,,,,,2594,1,2025-10-22_20h13.04.433,sm,2024.2.4,59.94003598780302,2025-10-22 20h13.17.369235 +0200,
3,0,3,,,,,,space,4.188636400000178,None,None,3,None,1.5485415000002831,0.23054700000011508,0,0,0,0,,,,,0,0,0,0,,,,,3,0,3,0,203.8141786999995,,,,,,,,,,,,,,,,,,,,,,,,,,,,,,,,,,,,,,,,,,,,,,,,,,,,,,,,,Klinge,5.7554,203.7987376000001,203.7992564999995,203.7993593000001,203.8141786999995,209.58023799999955,209.56467239999984,209.57082879999962,209.58023799999955,209.58023799999955,209.58023799999955,209.58023799999955,211.58019830000012,211.58019830000012,211.58019830000012,211.58019830000012,211.56476380000004,3,None,1.5485415000002831,0.23054700000011508,,,,,,,,,,,,,,,,,,,,,,2594,1,2025-10-22_20h13.04.433,sm,2024.2.4,59.94003598780302,2025-10-22 20h13.17.369235 +0200,
4,0,4,,,,,,space,4.188636400000178,None,None,3,None,1.3839250000000902,0.23146969999925204,0,0,0,0,,,,,0,0,0,0,,,,,4,0,4,0,211.58019830000012,,,,,,,,,,,,,,,,,,,,,,,,,,,,,,,,,,,,,,,,,,,,,,,,,,,,,,,,,Reise,4.1076,211.5652772000003,211.56579779999993,211.5659059999998,211.58019830000012,215.69656979999945,215.68101070000012,215.6851059999999,215.69656979999945,215.69656979999945,215.69656979999945,215.69656979999945,217.69670189999943,217.69670189999943,217.69670189999943,217.69670189999943,217.68083469999965,3,None,1.3839250000000902,0.23146969999925204,,,,,,,,,,,,,,,,,,,,,,2594,1,2025-10-22_20h13.04.433,sm,2024.2.4,59.94003598780302,2025-10-22 20h13.17.369235 +0200,
5,0,5,,,,,,space,4.188636400000178,None,None,3,None,1.0968249000006836,0.2094755999996778,0,0,0,0,,,,,0,0,0,0,,,,,5,0,5,0,217.69670189999943,,,,,,,,,,,,,,,,,,,,,,,,,,,,,,,,,,,,,,,,,,,,,,,,,,,,,,,,,Popcorn,4.464,217.68135170000005,217.6818671000001,217.68197080000027,217.69670189999943,222.1624382,222.14722040000015,222.15292359999967,222.1624382,222.1624382,222.1624382,222.1624382,224.16297740000027,224.16297740000027,224.16297740000027,224.16297740000027,224.14731549999942,3,None,1.0968249000006836,0.2094755999996778,,,,,,,,,,,,,,,,,,,,,,2594,1,2025-10-22_20h13.04.433,sm,2024.2.4,59.94003598780302,2025-10-22 20h13.17.369235 +0200,
6,0,6,,,,,,space,4.188636400000178,None,None,2,None,0.916379300000699,0.20245929999964574,0,0,0,0,,,,,0,0,0,0,,,,,6,0,6,0,224.16297740000027,,,,,,,,,,,,,,,,,,,,,,,,,,,,,,,,,,,,,,,,,,,,,,,,,,,,,,,,,Vampir,4.5113,224.1478232999998,224.14832800000022,224.1484303999996,224.16297740000027,228.67905340000016,228.66330490000018,228.6666022999998,228.67905340000016,228.67905340000016,228.67905340000016,228.67905340000016,230.6790877000003,230.6790877000003,230.6790877000003,230.6790877000003,230.66387940000004,2,None,0.916379300000699,0.20245929999964574,,,,,,,,,,,,,,,,,,,,,,2594,1,2025-10-22_20h13.04.433,sm,2024.2.4,59.94003598780302,2025-10-22 20h13.17.369235 +0200,
7,0,7,,,,,,space,4.188636400000178,None,None,2,None,1.1930879999999888,0.21874579999985144,0,0,0,0,,,,,0,0,0,0,,,,,7,0,7,0,230.6790877000003,,,,,,,,,,,,,,,,,,,,,,,,,,,,,,,,,,,,,,,,,,,,,,,,,,,,,,,,,Eltern,3.8743,230.66441699999996,230.66496279999956,230.6650783999994,230.6790877000003,234.5618489999997,234.54672159999973,234.55044449999968,234.5618489999997,234.5618489999997,234.5618489999997,234.5618489999997,236.5621261999995,236.5621261999995,236.5621261999995,236.5621261999995,236.54646169999978,2,None,1.1930879999999888,0.21874579999985144,,,,,,,,,,,,,,,,,,,,,,2594,1,2025-10-22_20h13.04.433,sm,2024.2.4,59.94003598780302,2025-10-22 20h13.17.369235 +0200,
8,0,8,,,,,,space,4.188636400000178,None,None,2,None,1.404424199999994,0.19512350000059087,0,0,0,0,,,,,0,0,0,0,,,,,8,0,8,0,236.5621261999995,,,,,,,,,,,,,,,,,,,,,,,,,,,,,,,,,,,,,,,,,,,,,,,,,,,,,,,,,Blumen,2.5125,236.54696849999982,236.5475422999998,236.54764629999954,236.5621261999995,239.07845910000015,239.06275389999973,239.06728070000008,239.07845910000015,239.07845910000015,239.07845910000015,239.07845910000015,241.07849239999996,241.07849239999996,241.07849239999996,241.07849239999996,241.0629527000001,2,None,1.404424199999994,0.19512350000059087,,,,,,,,,,,,,,,,,,,,,,2594,1,2025-10-22_20h13.04.433,sm,2024.2.4,59.94003598780302,2025-10-22 20h13.17.369235 +0200,
9,0,9,,,,,,space,4.188636400000178,None,None,3,None,0.9364502999997057,0.2354936000001544,0,0,0,0,,,,,0,0,0,0,,,,,9,0,9,0,241.07849239999996,,,,,,,,,,,,,,,,,,,,,,,,,,,,,,,,,,,,,,,,,,,,,,,,,,,,,,,,,Waschbecken,2.5683,241.06345629999942,241.0639957000003,241.06410510000023,241.07849239999996,243.6614437999997,243.64615869999943,243.65019519999987,243.6614437999997,243.6614437999997,243.6614437999997,243.6614437999997,245.6614940999998,245.6614940999998,245.6614940999998,245.6614940999998,245.64585110000007,3,None,0.9364502999997057,0.2354936000001544,,,,,,,,,,,,,,,,,,,,,,2594,1,2025-10-22_20h13.04.433,sm,2024.2.4,59.94003598780302,2025-10-22 20h13.17.369235 +0200,
10,0,10,,,,,,space,4.188636400000178,None,None,3,None,1.0859940999998798,0.2643894000002547,0,0,0,0,,,,,0,0,0,0,,,,,10,0,10,0,245.6614940999998,,,,,,,,,,,,,,,,,,,,,,,,,,,,,,,,,,,,,,,,,,,,,,,,,,,,,,,,,Hose,2.5942,245.64635869999984,245.64700319999974,245.6471088999997,245.6614940999998,248.26117669999985,248.24548559999948,248.2511843000002,248.26117669999985,248.26117669999985,248.26117669999985,248.26117669999985,250.26127019999967,250.26127019999967,250.26127019999967,250.26127019999967,250.24604290000025,3,None,1.0859940999998798,0.2643894000002547,,,,,,,,,,,,,,,,,,,,,,2594,1,2025-10-22_20h13.04.433,sm,2024.2.4,59.94003598780302,2025-10-22 20h13.17.369235 +0200,
11,0,11,,,,,,space,4.188636400000178,None,None,2,None,1.1545455999994374,0.22170530000039435,0,0,0,0,,,,,0,0,0,0,,,,,11,0,11,0,250.26127019999967,,,,,,,,,,,,,,,,,,,,,,,,,,,,,,,,,,,,,,,,,,,,,,,,,,,,,,,,,Klee,2.7206,250.24663059999966,250.24729579999985,250.24740539999948,250.26127019999967,252.9944633999994,252.9786667999997,252.98233009999967,252.9944633999994,252.9944633999994,252.9944633999994,252.9944633999994,254.99431039999945,254.99431039999945,254.99431039999945,254.99431039999945,254.97866429999976,2,None,1.1545455999994374,0.22170530000039435,,,,,,,,,,,,,,,,,,,,,,2594,1,2025-10-22_20h13.04.433,sm,2024.2.4,59.94003598780302,2025-10-22 20h13.17.369235 +0200,
12,0,12,,,,,,space,4.188636400000178,None,None,2,None,1.0741812000005666,0.2154495999993742,0,0,0,0,,,,,0,0,0,0,,,,,12,0,12,0,254.99431039999945,,,,,,,,,,,,,,,,,,,,,,,,,,,,,,,,,,,,,,,,,,,,,,,,,,,,,,,,,Spinne,3.0512,254.97917849999976,254.97968880000008,254.97979179999948,254.99431039999945,258.06090399999994,258.04526499999974,258.0492981999996,258.06090399999994,258.06090399999994,258.06090399999994,258.06090399999994,260.06067110000004,260.06067110000004,260.06067110000004,260.06067110000004,260.0454426999995,2,None,1.0741812000005666,0.2154495999993742,,,,,,,,,,,,,,,,,,,,,,2594,1,2025-10-22_20h13.04.433,sm,2024.2.4,59.94003598780302,2025-10-22 20h13.17.369235 +0200,
13,0,13,,,,,,space,4.188636400000178,None,None,3,None,1.2593996999994488,0.22348170000077516,0,0,0,0,,,,,0,0,0,0,,,,,13,0,13,0,260.06067110000004,,,,,,,,,,,,,,,,,,,,,,,,,,,,,,,,,,,,,,,,,,,,,,,,,,,,,,,,,Ostern,3.7332,260.04596479999964,260.0465137000001,260.0466249000001,260.06067110000004,263.7939262,263.7781667999998,263.7839015999998,263.7939262,263.7939262,263.7939262,263.7939262,265.79372369999965,265.79372369999965,265.79372369999965,265.79372369999965,265.7779101999995,3,None,1.2593996999994488,0.22348170000077516,,,,,,,,,,,,,,,,,,,,,,2594,1,2025-10-22_20h13.04.433,sm,2024.2.4,59.94003598780302,2025-10-22 20h13.17.369235 +0200,
14,0,14,,,,,,space,4.188636400000178,None,None,3,None,1.2153041000001394,0.21971599999960745,0,0,0,0,,,,,0,0,0,0,,,,,14,0,14,0,265.79372369999965,,,,,,,,,,,,,,,,,,,,,,,,,,,,,,,,,,,,,,,,,,,,,,,,,,,,,,,,,Zigarette,2.1524,265.7784208000003,265.7790570999996,265.77916060000007,265.79372369999965,267.9598888999999,267.94447690000015,267.9525090999996,267.9598888999999,267.9598888999999,267.9598888999999,267.9598888999999,269.96005779999996,269.96005779999996,269.96005779999996,269.96005779999996,269.9444132999997,3,None,1.2153041000001394,0.21971599999960745,,,,,,,,,,,,,,,,,,,,,,2594,1,2025-10-22_20h13.04.433,sm,2024.2.4,59.94003598780302,2025-10-22 20h13.17.369235 +0200,
15,0,15,,,,,,space,4.188636400000178,None,None,2,None,1.3848971999996138,0.19335120000050665,0,0,0,0,,,,,0,0,0,0,,,,,15,0,15,0,269.96005779999996,,,,,,,,,,,,,,,,,,,,,,,,,,,,,,,,,,,,,,,,,,,,,,,,,,,,,,,,,Lachen,2.1199,269.9449169999998,269.94568770000024,269.9458007000003,269.96005779999996,272.09339050000017,272.07751499999995,272.0816471999997,272.09339050000017,272.09339050000017,272.09339050000017,272.09339050000017,274.09367099999963,274.09367099999963,274.09367099999963,274.09367099999963,274.0774620000002,2,None,1.3848971999996138,0.19335120000050665,,,,,,,,,,,,,,,,,,,,,,2594,1,2025-10-22_20h13.04.433,sm,2024.2.4,59.94003598780302,2025-10-22 20h13.17.369235 +0200,
16,0,16,,,,,,space,4.188636400000178,None,None,2,None,0.9980970000005982,0.2058811999995669,0,0,0,0,,,,,0,0,0,0,,,,,16,0,16,0,274.09367099999963,,,,,,,,,,,,,,,,,,,,,,,,,,,,,,,,,,,,,,,,,,,,,,,,,,,,,,,,,Publikum,3.3397,274.07797609999943,274.0785090999998,274.07861479999974,274.09367099999963,277.44293389999984,277.4273693999994,277.4312425999997,277.44293389999984,277.44293389999984,277.44293389999984,277.44293389999984,279.4428170000001,279.4428170000001,279.4428170000001,279.4428170000001,279.42718270000023,2,None,0.9980970000005982,0.2058811999995669,,,,,,,,,,,,,,,,,,,,,,2594,1,2025-10-22_20h13.04.433,sm,2024.2.4,59.94003598780302,2025-10-22 20h13.17.369235 +0200,
17,0,17,,,,,,space,4.188636400000178,None,None,2,None,1.265204399999675,0.20765620000020135,0,0,0,0,,,,,0,0,0,0,,,,,17,0,17,0,279.4428170000001,,,,,,,,,,,,,,,,,,,,,,,,,,,,,,,,,,,,,,,,,,,,,,,,,,,,,,,,,Arm,2.2686,279.4276953999997,279.42819280000003,279.42829879999954,279.4428170000001,281.7261344999997,281.7103053999999,281.71423719999984,281.7261344999997,281.7261344999997,281.7261344999997,281.7261344999997,283.72641829999975,283.72641829999975,283.72641829999975,283.72641829999975,283.71047199999975,2,None,1.265204399999675,0.20765620000020135,,,,,,,,,,,,,,,,,,,,,,2594,1,2025-10-22_20h13.04.433,sm,2024.2.4,59.94003598780302,2025-10-22 20h13.17.369235 +0200,
18,0,18,,,,,,space,4.188636400000178,None,None,2,None,1.4803921000002447,0.19805520000045362,0,0,0,0,,,,,0,0,0,0,,,,,18,0,18,0,283.72641829999975,,,,,,,,,,,,,,,,,,,,,,,,,,,,,,,,,,,,,,,,,,,,,,,,,,,,,,,,,Sturm,3.5874,283.7109862999996,283.71149979999973,283.7116011999997,283.72641829999975,287.32563459999983,287.30998,287.31383689999984,287.32563459999983,287.32563459999983,287.32563459999983,287.32563459999983,289.32572549999986,289.32572549999986,289.32572549999986,289.32572549999986,289.309878,2,None,1.4803921000002447,0.19805520000045362,,,,,,,,,,,,,,,,,,,,,,2594,1,2025-10-22_20h13.04.433,sm,2024.2.4,59.94003598780302,2025-10-22 20h13.17.369235 +0200,
19,0,19,,,,,,space,4.188636400000178,None,None,3,None,1.046732100000554,0.24157289999948262,0,0,0,0,,,,,0,0,0,0,,,,,19,0,19,0,289.32572549999986,,,,,,,,,,,,,,,,,,,,,,,,,,,,,,,,,,,,,,,,,,,,,,,,,,,,,,,,,Vers,2.598,289.31038160000026,289.3110252999995,289.31112829999984,289.32572549999986,291.9252612,291.9098616000001,291.9128995000001,291.9252612,291.9252612,291.9252612,291.9252612,293.9257714999994,293.9257714999994,293.9257714999994,293.9257714999994,293.9099177999997,3,None,1.046732100000554,0.24157289999948262,,,,,,,,,,,,,,,,,,,,,,2594,1,2025-10-22_20h13.04.433,sm,2024.2.4,59.94003598780302,2025-10-22 20h13.17.369235 +0200,
20,0,20,,,,,,space,4.188636400000178,None,None,3,None,0.694404000000759,0.22315299999991112,0,0,0,0,,,,,0,0,0,0,,,,,20,0,20,0,293.9257714999994,,,,,,,,,,,,,,,,,,,,,,,,,,,,,,,,,,,,,,,,,,,,,,,,,,,,,,,,,Teller,3.5453,293.91042670000024,293.9109406999996,293.9110447000003,293.9257714999994,297.47523679999995,297.4594651999996,297.46442169999955,297.47523679999995,297.47523679999995,297.47523679999995,297.47523679999995,299.4751458999999,299.4751458999999,299.4751458999999,299.4751458999999,299.4595211999995,3,None,0.694404000000759,0.22315299999991112,,,,,,,,,,,,,,,,,,,,,,2594,1,2025-10-22_20h13.04.433,sm,2024.2.4,59.94003598780302,2025-10-22 20h13.17.369235 +0200,
21,0,21,,,,,,space,4.188636400000178,None,None,3,None,1.3928122999996049,0.24119010000049457,0,0,0,0,,,,,0,0,0,0,,,,,21,0,21,0,299.4751458999999,,,,,,,,,,,,,,,,,,,,,,,,,,,,,,,,,,,,,,,,,,,,,,,,,,,,,,,,,Lernen,2.0223,299.46003740000015,299.4605431,299.46064620000016,299.4751458999999,301.5081694999999,301.49258289999943,301.4967158999998,301.5081694999999,301.5081694999999,301.5081694999999,301.5081694999999,303.50828209999963,303.50828209999963,303.50828209999963,303.50828209999963,303.4926427999999,3,None,1.3928122999996049,0.24119010000049457,,,,,,,,,,,,,,,,,,,,,,2594,1,2025-10-22_20h13.04.433,sm,2024.2.4,59.94003598780302,2025-10-22 20h13.17.369235 +0200,
22,0,22,,,,,,space,4.188636400000178,None,None,2,None,1.1411304000002929,0.2018770000004224,0,0,0,0,,,,,0,0,0,0,,,,,22,0,22,0,303.50828209999963,,,,,,,,,,,,,,,,,,,,,,,,,,,,,,,,,,,,,,,,,,,,,,,,,,,,,,,,,Olympia,2.4458,303.4931494000002,303.49378929999966,303.49389079999946,303.50828209999963,305.9578888999995,305.94219819999944,305.9488515000003,305.9578888999995,305.9578888999995,305.9578888999995,305.9578888999995,307.9578376999998,307.9578376999998,307.9578376999998,307.9578376999998,307.9425768000001,2,None,1.1411304000002929,0.2018770000004224,,,,,,,,,,,,,,,,,,,,,,2594,1,2025-10-22_20h13.04.433,sm,2024.2.4,59.94003598780302,2025-10-22 20h13.17.369235 +0200,
23,0,23,,,,,,space,4.188636400000178,None,None,3,None,0.9631247999996049,0.2265493000004426,0,0,0,0,,,,,0,0,0,0,,,,,23,0,23,0,307.9578376999998,,,,,,,,,,,,,,,,,,,,,,,,,,,,,,,,,,,,,,,,,,,,,,,,,,,,,,,,,Kaffee,5.2747,307.9430837,307.94363069999963,307.9437347000003,307.9578376999998,313.2407728999997,313.2253012000001,313.2292464000002,313.2407728999997,313.2407728999997,313.2407728999997,313.2407728999997,315.24094309999964,315.24094309999964,315.24094309999964,315.24094309999964,315.22541920000003,3,None,0.9631247999996049,0.2265493000004426,,,,,,,,,,,,,,,,,,,,,,2594,1,2025-10-22_20h13.04.433,sm,2024.2.4,59.94003598780302,2025-10-22 20h13.17.369235 +0200,
24,0,24,,,,,,space,4.188636400000178,None,None,3,None,1.5229730999999447,0.2203730999999607,0,0,0,0,,,,,0,0,0,0,,,,,24,0,24,0,315.24094309999964,,,,,,,,,,,,,,,,,,,,,,,,,,,,,,,,,,,,,,,,,,,,,,,,,,,,,,,,,Scheidung,2.9266,315.2259723999996,315.2264882999998,315.22659569999996,315.24094309999964,318.1740410000002,318.15845290000016,318.1622218000002,318.1740410000002,318.1740410000002,318.1740410000002,318.1740410000002,320.17435769999975,320.17435769999975,320.17435769999975,320.17435769999975,320.15824950000024,3,None,1.5229730999999447,0.2203730999999607,,,,,,,,,,,,,,,,,,,,,,2594,1,2025-10-22_20h13.04.433,sm,2024.2.4,59.94003598780302,2025-10-22 20h13.17.369235 +0200,
25,0,25,,,,,,space,4.188636400000178,None,None,2,None,1.029265199999827,0.20103689999996277,0,0,0,0,,,,,0,0,0,0,,,,,25,0,25,0,320.17435769999975,,,,,,,,,,,,,,,,,,,,,,,,,,,,,,,,,,,,,,,,,,,,,,,,,,,,,,,,,Akrobatin,3.1813,320.15875849999975,320.15925609999977,320.15936319999946,320.17435769999975,323.3569017,323.34113309999975,323.3450063,323.3569017,323.3569017,323.3569017,323.3569017,325.3568107000001,325.3568107000001,325.3568107000001,325.3568107000001,325.3413058999995,2,None,1.029265199999827,0.20103689999996277,,,,,,,,,,,,,,,,,,,,,,2594,1,2025-10-22_20h13.04.433,sm,2024.2.4,59.94003598780302,2025-10-22 20h13.17.369235 +0200,
26,0,26,,,,,,space,4.188636400000178,None,None,2,None,1.5662140999993426,0.19849880000037956,0,0,0,0,,,,,0,0,0,0,,,,,26,0,26,0,325.3568107000001,,,,,,,,,,,,,,,,,,,,,,,,,,,,,,,,,,,,,,,,,,,,,,,,,,,,,,,,,Gegenwart,2.0257,325.34181609999996,325.34232900000006,325.34243330000027,325.3568107000001,327.39000599999963,327.37434810000013,327.3793147999995,327.39000599999963,327.39000599999963,327.39000599999963,327.39000599999963,329.3900622000001,329.3900622000001,329.3900622000001,329.3900622000001,329.3743714000002,2,None,1.5662140999993426,0.19849880000037956,,,,,,,,,,,,,,,,,,,,,,2594,1,2025-10-22_20h13.04.433,sm,2024.2.4,59.94003598780302,2025-10-22 20h13.17.369235 +0200,
27,0,27,,,,,,space,4.188636400000178,None,None,3,None,1.3437104000004183,0.25174429999970016,0,0,0,0,,,,,0,0,0,0,,,,,27,0,27,0,329.3900622000001,,,,,,,,,,,,,,,,,,,,,,,,,,,,,,,,,,,,,,,,,,,,,,,,,,,,,,,,,Soße,2.3307,329.37488909999956,329.3753969999998,329.3755013,329.3900622000001,331.72359009999946,331.70746599999984,331.7111256999997,331.72359009999946,331.72359009999946,331.72359009999946,331.72359009999946,333.7233662999997,333.7233662999997,333.7233662999997,333.7233662999997,333.70781650000026,3,None,1.3437104000004183,0.25174429999970016,,,,,,,,,,,,,,,,,,,,,,2594,1,2025-10-22_20h13.04.433,sm,2024.2.4,59.94003598780302,2025-10-22 20h13.17.369235 +0200,
28,0,28,,,,,,space,4.188636400000178,None,None,3,None,1.2449083000001337,0.2673430000004373,0,0,0,0,,,,,0,0,0,0,,,,,28,0,28,0,333.7233662999997,,,,,,,,,,,,,,,,,,,,,,,,,,,,,,,,,,,,,,,,,,,,,,,,,,,,,,,,,Schnürsenkel,2.6121,333.70835029999944,333.7088910000002,333.7090026999995,333.7233662999997,336.3394346999994,336.32385710000017,336.3283636999995,336.3394346999994,336.3394346999994,336.3394346999994,336.3394346999994,338.3397092999994,338.3397092999994,338.3397092999994,338.3397092999994,338.3239311999996,3,None,1.2449083000001337,0.2673430000004373,,,,,,,,,,,,,,,,,,,,,,2594,1,2025-10-22_20h13.04.433,sm,2024.2.4,59.94003598780302,2025-10-22 20h13.17.369235 +0200,
29,0,29,,,,,,space,4.188636400000178,None,None,3,None,1.3032227000003331,0.20110599999952683,0,0,0,0,,,,,0,0,0,0,,,,,29,0,29,0,338.3397092999994,,,,,,,,,,,,,,,,,,,,,,,,,,,,,,,,,,,,,,,,,,,,,,,,,,,,,,,,,Zeitung,4.4328,338.3244396,338.32495610000024,338.3250610999994,338.3397092999994,342.7724306,342.75698099999954,342.7611181000002,342.7724306,342.7724306,342.7724306,342.7724306,344.7724398999999,344.7724398999999,344.7724398999999,344.7724398999999,344.7568216999998,3,None,1.3032227000003331,0.20110599999952683,,,,,,,,,,,,,,,,,,,,,,2594,1,2025-10-22_20h13.04.433,sm,2024.2.4,59.94003598780302,2025-10-22 20h13.17.369235 +0200,
30,0,30,,,,,,space,4.188636400000178,None,None,3,None,1.2817274999997608,0.24628589999974793,0,0,0,0,,,,,0,0,0,0,,,,,30,0,30,0,344.7724398999999,,,,,,,,,,,,,,,,,,,,,,,,,,,,,,,,,,,,,,,,,,,,,,,,,,,,,,,,,Wissen,2.3475,344.7573196000003,344.75781449999977,344.7579190999995,344.7724398999999,347.12208329999976,347.1065600000002,347.11030609999943,347.12208329999976,347.12208329999976,347.12208329999976,347.12208329999976,349.12219579999964,349.12219579999964,349.12219579999964,349.12219579999964,349.10656759999983,3,None,1.2817274999997608,0.24628589999974793,,,,,,,,,,,,,,,,,,,,,,2594,1,2025-10-22_20h13.04.433,sm,2024.2.4,59.94003598780302,2025-10-22 20h13.17.369235 +0200,
31,0,31,,,,,,space,4.188636400000178,None,None,3,None,0.7115223999999216,0.22093170000061946,0,0,0,0,,,,,0,0,0,0,,,,,31,0,31,0,349.12219579999964,,,,,,,,,,,,,,,,,,,,,,,,,,,,,,,,,,,,,,,,,,,,,,,,,,,,,,,,,Geschäft,2.0594,349.10706889999983,349.1077091999996,349.1078133000001,349.12219579999964,351.1885764999997,351.17321249999986,351.1772275000003,351.1885764999997,351.1885764999997,351.1885764999997,351.1885764999997,353.18871579999995,353.18871579999995,353.18871579999995,353.18871579999995,353.17307019999953,3,None,0.7115223999999216,0.22093170000061946,,,,,,,,,,,,,,,,,,,,,,2594,1,2025-10-22_20h13.04.433,sm,2024.2.4,59.94003598780302,2025-10-22 20h13.17.369235 +0200,
32,0,32,,,,,,space,4.188636400000178,None,None,2,None,0.8838911000002554,0.19774490000054357,0,0,0,0,,,,,0,0,0,0,,,,,32,0,32,0,353.18871579999995,,,,,,,,,,,,,,,,,,,,,,,,,,,,,,,,,,,,,,,,,,,,,,,,,,,,,,,,,Eule,2.3454,353.17358890000014,353.1741000000002,353.1742052999998,353.18871579999995,355.5383634,355.52349799999956,355.5274354000003,355.5383634,355.5383634,355.5383634,355.5383634,357.53846350000003,357.53846350000003,357.53846350000003,357.53846350000003,357.5229731999998,2,None,0.8838911000002554,0.19774490000054357,,,,,,,,,,,,,,,,,,,,,,2594,1,2025-10-22_20h13.04.433,sm,2024.2.4,59.94003598780302,2025-10-22 20h13.17.369235 +0200,
33,0,33,,,,,,space,4.188636400000178,None,None,2,None,1.3114009999999325,0.22634859999925538,0,0,0,0,,,,,0,0,0,0,,,,,33,0,33,0,357.53846350000003,,,,,,,,,,,,,,,,,,,,,,,,,,,,,,,,,,,,,,,,,,,,,,,,,,,,,,,,,Tanz,3.173,357.5234819999996,357.5239978999998,357.52409979999993,357.53846350000003,360.7213971000001,360.7056670000002,360.70908640000016,360.7213971000001,360.7213971000001,360.7213971000001,360.7213971000001,362.7218146999994,362.7218146999994,362.7218146999994,362.7218146999994,362.70580809999956,2,None,1.3114009999999325,0.22634859999925538,,,,,,,,,,,,,,,,,,,,,,2594,1,2025-10-22_20h13.04.433,sm,2024.2.4,59.94003598780302,2025-10-22 20h13.17.369235 +0200,
34,0,34,,,,,,space,4.188636400000178,None,None,3,None,0.9900995999996667,0.23435779999999795,0,0,0,0,,,,,0,0,0,0,,,,,34,0,34,0,362.7218146999994,,,,,,,,,,,,,,,,,,,,,,,,,,,,,,,,,,,,,,,,,,,,,,,,,,,,,,,,,Schnorchel,2.0612,362.7063127000001,362.70692510000026,362.70702679999977,362.7218146999994,364.7880704999998,364.77248729999974,364.7771408999997,364.7880704999998,364.7880704999998,364.7880704999998,364.7880704999998,366.7879445999997,366.7879445999997,366.7879445999997,366.7879445999997,366.7723718999996,3,None,0.9900995999996667,0.23435779999999795,,,,,,,,,,,,,,,,,,,,,,2594,1,2025-10-22_20h13.04.433,sm,2024.2.4,59.94003598780302,2025-10-22 20h13.17.369235 +0200,
35,0,35,,,,,,space,4.188636400000178,None,None,3,None,0.683537000000797,0.24333419999948092,0,0,0,0,,,,,0,0,0,0,,,,,35,0,35,0,366.7879445999997,,,,,,,,,,,,,,,,,,,,,,,,,,,,,,,,,,,,,,,,,,,,,,,,,,,,,,,,,Bus,2.1083,366.77288469999985,366.7734838999995,366.7735872000003,366.7879445999997,368.90439289999995,368.8889202999999,368.8925287000002,368.90439289999995,368.90439289999995,368.90439289999995,368.90439289999995,370.9042970999999,370.9042970999999,370.9042970999999,370.9042970999999,370.88888059999954,3,None,0.683537000000797,0.24333419999948092,,,,,,,,,,,,,,,,,,,,,,2594,1,2025-10-22_20h13.04.433,sm,2024.2.4,59.94003598780302,2025-10-22 20h13.17.369235 +0200,
36,0,36,,,,,,space,4.188636400000178,None,None,3,None,1.4199423999998544,0.2512661000000662,0,0,0,0,,,,,0,0,0,0,,,,,36,0,36,0,370.9042970999999,,,,,,,,,,,,,,,,,,,,,,,,,,,,,,,,,,,,,,,,,,,,,,,,,,,,,,,,,Himmel,2.0009,370.8893954999994,370.8900451999998,370.89014940000015,370.9042970999999,372.9038185999998,372.88865689999966,372.8922824000001,372.9038185999998,372.9038185999998,372.9038185999998,372.9038185999998,374.9041953999995,374.9041953999995,374.9041953999995,374.9041953999995,374.88838940000005,3,None,1.4199423999998544,0.2512661000000662,,,,,,,,,,,,,,,,,,,,,,2594,1,2025-10-22_20h13.04.433,sm,2024.2.4,59.94003598780302,2025-10-22 20h13.17.369235 +0200,
37,0,37,,,,,,space,4.188636400000178,None,None,3,None,1.565852900000209,0.2343725999999151,0,0,0,0,,,,,0,0,0,0,,,,,37,0,37,0,374.9041953999995,,,,,,,,,,,,,,,,,,,,,,,,,,,,,,,,,,,,,,,,,,,,,,,,,,,,,,,,,Kunst,3.5485,374.88889109999946,374.88953609999953,374.88963929999954,374.9041953999995,378.45359459999963,378.4383521,378.4423133,378.45359459999963,378.45359459999963,378.45359459999963,378.45359459999963,380.4537548999997,380.4537548999997,380.4537548999997,380.4537548999997,380.4383318,3,None,1.565852900000209,0.2343725999999151,,,,,,,,,,,,,,,,,,,,,,2594,1,2025-10-22_20h13.04.433,sm,2024.2.4,59.94003598780302,2025-10-22 20h13.17.369235 +0200,
38,0,38,,,,,,space,4.188636400000178,None,None,2,None,1.1745384999994712,0.19328370000039286,0,0,0,0,,,,,0,0,0,0,,,,,38,0,38,0,380.4537548999997,,,,,,,,,,,,,,,,,,,,,,,,,,,,,,,,,,,,,,,,,,,,,,,,,,,,,,,,,Mund,2.7817,380.43885320000027,380.4395278000002,380.43963859999985,380.4537548999997,383.2367542000002,383.22155909999947,383.2252864000002,383.2367542000002,383.2367542000002,383.2367542000002,383.2367542000002,385.23698520000016,385.23698520000016,385.23698520000016,385.23698520000016,385.2212276,2,None,1.1745384999994712,0.19328370000039286,,,,,,,,,,,,,,,,,,,,,,2594,1,2025-10-22_20h13.04.433,sm,2024.2.4,59.94003598780302,2025-10-22 20h13.17.369235 +0200,
39,0,39,,,,,,space,4.188636400000178,None,None,3,None,0.9970923000000766,0.22882699999991019,0,0,0,0,,,,,0,0,0,0,,,,,39,0,39,0,385.23698520000016,,,,,,,,,,,,,,,,,,,,,,,,,,,,,,,,,,,,,,,,,,,,,,,,,,,,,,,,,Schloss,2.0739,385.2217404000003,385.2223871999995,385.22249009999996,385.23698520000016,387.3200191999995,387.30435299999954,387.3091760999996,387.3200191999995,387.3200191999995,387.3200191999995,387.3200191999995,389.31991070000004,389.31991070000004,389.31991070000004,389.31991070000004,389.30432519999977,3,None,0.9970923000000766,0.22882699999991019,,,,,,,,,,,,,,,,,,,,,,2594,1,2025-10-22_20h13.04.433,sm,2024.2.4,59.94003598780302,2025-10-22 20h13.17.369235 +0200,
40,0,40,,,,,,space,4.188636400000178,None,None,3,None,1.1298452999999427,0.23885429999972985,0,0,0,0,,,,,0,0,0,0,,,,,40,0,40,0,389.31991070000004,,,,,,,,,,,,,,,,,,,,,,,,,,,,,,,,,,,,,,,,,,,,,,,,,,,,,,,,,Bild,5.7464,389.304838,389.3053447000002,389.30544800000007,389.31991070000004,395.06947690000015,395.05405679999967,395.0575695999996,395.06947690000015,395.06947690000015,395.06947690000015,395.06947690000015,397.06941279999955,397.06941279999955,397.06941279999955,397.06941279999955,397.0537303000001,3,None,1.1298452999999427,0.23885429999972985,,,,,,,,,,,,,,,,,,,,,,2594,1,2025-10-22_20h13.04.433,sm,2024.2.4,59.94003598780302,2025-10-22 20h13.17.369235 +0200,
41,0,41,,,,,,space,4.188636400000178,None,None,3,None,1.049687100000483,0.24889209999946615,0,0,0,0,,,,,0,0,0,0,,,,,41,0,41,0,397.06941279999955,,,,,,,,,,,,,,,,,,,,,,,,,,,,,,,,,,,,,,,,,,,,,,,,,,,,,,,,,Sauber,3.3316,397.0542180000002,397.05480519999946,397.05490180000015,397.06941279999955,400.4026097999995,400.3868937999996,400.3908451999996,400.4026097999995,400.4026097999995,400.4026097999995,400.4026097999995,402.40294709999944,402.40294709999944,402.40294709999944,402.40294709999944,402.38680229999954,3,None,1.049687100000483,0.24889209999946615,,,,,,,,,,,,,,,,,,,,,,2594,1,2025-10-22_20h13.04.433,sm,2024.2.4,59.94003598780302,2025-10-22 20h13.17.369235 +0200,
42,0,42,,,,,,space,4.188636400000178,None,None,3,None,1.2113448000000062,0.2191314000001512,0,0,0,0,,,,,0,0,0,0,,,,,42,0,42,0,402.40294709999944,,,,,,,,,,,,,,,,,,,,,,,,,,,,,,,,,,,,,,,,,,,,,,,,,,,,,,,,,Statue,2.7327,402.3872328999996,402.3876934,402.3877812999999,402.40294709999944,405.1353487999995,405.1199141999996,405.12406629999987,405.1353487999995,405.1353487999995,405.1353487999995,405.1353487999995,407.1354784999994,407.1354784999994,407.1354784999994,407.1354784999994,407.1200024999998,3,None,1.2113448000000062,0.2191314000001512,,,,,,,,,,,,,,,,,,,,,,2594,1,2025-10-22_20h13.04.433,sm,2024.2.4,59.94003598780302,2025-10-22 20h13.17.369235 +0200,
43,0,43,,,,,,space,4.188636400000178,None,None,3,None,1.3923071999997774,0.208212900000035,0,0,0,0,,,,,0,0,0,0,,,,,43,0,43,0,407.1354784999994,,,,,,,,,,,,,,,,,,,,,,,,,,,,,,,,,,,,,,,,,,,,,,,,,,,,,,,,,Nummer,2.0838,407.1205061999999,407.1211545999995,407.1212575999998,407.1354784999994,409.2184090999999,409.20311200000015,409.2065542,409.2184090999999,409.2184090999999,409.2184090999999,409.2184090999999,411.2186872000002,411.2186872000002,411.2186872000002,411.2186872000002,411.2030771,3,None,1.3923071999997774,0.208212900000035,,,,,,,,,,,,,,,,,,,,,,2594,1,2025-10-22_20h13.04.433,sm,2024.2.4,59.94003598780302,2025-10-22 20h13.17.369235 +0200,
44,0,44,,,,,,space,4.188636400000178,None,None,2,None,1.3297530999998344,0.1958411999994496,0,0,0,0,,,,,0,0,0,0,,,,,44,0,44,0,411.2186872000002,,,,,,,,,,,,,,,,,,,,,,,,,,,,,,,,,,,,,,,,,,,,,,,,,,,,,,,,,Apfel,3.2565,411.20359029999963,411.20423329999994,411.20433929999945,411.2186872000002,414.4852159000002,414.46935179999946,414.47297720000006,414.4852159000002,414.4852159000002,414.4852159000002,414.4852159000002,416.48540200000025,416.48540200000025,416.48540200000025,416.48540200000025,416.4695493999998,2,None,1.3297530999998344,0.1958411999994496,,,,,,,,,,,,,,,,,,,,,,2594,1,2025-10-22_20h13.04.433,sm,2024.2.4,59.94003598780302,2025-10-22 20h13.17.369235 +0200,
45,0,45,,,,,,space,4.188636400000178,None,None,3,None,1.5019844000007652,0.21681879999960074,0,0,0,0,,,,,0,0,0,0,,,,,45,0,45,0,416.48540200000025,,,,,,,,,,,,,,,,,,,,,,,,,,,,,,,,,,,,,,,,,,,,,,,,,,,,,,,,,Fernseher,3.0911,416.47005609999997,416.4706292999999,416.47073399999954,416.48540200000025,419.5846660999996,419.5688957000002,419.5724694999999,419.5846660999996,419.5846660999996,419.5846660999996,419.5846660999996,421.58473460000005,421.58473460000005,421.58473460000005,421.58473460000005,421.5692121000002,3,None,1.5019844000007652,0.21681879999960074,,,,,,,,,,,,,,,,,,,,,,2594,1,2025-10-22_20h13.04.433,sm,2024.2.4,59.94003598780302,2025-10-22 20h13.17.369235 +0200,
46,0,46,,,,,,space,4.188636400000178,None,None,3,None,0.9745980999996391,0.27293569999983447,0,0,0,0,,,,,0,0,0,0,,,,,46,0,46,0,421.58473460000005,,,,,,,,,,,,,,,,,,,,,,,,,,,,,,,,,,,,,,,,,,,,,,,,,,,,,,,,,Ordner,2.0517,421.56970980000006,421.5702061000002,421.57031039999947,421.58473460000005,423.6511180999996,423.63559519999944,423.63985219999995,423.6511180999996,423.6511180999996,423.6511180999996,423.6511180999996,425.6512901999995,425.6512901999995,425.6512901999995,425.6512901999995,425.6359317999995,3,None,0.9745980999996391,0.27293569999983447,,,,,,,,,,,,,,,,,,,,,,2594,1,2025-10-22_20h13.04.433,sm,2024.2.4,59.94003598780302,2025-10-22 20h13.17.369235 +0200,
47,0,47,,,,,,space,4.188636400000178,None,None,3,None,1.046308400000271,0.2680129999998826,0,0,0,0,,,,,0,0,0,0,,,,,47,0,47,0,425.6512901999995,,,,,,,,,,,,,,,,,,,,,,,,,,,,,,,,,,,,,,,,,,,,,,,,,,,,,,,,,Gras,2.4825,425.63644490000024,425.6369556999998,425.63706490000004,425.6512901999995,428.13517279999996,428.1185986999999,428.1218466999999,428.13517279999996,428.13517279999996,428.13517279999996,428.13517279999996,430.1341961999997,430.1341961999997,430.1341961999997,430.1341961999997,430.1187476999994,3,None,1.046308400000271,0.2680129999998826,,,,,,,,,,,,,,,,,,,,,,2594,1,2025-10-22_20h13.04.433,sm,2024.2.4,59.94003598780302,2025-10-22 20h13.17.369235 +0200,
48,0,48,,,,,,space,4.188636400000178,None,None,3,None,0.8870357999994667,0.22263139999995474,0,0,0,0,,,,,0,0,0,0,,,,,48,0,48,0,430.1341961999997,,,,,,,,,,,,,,,,,,,,,,,,,,,,,,,,,,,,,,,,,,,,,,,,,,,,,,,,,Shampoo,2.238,430.1192592999996,430.1197635999997,430.11986569999954,430.1341961999997,432.3840401999996,432.3684323999996,432.37246460000006,432.3840401999996,432.3840401999996,432.3840401999996,432.3840401999996,434.38399800000025,434.38399800000025,434.38399800000025,434.38399800000025,434.3684139999996,3,None,0.8870357999994667,0.22263139999995474,,,,,,,,,,,,,,,,,,,,,,2594,1,2025-10-22_20h13.04.433,sm,2024.2.4,59.94003598780302,2025-10-22 20h13.17.369235 +0200,
49,0,49,,,,,,space,4.188636400000178,None,None,3,None,1.0246246999995492,0.1941199000002598,0,0,0,0,,,,,0,0,0,0,,,,,49,0,49,0,434.38399800000025,,,,,,,,,,,,,,,,,,,,,,,,,,,,,,,,,,,,,,,,,,,,,,,,,,,,,,,,,Puppe,2.2484,434.36892220000027,434.3694347999999,434.3695415000002,434.38399800000025,436.6340336000003,436.6183167999998,436.62223579999954,436.6340336000003,436.6340336000003,436.6340336000003,436.6340336000003,438.6336626000002,438.6336626000002,438.6336626000002,438.6336626000002,438.61804459999985,3,None,1.0246246999995492,0.1941199000002598,,,,,,,,,,,,,,,,,,,,,,2594,1,2025-10-22_20h13.04.433,sm,2024.2.4,59.94003598780302,2025-10-22 20h13.17.369235 +0200,
50,0,50,,,,,,space,4.188636400000178,None,None,3,None,0.9237718999993376,0.2427015000002939,0,0,0,0,,,,,0,0,0,0,,,,,50,0,50,0,438.6336626000002,,,,,,,,,,,,,,,,,,,,,,,,,,,,,,,,,,,,,,,,,,,,,,,,,,,,,,,,,Wohnung,4.2495,438.6185581,438.6190498999995,438.61915859999954,438.6336626000002,442.8835425999996,442.8681381999995,442.8722210999995,442.8835425999996,442.8835425999996,442.8835425999996,442.8835425999996,444.88346550000006,444.88346550000006,444.88346550000006,444.88346550000006,444.8678530999996,3,None,0.9237718999993376,0.2427015000002939,,,,,,,,,,,,,,,,,,,,,,2594,1,2025-10-22_20h13.04.433,sm,2024.2.4,59.94003598780302,2025-10-22 20h13.17.369235 +0200,
51,0,51,,,,,,space,4.188636400000178,None,None,3,None,1.5465267999998105,0.1994592000000921,0,0,0,0,,,,,0,0,0,0,,,,,51,0,51,0,444.88346550000006,,,,,,,,,,,,,,,,,,,,,,,,,,,,,,,,,,,,,,,,,,,,,,,,,,,,,,,,,Käse,3.6907,444.8683658,444.86887409999963,444.86897750000026,444.88346550000006,448.5832690999996,448.56721169999946,448.57044309999947,448.5832690999996,448.5832690999996,448.5832690999996,448.5832690999996,450.5835178999996,450.5835178999996,450.5835178999996,450.5835178999996,450.5675215000001,3,None,1.5465267999998105,0.1994592000000921,,,,,,,,,,,,,,,,,,,,,,2594,1,2025-10-22_20h13.04.433,sm,2024.2.4,59.94003598780302,2025-10-22 20h13.17.369235 +0200,
52,0,52,,,,,,space,4.188636400000178,None,None,2,None,1.0270416999992449,0.18212649999986752,0,0,0,0,,,,,0,0,0,0,,,,,52,0,52,0,450.5835178999996,,,,,,,,,,,,,,,,,,,,,,,,,,,,,,,,,,,,,,,,,,,,,,,,,,,,,,,,,Gelenk,3.4454,450.56808009999986,450.56860869999946,450.56872079999994,450.5835178999996,454.0326266000002,454.01712510000016,454.0211155999996,454.0326266000002,454.0326266000002,454.0326266000002,454.0326266000002,456.0327701999995,456.0327701999995,456.0327701999995,456.0327701999995,456.01735370000006,2,None,1.0270416999992449,0.18212649999986752,,,,,,,,,,,,,,,,,,,,,,2594,1,2025-10-22_20h13.04.433,sm,2024.2.4,59.94003598780302,2025-10-22 20h13.17.369235 +0200,
53,0,53,,,,,,space,4.188636400000178,None,None,3,None,1.4282691999997041,0.21236290000069857,0,0,0,0,,,,,0,0,0,0,,,,,53,0,53,0,456.0327701999995,,,,,,,,,,,,,,,,,,,,,,,,,,,,,,,,,,,,,,,,,,,,,,,,,,,,,,,,,Strand,3.2706,456.0178638999996,456.01850190000005,456.0186034999997,456.0327701999995,459.31571389999954,459.3005353999997,459.3046167000002,459.31571389999954,459.31571389999954,459.31571389999954,459.31571389999954,461.3156259999996,461.3156259999996,461.3156259999996,461.3156259999996,461.30004839999947,3,None,1.4282691999997041,0.21236290000069857,,,,,,,,,,,,,,,,,,,,,,2594,1,2025-10-22_20h13.04.433,sm,2024.2.4,59.94003598780302,2025-10-22 20h13.17.369235 +0200,
54,0,54,,,,,,space,4.188636400000178,None,None,2,None,1.2134181000001263,0.15556800000013027,0,0,0,0,,,,,0,0,0,0,,,,,54,0,54,0,461.3156259999996,,,,,,,,,,,,,,,,,,,,,,,,,,,,,,,,,,,,,,,,,,,,,,,,,,,,,,,,,Liebe,2.2917,461.30052590000014,461.30102329999954,461.3011182,461.3156259999996,463.6156753999994,463.6001061999996,463.60427249999975,463.6156753999994,463.6156753999994,463.6156753999994,463.6156753999994,465.6155927,465.6155927,465.6155927,465.6155927,465.60001699999975,2,None,1.2134181000001263,0.15556800000013027,,,,,,,,,,,,,,,,,,,,,,2594,1,2025-10-22_20h13.04.433,sm,2024.2.4,59.94003598780302,2025-10-22 20h13.17.369235 +0200,
55,0,55,,,,,,space,4.188636400000178,None,None,3,None,0.9319140999996307,0.2024637000004077,0,0,0,0,,,,,0,0,0,0,,,,,55,0,55,0,465.6155927,,,,,,,,,,,,,,,,,,,,,,,,,,,,,,,,,,,,,,,,,,,,,,,,,,,,,,,,,Anhänger,2.0482,465.6005193000001,465.6010190999996,465.6011232000001,465.6155927,467.6652309000001,467.64967569999953,467.65336969999953,467.6652309000001,467.6652309000001,467.6652309000001,467.6652309000001,469.6653233999996,469.6653233999996,469.6653233999996,469.6653233999996,469.6496952999996,3,None,0.9319140999996307,0.2024637000004077,,,,,,,,,,,,,,,,,,,,,,2594,1,2025-10-22_20h13.04.433,sm,2024.2.4,59.94003598780302,2025-10-22 20h13.17.369235 +0200,
56,0,56,,,,,,space,4.188636400000178,None,None,3,None,1.3948452000004181,0.2539184999995996,0,0,0,0,,,,,0,0,0,0,,,,,56,0,56,0,469.6653233999996,,,,,,,,,,,,,,,,,,,,,,,,,,,,,,,,,,,,,,,,,,,,,,,,,,,,,,,,,Beutel,2.2764,469.6502026999997,469.65070169999944,469.6508036999994,469.6653233999996,471.94837970000026,471.93286009999974,471.9367413,471.94837970000026,471.94837970000026,471.94837970000026,471.94837970000026,473.9483817,473.9483817,473.9483817,473.9483817,473.9330068999998,3,None,1.3948452000004181,0.2539184999995996,,,,,,,,,,,,,,,,,,,,,,2594,1,2025-10-22_20h13.04.433,sm,2024.2.4,59.94003598780302,2025-10-22 20h13.17.369235 +0200,
57,0,57,,,,,,space,4.188636400000178,None,None,2,None,1.2797957000002498,0.1812605999994048,0,0,0,0,,,,,0,0,0,0,,,,,57,0,57,0,473.9483817,,,,,,,,,,,,,,,,,,,,,,,,,,,,,,,,,,,,,,,,,,,,,,,,,,,,,,,,,Vulkan,2.3052,473.9335093999998,473.9342459999998,473.9344222999998,473.9483817,476.2648804999999,476.2491326999998,476.2528333,476.2648804999999,476.2648804999999,476.2648804999999,476.2648804999999,478.2648042999999,478.2648042999999,478.2648042999999,478.2648042999999,478.24916269999994,2,None,1.2797957000002498,0.1812605999994048,,,,,,,,,,,,,,,,,,,,,,2594,1,2025-10-22_20h13.04.433,sm,2024.2.4,59.94003598780302,2025-10-22 20h13.17.369235 +0200,
58,0,58,,,,,,space,4.188636400000178,None,None,3,None,1.534478399999898,0.22751090000019758,0,0,0,0,,,,,0,0,0,0,,,,,58,0,58,0,478.2648042999999,,,,,,,,,,,,,,,,,,,,,,,,,,,,,,,,,,,,,,,,,,,,,,,,,,,,,,,,,Dorn,4.2375,478.24966779999977,478.2503078999998,478.2504143999995,478.2648042999999,482.5146586999999,482.4988715999998,482.50238889999946,482.5146586999999,482.5146586999999,482.5146586999999,482.5146586999999,484.5145886999999,484.5145886999999,484.5145886999999,484.5145886999999,484.4989237,3,None,1.534478399999898,0.22751090000019758,,,,,,,,,,,,,,,,,,,,,,2594,1,2025-10-22_20h13.04.433,sm,2024.2.4,59.94003598780302,2025-10-22 20h13.17.369235 +0200,
59,0,59,,,,,,space,4.188636400000178,None,None,2,None,1.2223629999998593,0.19989209999948798,0,0,0,0,,,,,0,0,0,0,,,,,59,0,59,0,484.5145886999999,,,,,,,,,,,,,,,,,,,,,,,,,,,,,,,,,,,,,,,,,,,,,,,,,,,,,,,,,Rebe,3.7856,484.4994310000002,484.4999362999997,484.5000395999996,484.5145886999999,488.3146379,488.2988421,488.3024233999995,488.3146379,488.3146379,488.3146379,488.3146379,490.3142614999997,490.3142614999997,490.3142614999997,490.3142614999997,490.2984472999997,2,None,1.2223629999998593,0.19989209999948798,,,,,,,,,,,,,,,,,,,,,,2594,1,2025-10-22_20h13.04.433,sm,2024.2.4,59.94003598780302,2025-10-22 20h13.17.369235 +0200,
60,0,60,,,,,,space,4.188636400000178,None,None,2,None,1.1634042999994563,0.16194850000010774,0,0,0,0,,,,,0,0,0,0,,,,,60,0,60,0,490.3142614999997,,,,,,,,,,,,,,,,,,,,,,,,,,,,,,,,,,,,,,,,,,,,,,,,,,,,,,,,,Besucher,2.0538,490.29895769999985,490.29946180000024,490.29956539999966,490.3142614999997,492.38053899999977,492.36552609999944,492.37058100000013,492.38053899999977,492.38053899999977,492.38053899999977,492.38053899999977,494.38080549999995,494.38080549999995,494.38080549999995,494.38080549999995,494.3649317999998,2,None,1.1634042999994563,0.16194850000010774,,,,,,,,,,,,,,,,,,,,,,2594,1,2025-10-22_20h13.04.433,sm,2024.2.4,59.94003598780302,2025-10-22 20h13.17.369235 +0200,
61,0,61,,,,,,space,4.188636400000178,None,None,3,None,0.8582293999998001,0.2464890999999625,0,0,0,0,,,,,0,0,0,0,,,,,61,0,61,0,494.38080549999995,,,,,,,,,,,,,,,,,,,,,,,,,,,,,,,,,,,,,,,,,,,,,,,,,,,,,,,,,Hütte,2.1509,494.36544630000026,494.3659517999995,494.36606089999987,494.38080549999995,496.5469519999997,496.53145870000026,496.5354188000001,496.5469519999997,496.5469519999997,496.5469519999997,496.5469519999997,498.54710350000005,498.54710350000005,498.54710350000005,498.54710350000005,498.53138039999976,3,None,0.8582293999998001,0.2464890999999625,,,,,,,,,,,,,,,,,,,,,,2594,1,2025-10-22_20h13.04.433,sm,2024.2.4,59.94003598780302,2025-10-22 20h13.17.369235 +0200,
62,0,62,,,,,,space,4.188636400000178,None,None,3,None,0.9881672000001345,0.21213040000020555,0,0,0,0,,,,,0,0,0,0,,,,,62,0,62,0,498.54710350000005,,,,,,,,,,,,,,,,,,,,,,,,,,,,,,,,,,,,,,,,,,,,,,,,,,,,,,,,,Keller,2.5127,498.5318892999994,498.53238020000026,498.5324835000001,498.54710350000005,501.0633674999999,501.04788689999987,501.05205829999977,501.0633674999999,501.0633674999999,501.0633674999999,501.0633674999999,503.06342099999983,503.06342099999983,503.06342099999983,503.06342099999983,503.0477942999996,3,None,0.9881672000001345,0.21213040000020555,,,,,,,,,,,,,,,,,,,,,,2594,1,2025-10-22_20h13.04.433,sm,2024.2.4,59.94003598780302,2025-10-22 20h13.17.369235 +0200,
63,0,63,,,,,,space,4.188636400000178,None,None,2,None,1.1505171999997401,0.15907479999987117,0,0,0,0,,,,,0,0,0,0,,,,,63,0,63,0,503.06342099999983,,,,,,,,,,,,,,,,,,,,,,,,,,,,,,,,,,,,,,,,,,,,,,,,,,,,,,,,,Familie,2.0362,503.04830799999945,503.0488151999998,503.0489179999995,503.06342099999983,505.11318759999995,505.0973948000001,505.1015351999995,505.11318759999995,505.11318759999995,505.11318759999995,505.11318759999995,507.11316389999956,507.11316389999956,507.11316389999956,507.11316389999956,507.09765569999945,2,None,1.1505171999997401,0.15907479999987117,,,,,,,,,,,,,,,,,,,,,,2594,1,2025-10-22_20h13.04.433,sm,2024.2.4,59.94003598780302,2025-10-22 20h13.17.369235 +0200,
64,0,64,,,,,,space,4.188636400000178,None,None,3,None,1.087367600000107,0.24642230000063137,0,0,0,0,,,,,0,0,0,0,,,,,64,0,64,0,507.11316389999956,,,,,,,,,,,,,,,,,,,,,,,,,,,,,,,,,,,,,,,,,,,,,,,,,,,,,,,,,Golf,2.8664,507.09816559999945,507.0986776,507.09878169999956,507.11316389999956,509.97939080000015,509.9637481,509.9670086999995,509.97939080000015,509.97939080000015,509.97939080000015,509.97939080000015,511.9795760999996,511.9795760999996,511.9795760999996,511.9795760999996,511.96392240000023,3,None,1.087367600000107,0.24642230000063137,,,,,,,,,,,,,,,,,,,,,,2594,1,2025-10-22_20h13.04.433,sm,2024.2.4,59.94003598780302,2025-10-22 20h13.17.369235 +0200,
65,0,65,,,,,,space,4.188636400000178,None,None,3,None,0.6642103000003772,0.23418409999976575,0,0,0,0,,,,,0,0,0,0,,,,,65,0,65,0,511.9795760999996,,,,,,,,,,,,,,,,,,,,,,,,,,,,,,,,,,,,,,,,,,,,,,,,,,,,,,,,,Hügel,2.995,511.9644301999997,511.9650746999996,511.9651795,511.9795760999996,514.9793225000003,514.9634306999997,514.9670944999998,514.9793225000003,514.9793225000003,514.9793225000003,514.9793225000003,516.9794099999999,516.9794099999999,516.9794099999999,516.9794099999999,516.9641007999999,3,None,0.6642103000003772,0.23418409999976575,,,,,,,,,,,,,,,,,,,,,,2594,1,2025-10-22_20h13.04.433,sm,2024.2.4,59.94003598780302,2025-10-22 20h13.17.369235 +0200,
66,0,66,,,,,,space,4.188636400000178,None,None,3,None,1.0191906000000017,0.23378849999971862,0,0,0,0,,,,,0,0,0,0,,,,,66,0,66,0,516.9794099999999,,,,,,,,,,,,,,,,,,,,,,,,,,,,,,,,,,,,,,,,,,,,,,,,,,,,,,,,,Rolle,2.4546,516.9646071999996,516.9651274999997,516.9652304000001,516.9794099999999,519.4457119999997,519.4299819999997,519.4335566999998,519.4457119999997,519.4457119999997,519.4457119999997,519.4457119999997,521.4455455999996,521.4455455999996,521.4455455999996,521.4455455999996,521.4299745999997,3,None,1.0191906000000017,0.23378849999971862,,,,,,,,,,,,,,,,,,,,,,2594,1,2025-10-22_20h13.04.433,sm,2024.2.4,59.94003598780302,2025-10-22 20h13.17.369235 +0200,
67,0,67,,,,,,space,4.188636400000178,None,None,2,None,0.6985592000000906,0.18428549999953248,0,0,0,0,,,,,0,0,0,0,,,,,67,0,67,0,521.4455455999996,,,,,,,,,,,,,,,,,,,,,,,,,,,,,,,,,,,,,,,,,,,,,,,,,,,,,,,,,Student,2.5377,521.4304812999999,521.4309862,521.4310949999999,521.4455455999996,523.9955497000001,523.9800433999999,523.9860689999996,523.9955497000001,523.9955497000001,523.9955497000001,523.9955497000001,525.9954710000002,525.9954710000002,525.9954710000002,525.9954710000002,525.9799241000001,2,None,0.6985592000000906,0.18428549999953248,,,,,,,,,,,,,,,,,,,,,,2594,1,2025-10-22_20h13.04.433,sm,2024.2.4,59.94003598780302,2025-10-22 20h13.17.369235 +0200,
68,0,68,,,,,,space,4.188636400000178,None,None,3,None,1.6886295000003884,0.21934719999990193,0,0,0,0,,,,,0,0,0,0,,,,,68,0,68,0,525.9954710000002,,,,,,,,,,,,,,,,,,,,,,,,,,,,,,,,,,,,,,,,,,,,,,,,,,,,,,,,,Kuchen ,2.3422,525.9804432999999,525.9809465999997,525.9810486999995,525.9954710000002,528.3451673999998,528.3294831000003,528.3331612000002,528.3451673999998,528.3451673999998,528.3451673999998,528.3451673999998,530.3454099,530.3454099,530.3454099,530.3454099,530.3295061999997,3,None,1.6886295000003884,0.21934719999990193,,,,,,,,,,,,,,,,,,,,,,2594,1,2025-10-22_20h13.04.433,sm,2024.2.4,59.94003598780302,2025-10-22 20h13.17.369235 +0200,
69,0,69,,,,,,space,4.188636400000178,None,None,3,None,1.1237304999995104,0.238757699999951,0,0,0,0,,,,,0,0,0,0,,,,,69,0,69,0,530.3454099,,,,,,,,,,,,,,,,,,,,,,,,,,,,,,,,,,,,,,,,,,,,,,,,,,,,,,,,,Krone,4.1797,530.3299924000003,530.3306205999997,530.3307249999998,530.3454099,534.5281883999996,534.5124820000001,534.5161083000003,534.5281883999996,534.5281883999996,534.5281883999996,534.5281883999996,536.5281256999997,536.5281256999997,536.5281256999997,536.5281256999997,536.5128742999996,3,None,1.1237304999995104,0.238757699999951,,,,,,,,,,,,,,,,,,,,,,2594,1,2025-10-22_20h13.04.433,sm,2024.2.4,59.94003598780302,2025-10-22 20h13.17.369235 +0200,
70,0,70,,,,,,space,4.188636400000178,None,None,3,None,1.244940300000053,0.23667920000025333,0,0,0,0,,,,,0,0,0,0,,,,,70,0,70,0,536.5281256999997,,,,,,,,,,,,,,,,,,,,,,,,,,,,,,,,,,,,,,,,,,,,,,,,,,,,,,,,,Schutz,4.5866,536.5134054999999,536.5139395999995,536.5140608000002,536.5281256999997,541.1277799,541.1122932999997,541.1163747999999,541.1277799,541.1277799,541.1277799,541.1277799,543.1278596000002,543.1278596000002,543.1278596000002,543.1278596000002,543.1123342999999,3,None,1.244940300000053,0.23667920000025333,,,,,,,,,,,,,,,,,,,,,,2594,1,2025-10-22_20h13.04.433,sm,2024.2.4,59.94003598780302,2025-10-22 20h13.17.369235 +0200,
71,0,71,,,,,,space,4.188636400000178,None,None,3,None,1.6026887000007264,None,0,0,0,0,,,,,0,0,0,0,,,,,71,0,71,0,543.1278596000002,,,,,,,,,,,,,,,,,,,,,,,,,,,,,,,,,,,,,,,,,,,,,,,,,,,,,,,,,Riechen,4.5629,543.1128432999994,543.1134916000001,543.1135932999996,543.1278596000002,547.6942598999995,547.6788663999996,547.6827201999995,547.6942598999995,547.6942598999995,547.6942598999995,547.6942598999995,549.6940699999996,549.6940699999996,549.6940699999996,549.6940699999996,549.6786273999996,3,None,1.6026887000007264,None,,,,,,,,,,,,,,,,,,,,,,2594,1,2025-10-22_20h13.04.433,sm,2024.2.4,59.94003598780302,2025-10-22 20h13.17.369235 +0200,
72,0,72,,,,,,space,4.188636400000178,None,None,3,None,1.0520323999999164,0.17251840000062657,0,0,0,0,,,,,0,0,0,0,,,,,72,0,72,0,549.6940699999996,,,,,,,,,,,,,,,,,,,,,,,,,,,,,,,,,,,,,,,,,,,,,,,,,,,,,,,,,Gel,3.3783,549.6791370999999,549.6796991000001,549.6798020999995,549.6940699999996,553.0770066999994,553.0615188000002,553.0651188000002,553.0770066999994,553.0770066999994,553.0770066999994,553.0770066999994,555.0771949,555.0771949,555.0771949,555.0771949,555.0615275,3,None,1.0520323999999164,0.17251840000062657,,,,,,,,,,,,,,,,,,,,,,2594,1,2025-10-22_20h13.04.433,sm,2024.2.4,59.94003598780302,2025-10-22 20h13.17.369235 +0200,
73,0,73,,,,,,space,4.188636400000178,None,None,2,None,1.8985764000008203,None,0,0,0,0,,,,,0,0,0,0,,,,,73,0,73,0,555.0771949,,,,,,,,,,,,,,,,,,,,,,,,,,,,,,,,,,,,,,,,,,,,,,,,,,,,,,,,,Urlaub,2.0309,555.0620343999999,555.0625549999995,555.0626590000002,555.0771949,557.1102789999995,557.0945713000001,557.1020484999999,557.1102789999995,557.1102789999995,557.1102789999995,557.1102789999995,559.1101825999995,559.1101825999995,559.1101825999995,559.1101825999995,559.0947821999998,2,None,1.8985764000008203,None,,,,,,,,,,,,,,,,,,,,,,2594,1,2025-10-22_20h13.04.433,sm,2024.2.4,59.94003598780302,2025-10-22 20h13.17.369235 +0200,
74,0,74,,,,,,space,4.188636400000178,None,None,3,None,1.1732566999999108,0.22798710000006395,0,0,0,0,,,,,0,0,0,0,,,,,74,0,74,0,559.1101825999995,,,,,,,,,,,,,,,,,,,,,,,,,,,,,,,,,,,,,,,,,,,,,,,,,,,,,,,,,Service,2.1814,559.0953085000001,559.0958629999996,559.0959658000002,559.1101825999995,561.2934274999998,561.2774810999999,561.2811929999998,561.2934274999998,561.2934274999998,561.2934274999998,561.2934274999998,563.2932951000003,563.2932951000003,563.2932951000003,563.2932951000003,563.2777127999998,3,None,1.1732566999999108,0.22798710000006395,,,,,,,,,,,,,,,,,,,,,,2594,1,2025-10-22_20h13.04.433,sm,2024.2.4,59.94003598780302,2025-10-22 20h13.17.369235 +0200,
75,0,75,,,,,,space,4.188636400000178,None,None,2,None,1.0969965000003867,0.1787574999998469,0,0,0,0,,,,,0,0,0,0,,,,,75,0,75,0,563.2932951000003,,,,,,,,,,,,,,,,,,,,,,,,,,,,,,,,,,,,,,,,,,,,,,,,,,,,,,,,,Wurm,3.5198,563.2782167999994,563.2788002999996,563.2789025000002,563.2932951000003,566.8265541000001,566.8108388,566.8145329999998,566.8265541000001,566.8265541000001,566.8265541000001,566.8265541000001,568.8264294,568.8264294,568.8264294,568.8264294,568.8108141000002,2,None,1.0969965000003867,0.1787574999998469,,,,,,,,,,,,,,,,,,,,,,2594,1,2025-10-22_20h13.04.433,sm,2024.2.4,59.94003598780302,2025-10-22 20h13.17.369235 +0200,
76,0,76,,,,,,space,4.188636400000178,None,None,3,None,1.1337791999994806,0.20443620000060037,0,0,0,0,,,,,0,0,0,0,,,,,76,0,76,0,568.8264294,,,,,,,,,,,,,,,,,,,,,,,,,,,,,,,,,,,,,,,,,,,,,,,,,,,,,,,,,Winter,2.1514,568.8113194999996,568.8118999999997,568.8120024,568.8264294,570.9926690000002,570.9773598000002,570.9814043999995,570.9926690000002,570.9926690000002,570.9926690000002,570.9926690000002,572.9927772000001,572.9927772000001,572.9927772000001,572.9927772000001,572.9771337000002,3,None,1.1337791999994806,0.20443620000060037,,,,,,,,,,,,,,,,,,,,,,2594,1,2025-10-22_20h13.04.433,sm,2024.2.4,59.94003598780302,2025-10-22 20h13.17.369235 +0200,
77,0,77,,,,,,space,4.188636400000178,None,None,2,None,1.476337600000079,0.15852360000008048,0,0,0,0,,,,,0,0,0,0,,,,,77,0,77,0,572.9927772000001,,,,,,,,,,,,,,,,,,,,,,,,,,,,,,,,,,,,,,,,,,,,,,,,,,,,,,,,,Kartoffel,2.3993,572.9776439999996,572.9781434999995,572.9782444000002,572.9927772000001,575.3924293,575.3768712000001,575.3809636999995,575.3924293,575.3924293,575.3924293,575.3924293,577.3923941000003,577.3923941000003,577.3923941000003,577.3923941000003,577.3769973999997,2,None,1.476337600000079,0.15852360000008048,,,,,,,,,,,,,,,,,,,,,,2594,1,2025-10-22_20h13.04.433,sm,2024.2.4,59.94003598780302,2025-10-22 20h13.17.369235 +0200,
78,0,78,,,,,,space,4.188636400000178,None,None,2,None,1.3727256000001944,0.14720369999940885,0,0,0,0,,,,,0,0,0,0,,,,,78,0,78,0,577.3923941000003,,,,,,,,,,,,,,,,,,,,,,,,,,,,,,,,,,,,,,,,,,,,,,,,,,,,,,,,,Tischler,3.5552,577.3775033000002,577.3781883000001,577.3783005999994,577.3923941000003,580.9586577999999,580.9436463000002,580.9476101999999,580.9586577999999,580.9586577999999,580.9586577999999,580.9586577999999,582.9587529,582.9587529,582.9587529,582.9587529,582.9430971000002,2,None,1.3727256000001944,0.14720369999940885,,,,,,,,,,,,,,,,,,,,,,2594,1,2025-10-22_20h13.04.433,sm,2024.2.4,59.94003598780302,2025-10-22 20h13.17.369235 +0200,
79,0,79,,,,,,space,4.188636400000178,None,None,2,None,1.0174578999994992,0.15888489999997546,0,0,0,0,,,,,0,0,0,0,,,,,79,0,79,0,582.9587529,,,,,,,,,,,,,,,,,,,,,,,,,,,,,,,,,,,,,,,,,,,,,,,,,,,,,,,,,Ozean,3.5149,582.9435699999995,582.9441941999994,582.9442939,582.9587529,586.4753744999998,586.4596364999998,586.4635929999995,586.4753744999998,586.4753744999998,586.4753744999998,586.4753744999998,588.4883666999995,588.4883666999995,588.4883666999995,588.4883666999995,588.4595436,2,None,1.0174578999994992,0.15888489999997546,,,,,,,,,,,,,,,,,,,,,,2594,1,2025-10-22_20h13.04.433,sm,2024.2.4,59.94003598780302,2025-10-22 20h13.17.369235 +0200,
0,0,0,,,,,2.3993,space,1.7599272999996174,None,None,2,None,1.3607600999994247,0.14628880000054778,0,0,0,0,,,,,1,0,1,0,0,79,79,45,0,0,0,0,636.1890819,,,,,,,,,,,,,,,,,,,,,,,,,,,,,,,,,,,,609.8723433999994,609.8725748999996,609.8788029999996,609.8834163000001,609.8834163000001,611.6590610000003,space,1.7599272999996174,None,611.6592178000001,611.6739461999996,611.6739461999996,624.1746291999998,None,624.1816954999995,624.1896642000002,624.1898566666662,625.3912301999999,634.1893514666665,635.1910922999996,636.1732432999997,Augen,2.3993,636.1745406999999,636.1751569999997,636.1752561000003,636.1890819,638.5889581000001,638.5730309,638.5772289999995,638.5889581000001,638.5889581000001,638.5889581000001,638.5889581000001,640.5889324,640.5889324,640.5889324,640.5889324,640.5733928999998,2,None,1.3607600999994247,0.14628880000054778,600.4747545999999,600.4748265999997,None,600.4825756999999,600.4918682999996,604.4908939999996,604.4908939999996,604.4908939999996,609.8257746999998,2,5.329445999999734,None,636.1890819,,,,,,,,,2594,1,2025-10-22_20h13.04.433,sm,2024.2.4,59.94003598780302,2025-10-22 20h13.17.369235 +0200,
1,0,1,,,,,,space,1.7599272999996174,None,None,3,None,1.5488719000004494,0.19144080000023678,0,0,0,0,,,,,1,0,1,0,,,,,1,0,1,0,640.5889324,,,,,,,,,,,,,,,,,,,,,,,,,,,,,,,,,,,,,,,,,,,,,,,,,,,,,,,,,Gemüse,2.7817,640.5738964000002,640.5745312999998,640.5746331,640.5889324,643.3719942999996,643.3563299999996,643.3602854999999,643.3719942999996,643.3719942999996,643.3719942999996,643.3719942999996,645.3719498999999,645.3719498999999,645.3719498999999,645.3719498999999,645.3564544999999,3,None,1.5488719000004494,0.19144080000023678,,,,,,,,,,,,,,,,,,,,,,2594,1,2025-10-22_20h13.04.433,sm,2024.2.4,59.94003598780302,2025-10-22 20h13.17.369235 +0200,
2,0,2,,,,,,space,1.7599272999996174,None,None,2,None,0.7583302000002732,0.17469170000003942,0,0,0,0,,,,,1,0,1,0,,,,,2,0,2,0,645.3719498999999,,,,,,,,,,,,,,,,,,,,,,,,,,,,,,,,,,,,,,,,,,,,,,,,,,,,,,,,,Handwerker,2.2917,645.3569674999999,645.3577028999998,645.3578078999999,645.3719498999999,647.6720194,647.6558688999994,647.6597770999997,647.6720194,647.6720194,647.6720194,647.6720194,649.6717575000002,649.6717575000002,649.6717575000002,649.6717575000002,649.6559668,2,None,0.7583302000002732,0.17469170000003942,,,,,,,,,,,,,,,,,,,,,,2594,1,2025-10-22_20h13.04.433,sm,2024.2.4,59.94003598780302,2025-10-22 20h13.17.369235 +0200,
3,0,3,,,,,,space,1.7599272999996174,None,None,3,None,1.031019600000036,0.21854220000022906,0,0,0,0,,,,,1,0,1,0,,,,,3,0,3,0,649.6717575000002,,,,,,,,,,,,,,,,,,,,,,,,,,,,,,,,,,,,,,,,,,,,,,,,,,,,,,,,,Büro,3.5149,649.6564689999996,649.657107,649.6572086999995,649.6717575000002,653.1880615999999,653.1724088000001,653.1755476999997,653.1880615999999,653.1880615999999,653.1880615999999,653.1880615999999,655.1881346999999,655.1881346999999,655.1881346999999,655.1881346999999,655.1723181999996,3,None,1.031019600000036,0.21854220000022906,,,,,,,,,,,,,,,,,,,,,,2594,1,2025-10-22_20h13.04.433,sm,2024.2.4,59.94003598780302,2025-10-22 20h13.17.369235 +0200,
4,0,4,,,,,,space,1.7599272999996174,None,None,3,None,1.0780517000002874,0.23342329999923095,0,0,0,0,,,,,1,0,1,0,,,,,4,0,4,0,655.1881346999999,,,,,,,,,,,,,,,,,,,,,,,,,,,,,,,,,,,,,,,,,,,,,,,,,,,,,,,,,Papier,3.2706,655.1728352999999,655.1733402999998,655.1734439000002,655.1881346999999,658.4711769999994,658.4556291999997,658.4596522000002,658.4711769999994,658.4711769999994,658.4711769999994,658.4711769999994,660.4712762999998,660.4712762999998,660.4712762999998,660.4712762999998,660.4554374999998,3,None,1.0780517000002874,0.23342329999923095,,,,,,,,,,,,,,,,,,,,,,2594,1,2025-10-22_20h13.04.433,sm,2024.2.4,59.94003598780302,2025-10-22 20h13.17.369235 +0200,
5,0,5,,,,,,space,1.7599272999996174,None,None,3,None,0.9083338000000367,0.22495129999970231,0,0,0,0,,,,,1,0,1,0,,,,,5,0,5,0,660.4712762999998,,,,,,,,,,,,,,,,,,,,,,,,,,,,,,,,,,,,,,,,,,,,,,,,,,,,,,,,,Postkarte,2.9531,660.4559473999998,660.4564566999998,660.4565608000003,660.4712762999998,663.4374047000001,663.4220178999994,663.4262487999995,663.4374047000001,663.4374047000001,663.4374047000001,663.4374047000001,665.4374692000001,665.4374692000001,665.4374692000001,665.4374692000001,665.4217303999994,3,None,0.9083338000000367,0.22495129999970231,,,,,,,,,,,,,,,,,,,,,,2594,1,2025-10-22_20h13.04.433,sm,2024.2.4,59.94003598780302,2025-10-22 20h13.17.369235 +0200,
6,0,6,,,,,,space,1.7599272999996174,None,None,3,None,1.198693800000001,0.23952279999957682,0,0,0,0,,,,,1,0,1,0,,,,,6,0,6,0,665.4374692000001,,,,,,,,,,,,,,,,,,,,,,,,,,,,,,,,,,,,,,,,,,,,,,,,,,,,,,,,,Monument,4.4328,665.4222423000001,665.4227316999995,665.4228388000001,665.4374692000001,669.8704253999995,669.8548970000002,669.8590328,669.8704253999995,669.8704253999995,669.8704253999995,669.8704253999995,671.8704621999996,671.8704621999996,671.8704621999996,671.8704621999996,671.8546932999998,3,None,1.198693800000001,0.23952279999957682,,,,,,,,,,,,,,,,,,,,,,2594,1,2025-10-22_20h13.04.433,sm,2024.2.4,59.94003598780302,2025-10-22 20h13.17.369235 +0200,
7,0,7,,,,,,space,1.7599272999996174,None,None,3,None,1.1821860000000015,0.22839439999916067,0,0,0,0,,,,,1,0,1,0,,,,,7,0,7,0,671.8704621999996,,,,,,,,,,,,,,,,,,,,,,,,,,,,,,,,,,,,,,,,,,,,,,,,,,,,,,,,,Gipfel,2.4458,671.8551806999994,671.8556794999995,671.8557780000001,671.8704621999996,674.3201687000001,674.3043958999997,674.308575,674.3201687000001,674.3201687000001,674.3201687000001,674.3201687000001,676.3205652999995,676.3205652999995,676.3205652999995,676.3205652999995,676.3047391999999,3,None,1.1821860000000015,0.22839439999916067,,,,,,,,,,,,,,,,,,,,,,2594,1,2025-10-22_20h13.04.433,sm,2024.2.4,59.94003598780302,2025-10-22 20h13.17.369235 +0200,
8,0,8,,,,,,space,1.7599272999996174,None,None,3,None,1.0202578000007634,0.21945569999934378,0,0,0,0,,,,,1,0,1,0,,,,,8,0,8,0,676.3205652999995,,,,,,,,,,,,,,,,,,,,,,,,,,,,,,,,,,,,,,,,,,,,,,,,,,,,,,,,,Luft,2.5125,676.3052422999999,676.3059213999995,676.3060244999997,676.3205652999995,678.8365882999997,678.8208635999999,678.8238412999999,678.8365882999997,678.8365882999997,678.8365882999997,678.8365882999997,680.8365452999997,680.8365452999997,680.8365452999997,680.8365452999997,680.8211722999995,3,None,1.0202578000007634,0.21945569999934378,,,,,,,,,,,,,,,,,,,,,,2594,1,2025-10-22_20h13.04.433,sm,2024.2.4,59.94003598780302,2025-10-22 20h13.17.369235 +0200,
9,0,9,,,,,,space,1.7599272999996174,None,None,2,None,0.8506617000002734,0.18833360000007815,0,0,0,0,,,,,1,0,1,0,,,,,9,0,9,0,680.8365452999997,,,,,,,,,,,,,,,,,,,,,,,,,,,,,,,,,,,,,,,,,,,,,,,,,,,,,,,,,Schmerz,2.7951,680.8216827999995,680.8221877999995,680.8222915999995,680.8365452999997,683.6361707999995,683.6205240999998,683.6244809999998,683.6361707999995,683.6361707999995,683.6361707999995,683.6361707999995,685.6365852999998,685.6365852999998,685.6365852999998,685.6365852999998,685.6206511999999,2,None,0.8506617000002734,0.18833360000007815,,,,,,,,,,,,,,,,,,,,,,2594,1,2025-10-22_20h13.04.433,sm,2024.2.4,59.94003598780302,2025-10-22 20h13.17.369235 +0200,
10,0,10,,,,,,space,1.7599272999996174,None,None,3,None,0.8525429999999687,0.21244279999973514,0,0,0,0,,,,,1,0,1,0,,,,,10,0,10,0,685.6365852999998,,,,,,,,,,,,,,,,,,,,,,,,,,,,,,,,,,,,,,,,,,,,,,,,,,,,,,,,,Tisch,2.0257,685.6211635,685.6218065000003,685.6219083999995,685.6365852999998,687.6696353999996,687.6537535999996,687.6571842000003,687.6696353999996,687.6696353999996,687.6696353999996,687.6696353999996,689.6694953999995,689.6694953999995,689.6694953999995,689.6694953999995,689.6538814999994,3,None,0.8525429999999687,0.21244279999973514,,,,,,,,,,,,,,,,,,,,,,2594,1,2025-10-22_20h13.04.433,sm,2024.2.4,59.94003598780302,2025-10-22 20h13.17.369235 +0200,
11,0,11,,,,,,space,1.7599272999996174,None,None,3,None,1.428775900000801,0.23356969999986177,0,0,0,0,,,,,1,0,1,0,,,,,11,0,11,0,689.6694953999995,,,,,,,,,,,,,,,,,,,,,,,,,,,,,,,,,,,,,,,,,,,,,,,,,,,,,,,,,Tradition,3.1813,689.6543894999995,689.6549169999998,689.6550218000002,689.6694953999995,692.8523899000002,692.8370591000003,692.8414112999999,692.8523899000002,692.8523899000002,692.8523899000002,692.8523899000002,694.8524815000001,694.8524815000001,694.8524815000001,694.8524815000001,694.8369591000001,3,None,1.428775900000801,0.23356969999986177,,,,,,,,,,,,,,,,,,,,,,2594,1,2025-10-22_20h13.04.433,sm,2024.2.4,59.94003598780302,2025-10-22 20h13.17.369235 +0200,
12,0,12,,,,,,space,1.7599272999996174,None,None,3,None,1.2687638999996125,0.2284215999998196,0,0,0,0,,,,,1,0,1,0,,,,,12,0,12,0,694.8524815000001,,,,,,,,,,,,,,,,,,,,,,,,,,,,,,,,,,,,,,,,,,,,,,,,,,,,,,,,,Sitzgurt,3.7332,694.8374684,694.8382345,694.8384086999995,694.8524815000001,698.5856164999996,698.5699427999998,698.5741128,698.5856164999996,698.5856164999996,698.5856164999996,698.5856164999996,700.5854260999995,700.5854260999995,700.5854260999995,700.5854260999995,700.5698204999999,3,None,1.2687638999996125,0.2284215999998196,,,,,,,,,,,,,,,,,,,,,,2594,1,2025-10-22_20h13.04.433,sm,2024.2.4,59.94003598780302,2025-10-22 20h13.17.369235 +0200,
13,0,13,,,,,,space,1.7599272999996174,None,None,2,None,1.1256710000006933,0.18250009999974282,0,0,0,0,,,,,1,0,1,0,,,,,13,0,13,0,700.5854260999995,,,,,,,,,,,,,,,,,,,,,,,,,,,,,,,,,,,,,,,,,,,,,,,,,,,,,,,,,Ehe,2.3475,700.5703299999996,700.5708306999995,700.5709324,700.5854260999995,702.9350542000002,702.9195266999996,702.9232080000002,702.9350542000002,702.9350542000002,702.9350542000002,702.9350542000002,704.9351314999994,704.9351314999994,704.9351314999994,704.9351314999994,704.9196694000002,2,None,1.1256710000006933,0.18250009999974282,,,,,,,,,,,,,,,,,,,,,,2594,1,2025-10-22_20h13.04.433,sm,2024.2.4,59.94003598780302,2025-10-22 20h13.17.369235 +0200,
14,0,14,,,,,,space,1.7599272999996174,None,None,3,None,1.7551780000003419,0.19723699999940436,0,0,0,0,,,,,1,0,1,0,,,,,14,0,14,0,704.9351314999994,,,,,,,,,,,,,,,,,,,,,,,,,,,,,,,,,,,,,,,,,,,,,,,,,,,,,,,,,Zunge,4.464,704.9201716999996,704.9208155999995,704.9209181999995,704.9351314999994,709.4016010999994,709.3861277999995,709.3911400999996,709.4016010999994,709.4016010999994,709.4016010999994,709.4016010999994,711.4015479,711.4015479,711.4015479,711.4015479,711.3860689000003,3,None,1.7551780000003419,0.19723699999940436,,,,,,,,,,,,,,,,,,,,,,2594,1,2025-10-22_20h13.04.433,sm,2024.2.4,59.94003598780302,2025-10-22 20h13.17.369235 +0200,
15,0,15,,,,,,space,1.7599272999996174,None,None,2,None,1.913817000000563,None,0,0,0,0,,,,,1,0,1,0,,,,,15,0,15,0,711.4015479,,,,,,,,,,,,,,,,,,,,,,,,,,,,,,,,,,,,,,,,,,,,,,,,,,,,,,,,,Party,2.0517,711.3865786999995,711.3870821,711.3871864000002,711.4015479,713.4679979000002,713.4525023999995,713.4567513000002,713.4679979000002,713.4679979000002,713.4679979000002,713.4679979000002,715.4681193999995,715.4681193999995,715.4681193999995,715.4681193999995,715.4526749999995,2,None,1.913817000000563,None,,,,,,,,,,,,,,,,,,,,,,2594,1,2025-10-22_20h13.04.433,sm,2024.2.4,59.94003598780302,2025-10-22 20h13.17.369235 +0200,
16,0,16,,,,,,space,1.7599272999996174,None,None,3,None,1.1337815999995655,0.21168039999975008,0,0,0,0,,,,,1,0,1,0,,,,,16,0,16,0,715.4681193999995,,,,,,,,,,,,,,,,,,,,,,,,,,,,,,,,,,,,,,,,,,,,,,,,,,,,,,,,,Klippe,2.5127,715.4532018999998,715.4537685999994,715.4538827999995,715.4681193999995,717.9842737999998,717.9688471999998,717.9729393999996,717.9842737999998,717.9842737999998,717.9842737999998,717.9842737999998,719.9844487,719.9844487,719.9844487,719.9844487,719.9687195999995,3,None,1.1337815999995655,0.21168039999975008,,,,,,,,,,,,,,,,,,,,,,2594,1,2025-10-22_20h13.04.433,sm,2024.2.4,59.94003598780302,2025-10-22 20h13.17.369235 +0200,
17,0,17,,,,,,space,1.7599272999996174,None,None,2,None,1.1622612999999546,0.18849210000007588,0,0,0,0,,,,,1,0,1,0,,,,,17,0,17,0,719.9844487,,,,,,,,,,,,,,,,,,,,,,,,,,,,,,,,,,,,,,,,,,,,,,,,,,,,,,,,,Feier,2.2484,719.9692287999997,719.9697344999995,719.9698373000001,719.9844487,722.2340193999999,722.218468,722.2219420000001,722.2340193999999,722.2340193999999,722.2340193999999,722.2340193999999,724.2342178999997,724.2342178999997,724.2342178999997,724.2342178999997,724.2189515,2,None,1.1622612999999546,0.18849210000007588,,,,,,,,,,,,,,,,,,,,,,2594,1,2025-10-22_20h13.04.433,sm,2024.2.4,59.94003598780302,2025-10-22 20h13.17.369235 +0200,
18,0,18,,,,,,space,1.7599272999996174,None,None,2,None,1.6989777999997386,0.16657490000034159,0,0,0,0,,,,,1,0,1,0,,,,,18,0,18,0,724.2342178999997,,,,,,,,,,,,,,,,,,,,,,,,,,,,,,,,,,,,,,,,,,,,,,,,,,,,,,,,,Kunde,4.2495,724.2194647999995,724.2200382999999,724.2201416999997,724.2342178999997,728.4837484,728.468355,728.4723045999999,728.4837484,728.4837484,728.4837484,728.4837484,730.4839420999997,730.4839420999997,730.4839420999997,730.4839420999997,730.4682382000001,2,None,1.6989777999997386,0.16657490000034159,,,,,,,,,,,,,,,,,,,,,,2594,1,2025-10-22_20h13.04.433,sm,2024.2.4,59.94003598780302,2025-10-22 20h13.17.369235 +0200,
19,0,19,,,,,,space,1.7599272999996174,None,None,3,None,0.9637299000005441,0.22811639999963518,0,0,0,0,,,,,1,0,1,0,,,,,19,0,19,0,730.4839420999997,,,,,,,,,,,,,,,,,,,,,,,,,,,,,,,,,,,,,,,,,,,,,,,,,,,,,,,,,Loch,2.1199,730.4687463999999,730.4692561000002,730.4693631999999,730.4839420999997,732.6170086000002,732.6012541999999,732.6048223999996,732.6170086000002,732.6170086000002,732.6170086000002,732.6170086000002,734.6168443999995,734.6168443999995,734.6168443999995,734.6168443999995,734.6013132999997,3,None,0.9637299000005441,0.22811639999963518,,,,,,,,,,,,,,,,,,,,,,2594,1,2025-10-22_20h13.04.433,sm,2024.2.4,59.94003598780302,2025-10-22 20h13.17.369235 +0200,
20,0,20,,,,,,space,1.7599272999996174,None,None,3,None,1.700582299999951,0.20643119999931514,0,0,0,0,,,,,1,0,1,0,,,,,20,0,20,0,734.6168443999995,,,,,,,,,,,,,,,,,,,,,,,,,,,,,,,,,,,,,,,,,,,,,,,,,,,,,,,,,Film,2.3052,734.6018256999996,734.6023410999996,734.6024443999995,734.6168443999995,736.9331204,736.9182246,736.9218813999996,736.9331204,736.9331204,736.9331204,736.9331204,738.9332175,738.9332175,738.9332175,738.9332175,738.9177023000002,3,None,1.700582299999951,0.20643119999931514,,,,,,,,,,,,,,,,,,,,,,2594,1,2025-10-22_20h13.04.433,sm,2024.2.4,59.94003598780302,2025-10-22 20h13.17.369235 +0200,
21,0,21,,,,,,space,1.7599272999996174,None,None,2,None,1.5655991999992693,0.17829470000015135,0,0,0,0,,,,,1,0,1,0,,,,,21,0,21,0,738.9332175,,,,,,,,,,,,,,,,,,,,,,,,,,,,,,,,,,,,,,,,,,,,,,,,,,,,,,,,,Ei,3.5485,738.9182076999996,738.9188563999996,738.9189588999998,738.9332175,742.4828620999997,742.4673358,742.4707008999994,742.4828620999997,742.4828620999997,742.4828620999997,742.4828620999997,744.4829613000002,744.4829613000002,744.4829613000002,744.4829613000002,744.4672866999999,2,None,1.5655991999992693,0.17829470000015135,,,,,,,,,,,,,,,,,,,,,,2594,1,2025-10-22_20h13.04.433,sm,2024.2.4,59.94003598780302,2025-10-22 20h13.17.369235 +0200,
22,0,22,,,,,,space,1.7599272999996174,None,None,3,None,1.7325789999995322,0.21230999999988853,0,0,0,0,,,,,1,0,1,0,,,,,22,0,22,0,744.4829613000002,,,,,,,,,,,,,,,,,,,,,,,,,,,,,,,,,,,,,,,,,,,,,,,,,,,,,,,,,Universität,5.7554,744.4677974999995,744.4684495000001,744.4685545000002,744.4829613000002,750.2493147999994,750.2334375,750.2380176999995,750.2493147999994,750.2493147999994,750.2493147999994,750.2493147999994,752.2492873000001,752.2492873000001,752.2492873000001,752.2492873000001,752.2336994999996,3,None,1.7325789999995322,0.21230999999988853,,,,,,,,,,,,,,,,,,,,,,2594,1,2025-10-22_20h13.04.433,sm,2024.2.4,59.94003598780302,2025-10-22 20h13.17.369235 +0200,
23,0,23,,,,,,space,1.7599272999996174,None,None,3,None,1.0648884000002,0.2251893000002383,0,0,0,0,,,,,1,0,1,0,,,,,23,0,23,0,752.2492873000001,,,,,,,,,,,,,,,,,,,,,,,,,,,,,,,,,,,,,,,,,,,,,,,,,,,,,,,,,Medaille,3.5874,752.2342023000001,752.2347112999996,752.2348143999998,752.2492873000001,755.8486397999995,755.8330521999997,755.8368193999995,755.8486397999995,755.8486397999995,755.8486397999995,755.8486397999995,757.8487286999998,757.8487286999998,757.8487286999998,757.8487286999998,757.8331539000001,3,None,1.0648884000002,0.2251893000002383,,,,,,,,,,,,,,,,,,,,,,2594,1,2025-10-22_20h13.04.433,sm,2024.2.4,59.94003598780302,2025-10-22 20h13.17.369235 +0200,
24,0,24,,,,,,space,1.7599272999996174,None,None,3,None,0.7468588000001546,0.22830859999976383,0,0,0,0,,,,,1,0,1,0,,,,,24,0,24,0,757.8487286999998,,,,,,,,,,,,,,,,,,,,,,,,,,,,,,,,,,,,,,,,,,,,,,,,,,,,,,,,,Tür,2.0612,757.8336585999996,757.8342309,757.8343353,757.8487286999998,759.9152039,759.8998904,759.9034633000001,759.9152039,759.9152039,759.9152039,759.9152039,761.9154570000001,761.9154570000001,761.9154570000001,761.9154570000001,761.9003673999996,3,None,0.7468588000001546,0.22830859999976383,,,,,,,,,,,,,,,,,,,,,,2594,1,2025-10-22_20h13.04.433,sm,2024.2.4,59.94003598780302,2025-10-22 20h13.17.369235 +0200,
25,0,25,,,,,,space,1.7599272999996174,None,None,3,None,1.2503642000001491,0.21626190000006318,0,0,0,0,,,,,1,0,1,0,,,,,25,0,25,0,761.9154570000001,,,,,,,,,,,,,,,,,,,,,,,,,,,,,,,,,,,,,,,,,,,,,,,,,,,,,,,,,Farbe,2.8664,761.9008707000003,761.9015103000002,761.9016133999994,761.9154570000001,764.7816634999999,764.7662018999999,764.7702880999996,764.7816634999999,764.7816634999999,764.7816634999999,764.7816634999999,766.7817481000002,766.7817481000002,766.7817481000002,766.7817481000002,766.7660393999995,3,None,1.2503642000001491,0.21626190000006318,,,,,,,,,,,,,,,,,,,,,,2594,1,2025-10-22_20h13.04.433,sm,2024.2.4,59.94003598780302,2025-10-22 20h13.17.369235 +0200,
26,0,26,,,,,,space,1.7599272999996174,None,None,2,None,0.994439400000374,0.20935129999998026,0,0,0,0,,,,,1,0,1,0,,,,,26,0,26,0,766.7817481000002,,,,,,,,,,,,,,,,,,,,,,,,,,,,,,,,,,,,,,,,,,,,,,,,,,,,,,,,,Blatt,2.238,766.7665205000003,766.7670106999994,766.7671081999997,766.7817481000002,769.0314493999995,769.0157570000001,769.0193192999996,769.0314493999995,769.0314493999995,769.0314493999995,769.0314493999995,771.0314208999998,771.0314208999998,771.0314208999998,771.0314208999998,771.0157511999996,2,None,0.994439400000374,0.20935129999998026,,,,,,,,,,,,,,,,,,,,,,2594,1,2025-10-22_20h13.04.433,sm,2024.2.4,59.94003598780302,2025-10-22 20h13.17.369235 +0200,
27,0,27,,,,,,space,1.7599272999996174,None,None,2,None,1.1953960999999254,0.19452799999999115,0,0,0,0,,,,,1,0,1,0,,,,,27,0,27,0,771.0314208999998,,,,,,,,,,,,,,,,,,,,,,,,,,,,,,,,,,,,,,,,,,,,,,,,,,,,,,,,,Turnerin,2.0538,771.0162633999998,771.0169096999998,771.0170132000003,771.0314208999998,773.0975677999995,773.0825734999999,773.0873301000001,773.0975677999995,773.0975677999995,773.0975677999995,773.0975677999995,775.0978662999996,775.0978662999996,775.0978662999996,775.0978662999996,775.0821954000003,2,None,1.1953960999999254,0.19452799999999115,,,,,,,,,,,,,,,,,,,,,,2594,1,2025-10-22_20h13.04.433,sm,2024.2.4,59.94003598780302,2025-10-22 20h13.17.369235 +0200,
28,0,28,,,,,,space,1.7599272999996174,None,None,3,None,0.8622489999997924,0.21954689999984112,0,0,0,0,,,,,1,0,1,0,,,,,28,0,28,0,775.0978662999996,,,,,,,,,,,,,,,,,,,,,,,,,,,,,,,,,,,,,,,,,,,,,,,,,,,,,,,,,Juwel,2.4825,775.0827125999995,775.0832203,775.0833235,775.0978662999996,777.5807709000001,777.5653579,777.5717543000001,777.5807709000001,777.5807709000001,777.5807709000001,777.5807709000001,779.5809669999999,779.5809669999999,779.5809669999999,779.5809669999999,779.5654417999995,3,None,0.8622489999997924,0.21954689999984112,,,,,,,,,,,,,,,,,,,,,,2594,1,2025-10-22_20h13.04.433,sm,2024.2.4,59.94003598780302,2025-10-22 20h13.17.369235 +0200,
29,0,29,,,,,,space,1.7599272999996174,None,None,2,None,0.728819800000565,0.19407589999991615,0,0,0,0,,,,,1,0,1,0,,,,,29,0,29,0,779.5809669999999,,,,,,,,,,,,,,,,,,,,,,,,,,,,,,,,,,,,,,,,,,,,,,,,,,,,,,,,,Leute,3.4074,779.5659501999999,779.5665564999999,779.5666611999995,779.5809669999999,782.9972617000003,782.9819505999994,782.9858769000002,782.9972617000003,782.9972617000003,782.9972617000003,782.9972617000003,784.9975487000002,784.9975487000002,784.9975487000002,784.9975487000002,784.9819596999996,2,None,0.728819800000565,0.19407589999991615,,,,,,,,,,,,,,,,,,,,,,2594,1,2025-10-22_20h13.04.433,sm,2024.2.4,59.94003598780302,2025-10-22 20h13.17.369235 +0200,
30,0,30,,,,,,space,1.7599272999996174,None,None,3,None,0.7135486999995919,0.23536460000013903,0,0,0,0,,,,,1,0,1,0,,,,,30,0,30,0,784.9975487000002,,,,,,,,,,,,,,,,,,,,,,,,,,,,,,,,,,,,,,,,,,,,,,,,,,,,,,,,,Dusche,2.1814,784.9824609999996,784.9831045999999,784.9832065,784.9975487000002,787.1804766999994,787.1649448999997,787.1689870999999,787.1804766999994,787.1804766999994,787.1804766999994,787.1804766999994,789.1801282999995,789.1801282999995,789.1801282999995,789.1801282999995,789.1643552999994,3,None,0.7135486999995919,0.23536460000013903,,,,,,,,,,,,,,,,,,,,,,2594,1,2025-10-22_20h13.04.433,sm,2024.2.4,59.94003598780302,2025-10-22 20h13.17.369235 +0200,
31,0,31,,,,,,space,1.7599272999996174,None,None,2,None,1.356075100000453,0.15150509999966744,0,0,0,0,,,,,1,0,1,0,,,,,31,0,31,0,789.1801282999995,,,,,,,,,,,,,,,,,,,,,,,,,,,,,,,,,,,,,,,,,,,,,,,,,,,,,,,,,Sumpf,2.0009,789.1648218999999,789.1652595999994,789.1653525000002,789.1801282999995,791.1791891000003,791.1642499,791.1657785999996,791.1791891000003,791.1791891000003,791.1791891000003,791.1791891000003,793.1805050000003,793.1805050000003,793.1805050000003,793.1805050000003,793.1647943999997,2,None,1.356075100000453,0.15150509999966744,,,,,,,,,,,,,,,,,,,,,,2594,1,2025-10-22_20h13.04.433,sm,2024.2.4,59.94003598780302,2025-10-22 20h13.17.369235 +0200,
32,0,32,,,,,,space,1.7599272999996174,None,None,3,None,1.416553500000191,0.1966737999991892,0,0,0,0,,,,,1,0,1,0,,,,,32,0,32,0,793.1805050000003,,,,,,,,,,,,,,,,,,,,,,,,,,,,,,,,,,,,,,,,,,,,,,,,,,,,,,,,,Flut,3.0911,793.1653034999999,793.1659418999998,793.1660452999995,793.1805050000003,796.2800224000002,796.2645559000002,796.2675665999996,796.2800224000002,796.2800224000002,796.2800224000002,796.2800224000002,798.2799552999995,798.2799552999995,798.2799552999995,798.2799552999995,798.264373,3,None,1.416553500000191,0.1966737999991892,,,,,,,,,,,,,,,,,,,,,,2594,1,2025-10-22_20h13.04.433,sm,2024.2.4,59.94003598780302,2025-10-22 20h13.17.369235 +0200,
33,0,33,,,,,,space,1.7599272999996174,None,None,2,None,1.1661297999999078,0.18469490000006772,0,0,0,0,,,,,1,0,1,0,,,,,33,0,33,0,798.2799552999995,,,,,,,,,,,,,,,,,,,,,,,,,,,,,,,,,,,,,,,,,,,,,,,,,,,,,,,,,Fledermaus,3.3397,798.2648841,798.2654334999997,798.2655366999998,798.2799552999995,801.6292728999997,801.6142493999996,801.6201564000003,801.6292728999997,801.6292728999997,801.6292728999997,801.6292728999997,803.6295491999999,803.6295491999999,803.6295491999999,803.6295491999999,803.6142482999994,2,None,1.1661297999999078,0.18469490000006772,,,,,,,,,,,,,,,,,,,,,,2594,1,2025-10-22_20h13.04.433,sm,2024.2.4,59.94003598780302,2025-10-22 20h13.17.369235 +0200,
34,0,34,,,,,,space,1.7599272999996174,None,None,2,None,1.4350508999996237,0.19864599999982602,0,0,0,0,,,,,1,0,1,0,,,,,34,0,34,0,803.6295491999999,,,,,,,,,,,,,,,,,,,,,,,,,,,,,,,,,,,,,,,,,,,,,,,,,,,,,,,,,Angriff,4.1076,803.6147598999996,803.6152733999998,803.6153783999998,803.6295491999999,807.7459094999995,807.7303243999995,807.7344527999994,807.7459094999995,807.7459094999995,807.7459094999995,807.7459094999995,809.7460486,809.7460486,809.7460486,809.7460486,809.7305716000001,2,None,1.4350508999996237,0.19864599999982602,,,,,,,,,,,,,,,,,,,,,,2594,1,2025-10-22_20h13.04.433,sm,2024.2.4,59.94003598780302,2025-10-22 20h13.17.369235 +0200,
35,0,35,,,,,,space,1.7599272999996174,None,None,3,None,1.3504149000000325,0.20418770000014774,0,0,0,0,,,,,1,0,1,0,,,,,35,0,35,0,809.7460486,,,,,,,,,,,,,,,,,,,,,,,,,,,,,,,,,,,,,,,,,,,,,,,,,,,,,,,,,Harmonie,4.1797,809.7310809,809.7315731999997,809.7316755000002,809.7460486,813.9287660999998,813.9134697999998,813.9176244,813.9287660999998,813.9287660999998,813.9287660999998,813.9287660999998,815.9289306000001,815.9289306000001,815.9289306000001,815.9289306000001,815.9135476000001,3,None,1.3504149000000325,0.20418770000014774,,,,,,,,,,,,,,,,,,,,,,2594,1,2025-10-22_20h13.04.433,sm,2024.2.4,59.94003598780302,2025-10-22 20h13.17.369235 +0200,
36,0,36,,,,,,space,1.7599272999996174,None,None,3,None,0.8463347999995676,0.21538500000042404,0,0,0,0,,,,,1,0,1,0,,,,,36,0,36,0,815.9289306000001,,,,,,,,,,,,,,,,,,,,,,,,,,,,,,,,,,,,,,,,,,,,,,,,,,,,,,,,,Tasche,4.5629,815.9140662,815.9145800999995,815.9146844999996,815.9289306000001,820.4952802999996,820.4794298999996,820.4828203999996,820.4952802999996,820.4952802999996,820.4952802999996,820.4952802999996,822.4951284999997,822.4951284999997,822.4951284999997,822.4951284999997,822.4796028000001,3,None,0.8463347999995676,0.21538500000042404,,,,,,,,,,,,,,,,,,,,,,2594,1,2025-10-22_20h13.04.433,sm,2024.2.4,59.94003598780302,2025-10-22 20h13.17.369235 +0200,
37,0,37,,,,,,space,1.7599272999996174,None,None,3,None,1.0839262999998027,0.17754389999936393,0,0,0,0,,,,,1,0,1,0,,,,,37,0,37,0,822.4951284999997,,,,,,,,,,,,,,,,,,,,,,,,,,,,,,,,,,,,,,,,,,,,,,,,,,,,,,,,,Salz,2.6121,822.4801096000001,822.4806063999995,822.4807087999998,822.4951284999997,825.1124583000001,825.0959303999998,825.0990359999996,825.1124583000001,825.1124583000001,825.1124583000001,825.1124583000001,827.1114910999995,827.1114910999995,827.1114910999995,827.1114910999995,827.0960726000003,3,None,1.0839262999998027,0.17754389999936393,,,,,,,,,,,,,,,,,,,,,,2594,1,2025-10-22_20h13.04.433,sm,2024.2.4,59.94003598780302,2025-10-22 20h13.17.369235 +0200,
38,0,38,,,,,,space,1.7599272999996174,None,None,2,None,1.6521640999999363,0.20486150000033376,0,0,0,0,,,,,1,0,1,0,,,,,38,0,38,0,827.1114910999995,,,,,,,,,,,,,,,,,,,,,,,,,,,,,,,,,,,,,,,,,,,,,,,,,,,,,,,,,Bücher,2.995,827.0965813000003,827.0971049,827.0972088999997,827.1114910999995,830.1117729999996,830.0957491999998,830.0993860999997,830.1117729999996,830.1117729999996,830.1117729999996,830.1117729999996,832.1112364,832.1112364,832.1112364,832.1112364,832.0958355000002,2,None,1.6521640999999363,0.20486150000033376,,,,,,,,,,,,,,,,,,,,,,2594,1,2025-10-22_20h13.04.433,sm,2024.2.4,59.94003598780302,2025-10-22 20h13.17.369235 +0200,
39,0,39,,,,,,space,1.7599272999996174,None,None,None,None,,,0,0,0,0,,,,,1,0,1,0,,,,,39,0,39,0,832.1112364,,,,,,,,,,,,,,,,,,,,,,,,,,,,,,,,,,,,,,,,,,,,,,,,,,,,,,,,,Komödie,2.1083,832.0963439999996,832.0969131000002,832.0970201,832.1112364,834.2276593999995,834.2121999999999,834.2164229999998,834.2276593999995,834.2276593999995,834.2276593999995,834.2276593999995,836.2280289999999,836.2280289999999,836.2280289999999,836.2280289999999,836.2121041,None,None,,,,,,,,,,,,,,,,,,,,,,,,2594,1,2025-10-22_20h13.04.433,sm,2024.2.4,59.94003598780302,2025-10-22 20h13.17.369235 +0200,
40,0,40,,,,,,space,1.7599272999996174,None,None,2,None,1.2194374000000607,0.17054899999948248,0,0,0,0,,,,,1,0,1,0,,,,,40,0,40,0,836.2280289999999,,,,,,,,,,,,,,,,,,,,,,,,,,,,,,,,,,,,,,,,,,,,,,,,,,,,,,,,,Nebel,2.0594,836.2125854999995,836.2130822999998,836.2131897999998,836.2280289999999,838.2943495,838.2785423999994,838.2835851999998,838.2943495,838.2943495,838.2943495,838.2943495,840.2944915999997,840.2944915999997,840.2944915999997,840.2944915999997,840.2795945999997,2,None,1.2194374000000607,0.17054899999948248,,,,,,,,,,,,,,,,,,,,,,2594,1,2025-10-22_20h13.04.433,sm,2024.2.4,59.94003598780302,2025-10-22 20h13.17.369235 +0200,
41,0,41,,,,,,space,1.7599272999996174,None,None,3,None,0.7621029000001727,0.2044538999998622,0,0,0,0,,,,,1,0,1,0,,,,,41,0,41,0,840.2944915999997,,,,,,,,,,,,,,,,,,,,,,,,,,,,,,,,,,,,,,,,,,,,,,,,,,,,,,,,,Saft,2.3307,840.2801266999995,840.2807790999996,840.2808827999997,840.2944915999997,842.6271254000003,842.6115223999996,842.6149045000002,842.6271254000003,842.6271254000003,842.6271254000003,842.6271254000003,844.6273288000002,844.6273288000002,844.6273288000002,844.6273288000002,844.6116077999995,3,None,0.7621029000001727,0.2044538999998622,,,,,,,,,,,,,,,,,,,,,,2594,1,2025-10-22_20h13.04.433,sm,2024.2.4,59.94003598780302,2025-10-22 20h13.17.369235 +0200,
42,0,42,,,,,,space,1.7599272999996174,None,None,3,None,1.1628571999999622,0.2384180999997625,0,0,0,0,,,,,1,0,1,0,,,,,42,0,42,0,844.6273288000002,,,,,,,,,,,,,,,,,,,,,,,,,,,,,,,,,,,,,,,,,,,,,,,,,,,,,,,,,Sendung,5.2747,844.6121093000002,844.6127495999999,844.6128534999998,844.6273288000002,849.9101036000002,849.8944187999996,849.8979202,849.9101036000002,849.9101036000002,849.9101036000002,849.9101036000002,851.9101111,851.9101111,851.9101111,851.9101111,851.8947803000001,3,None,1.1628571999999622,0.2384180999997625,,,,,,,,,,,,,,,,,,,,,,2594,1,2025-10-22_20h13.04.433,sm,2024.2.4,59.94003598780302,2025-10-22 20h13.17.369235 +0200,
43,0,43,,,,,,space,1.7599272999996174,None,None,3,None,1.4850413000003755,0.18889430000035645,0,0,0,0,,,,,1,0,1,0,,,,,43,0,43,0,851.9101111,,,,,,,,,,,,,,,,,,,,,,,,,,,,,,,,,,,,,,,,,,,,,,,,,,,,,,,,,Bluse,2.2764,851.8952939999999,851.8958096999995,851.8959114999998,851.9101111,854.1932457000003,854.1777808999996,854.1818173000001,854.1932457000003,854.1932457000003,854.1932457000003,854.1932457000003,856.1934173,856.1934173,856.1934173,856.1934173,856.1778329999997,3,None,1.4850413000003755,0.18889430000035645,,,,,,,,,,,,,,,,,,,,,,2594,1,2025-10-22_20h13.04.433,sm,2024.2.4,59.94003598780302,2025-10-22 20h13.17.369235 +0200,
44,0,44,,,,,,space,1.7599272999996174,None,None,2,None,1.1688955000008718,0.15751879999970697,0,0,0,0,,,,,1,0,1,0,,,,,44,0,44,0,856.1934173,,,,,,,,,,,,,,,,,,,,,,,,,,,,,,,,,,,,,,,,,,,,,,,,,,,,,,,,,Blätter,3.173,856.1783419000003,856.1790681000002,856.1791746999997,856.1934173,859.3762510999995,859.3606666999995,859.3649036999996,859.3762510999995,859.3762510999995,859.3762510999995,859.3762510999995,861.3762507000001,861.3762507000001,861.3762507000001,861.3762507000001,861.3607775,2,None,1.1688955000008718,0.15751879999970697,,,,,,,,,,,,,,,,,,,,,,2594,1,2025-10-22_20h13.04.433,sm,2024.2.4,59.94003598780302,2025-10-22 20h13.17.369235 +0200,
45,0,45,,,,,,space,1.7599272999996174,None,None,2,None,1.3455394000002343,0.17051720000017667,0,0,0,0,,,,,1,0,1,0,,,,,45,0,45,0,861.3762507000001,,,,,,,,,,,,,,,,,,,,,,,,,,,,,,,,,,,,,,,,,,,,,,,,,,,,,,,,,Zeit,2.598,861.3612891000002,861.3618019999994,861.3619050999996,861.3762507000001,863.9760131000003,863.9605553000001,863.9646770999998,863.9760131000003,863.9760131000003,863.9760131000003,863.9760131000003,865.9762175999995,865.9762175999995,865.9762175999995,865.9762175999995,865.9604915,2,None,1.3455394000002343,0.17051720000017667,,,,,,,,,,,,,,,,,,,,,,2594,1,2025-10-22_20h13.04.433,sm,2024.2.4,59.94003598780302,2025-10-22 20h13.17.369235 +0200,
46,0,46,,,,,,space,1.7599272999996174,None,None,3,None,1.755445800000416,0.18424989999948593,0,0,0,0,,,,,1,0,1,0,,,,,46,0,46,0,865.9762175999995,,,,,,,,,,,,,,,,,,,,,,,,,,,,,,,,,,,,,,,,,,,,,,,,,,,,,,,,,Schnee,4.5866,865.9609969000003,865.9616685999999,865.9617744999996,865.9762175999995,870.5754307999996,870.5597734000003,870.5640447999995,870.5754307999996,870.5754307999996,870.5754307999996,870.5754307999996,872.5756561999997,872.5756561999997,872.5756561999997,872.5756561999997,872.5601834999998,3,None,1.755445800000416,0.18424989999948593,,,,,,,,,,,,,,,,,,,,,,2594,1,2025-10-22_20h13.04.433,sm,2024.2.4,59.94003598780302,2025-10-22 20h13.17.369235 +0200,
47,0,47,,,,,,space,1.7599272999996174,None,None,2,None,0.9365575000001627,0.2125540999995792,0,0,0,0,,,,,1,0,1,0,,,,,47,0,47,0,872.5756561999997,,,,,,,,,,,,,,,,,,,,,,,,,,,,,,,,,,,,,,,,,,,,,,,,,,,,,,,,,Baum,2.5683,872.5606951,872.5611994000001,872.5613007000002,872.5756561999997,875.1584424000002,875.1430086999999,875.1460861999994,875.1584424000002,875.1584424000002,875.1584424000002,875.1584424000002,877.1585481000002,877.1585481000002,877.1585481000002,877.1585481000002,877.1433135999996,2,None,0.9365575000001627,0.2125540999995792,,,,,,,,,,,,,,,,,,,,,,2594,1,2025-10-22_20h13.04.433,sm,2024.2.4,59.94003598780302,2025-10-22 20h13.17.369235 +0200,
48,0,48,,,,,,space,1.7599272999996174,None,None,2,None,0.798607699999593,0.1914388000004692,0,0,0,0,,,,,1,0,1,0,,,,,48,0,48,0,877.1585481000002,,,,,,,,,,,,,,,,,,,,,,,,,,,,,,,,,,,,,,,,,,,,,,,,,,,,,,,,,Kopf,2.1524,877.1438244000001,877.1443392000001,877.1444450999998,877.1585481000002,879.3250232999999,879.3090474,879.3115344999997,879.3250232999999,879.3250232999999,879.3250232999999,879.3250232999999,881.3251401999996,881.3251401999996,881.3251401999996,881.3251401999996,881.3093719999997,2,None,0.798607699999593,0.1914388000004692,,,,,,,,,,,,,,,,,,,,,,2594,1,2025-10-22_20h13.04.433,sm,2024.2.4,59.94003598780302,2025-10-22 20h13.17.369235 +0200,
49,0,49,,,,,,space,1.7599272999996174,None,None,3,None,1.0737220000000889,0.188598899999306,0,0,0,0,,,,,1,0,1,0,,,,,49,0,49,0,881.3251401999996,,,,,,,,,,,,,,,,,,,,,,,,,,,,,,,,,,,,,,,,,,,,,,,,,,,,,,,,,Schuh,2.5377,881.3097467999996,881.3102219000002,881.3102965999997,881.3251401999996,883.8753864,883.8593107999995,883.8632539,883.8753864,883.8753864,883.8753864,883.8753864,885.8748643999998,885.8748643999998,885.8748643999998,885.8748643999998,885.8592005999999,3,None,1.0737220000000889,0.188598899999306,,,,,,,,,,,,,,,,,,,,,,2594,1,2025-10-22_20h13.04.433,sm,2024.2.4,59.94003598780302,2025-10-22 20h13.17.369235 +0200,
50,0,50,,,,,,space,1.7599272999996174,None,None,3,None,1.3825759000001199,0.16602920000059385,0,0,0,0,,,,,1,0,1,0,,,,,50,0,50,0,885.8748643999998,,,,,,,,,,,,,,,,,,,,,,,,,,,,,,,,,,,,,,,,,,,,,,,,,,,,,,,,,Zug,2.0482,885.8597055999999,885.8603537999998,885.8604550999999,885.8748643999998,887.9247284000003,887.9090895999998,887.9126409999999,887.9247284000003,887.9247284000003,887.9247284000003,887.9247284000003,889.9245996999998,889.9245996999998,889.9245996999998,889.9245996999998,889.9090703000002,3,None,1.3825759000001199,0.16602920000059385,,,,,,,,,,,,,,,,,,,,,,2594,1,2025-10-22_20h13.04.433,sm,2024.2.4,59.94003598780302,2025-10-22 20h13.17.369235 +0200,
51,0,51,,,,,,space,1.7599272999996174,None,None,3,None,1.050505900000644,0.19288330000017595,0,0,0,0,,,,,1,0,1,0,,,,,51,0,51,0,889.9245996999998,,,,,,,,,,,,,,,,,,,,,,,,,,,,,,,,,,,,,,,,,,,,,,,,,,,,,,,,,Zimmer,2.1509,889.9095940999996,889.9101137999996,889.9102187999997,889.9245996999998,892.0744347,892.0588540999997,892.0634545000003,892.0744347,892.0744347,892.0744347,892.0744347,894.0746128000001,894.0746128000001,894.0746128000001,894.0746128000001,894.0588847999998,3,None,1.050505900000644,0.19288330000017595,,,,,,,,,,,,,,,,,,,,,,2594,1,2025-10-22_20h13.04.433,sm,2024.2.4,59.94003598780302,2025-10-22 20h13.17.369235 +0200,
52,0,52,,,,,,space,1.7599272999996174,None,None,3,None,1.0154306000003999,0.17980569999963336,0,0,0,0,,,,,1,0,1,0,,,,,52,0,52,0,894.0746128000001,,,,,,,,,,,,,,,,,,,,,,,,,,,,,,,,,,,,,,,,,,,,,,,,,,,,,,,,,Zucker,3.5552,894.0593890999999,894.0599089999996,894.0600104999994,894.0746128000001,897.6408435000003,897.6252389000001,897.6306428999997,897.6408435000003,897.6408435000003,897.6408435000003,897.6408435000003,899.6407165,899.6407165,899.6407165,899.6407165,899.6251437999999,3,None,1.0154306000003999,0.17980569999963336,,,,,,,,,,,,,,,,,,,,,,2594,1,2025-10-22_20h13.04.433,sm,2024.2.4,59.94003598780302,2025-10-22 20h13.17.369235 +0200,
53,0,53,,,,,,space,1.7599272999996174,None,None,2,None,0.901379399999314,0.19746410000061587,0,0,0,0,,,,,1,0,1,0,,,,,53,0,53,0,899.6407165,,,,,,,,,,,,,,,,,,,,,,,,,,,,,,,,,,,,,,,,,,,,,,,,,,,,,,,,,Weltraum,2.4546,899.6256590000003,899.6261550999998,899.6262583999996,899.6407165,902.1070522999999,902.0914850999998,902.0953487999996,902.1070522999999,902.1070522999999,902.1070522999999,902.1070522999999,904.1073019999994,904.1073019999994,904.1073019999994,904.1073019999994,904.0915407000002,2,None,0.901379399999314,0.19746410000061587,,,,,,,,,,,,,,,,,,,,,,2594,1,2025-10-22_20h13.04.433,sm,2024.2.4,59.94003598780302,2025-10-22 20h13.17.369235 +0200,
54,0,54,,,,,,space,1.7599272999996174,None,None,3,None,1.0430454000006648,0.2008704999998372,0,0,0,0,,,,,1,0,1,0,,,,,54,0,54,0,904.1073019999994,,,,,,,,,,,,,,,,,,,,,,,,,,,,,,,,,,,,,,,,,,,,,,,,,,,,,,,,,Asche,3.4454,904.0920478999997,904.0926994000001,904.0928045,904.1073019999994,907.5568708999999,907.5416499000003,907.5454267999994,907.5568708999999,907.5568708999999,907.5568708999999,907.5568708999999,909.5571007999997,909.5571007999997,909.5571007999997,909.5571007999997,909.5413908999999,3,None,1.0430454000006648,0.2008704999998372,,,,,,,,,,,,,,,,,,,,,,2594,1,2025-10-22_20h13.04.433,sm,2024.2.4,59.94003598780302,2025-10-22 20h13.17.369235 +0200,
55,0,55,,,,,,space,1.7599272999996174,None,None,3,None,0.9543192999999519,0.18891059999987192,0,0,0,0,,,,,1,0,1,0,,,,,55,0,55,0,909.5571007999997,,,,,,,,,,,,,,,,,,,,,,,,,,,,,,,,,,,,,,,,,,,,,,,,,,,,,,,,,Schläger,3.5453,909.5419003999996,909.5424096999996,909.5425125000002,909.5571007999997,913.1066332999999,913.0911257999996,913.0953043999998,913.1066332999999,913.1066332999999,913.1066332999999,913.1066332999999,915.1065845000003,915.1065845000003,915.1065845000003,915.1065845000003,915.0910462000002,3,None,0.9543192999999519,0.18891059999987192,,,,,,,,,,,,,,,,,,,,,,2594,1,2025-10-22_20h13.04.433,sm,2024.2.4,59.94003598780302,2025-10-22 20h13.17.369235 +0200,
56,0,56,,,,,,space,1.7599272999996174,None,None,2,None,1.4528700999999273,0.16204360000028828,0,0,0,0,,,,,1,0,1,0,,,,,56,0,56,0,915.1065845000003,,,,,,,,,,,,,,,,,,,,,,,,,,,,,,,,,,,,,,,,,,,,,,,,,,,,,,,,,Finger,2.0838,915.0915574999999,915.0921066999999,915.0922155999997,915.1065845000003,917.1897915999998,917.1742726000002,917.1783267999999,917.1897915999998,917.1897915999998,917.1897915999998,917.1897915999998,919.1898356000002,919.1898356000002,919.1898356000002,919.1898356000002,919.1739909999997,2,None,1.4528700999999273,0.16204360000028828,,,,,,,,,,,,,,,,,,,,,,2594,1,2025-10-22_20h13.04.433,sm,2024.2.4,59.94003598780302,2025-10-22 20h13.17.369235 +0200,
57,0,57,,,,,,space,1.7599272999996174,None,None,3,None,1.489795000000413,0.17296129999976984,0,0,0,0,,,,,1,0,1,0,,,,,57,0,57,0,919.1898356000002,,,,,,,,,,,,,,,,,,,,,,,,,,,,,,,,,,,,,,,,,,,,,,,,,,,,,,,,,Anruf,2.5942,919.1744979999994,919.1750032999998,919.1751073999994,919.1898356000002,921.7894071999999,921.7739305999994,921.7777937999999,921.7894071999999,921.7894071999999,921.7894071999999,921.7894071999999,923.7896058999995,923.7896058999995,923.7896058999995,923.7896058999995,923.7738597999996,3,None,1.489795000000413,0.17296129999976984,,,,,,,,,,,,,,,,,,,,,,2594,1,2025-10-22_20h13.04.433,sm,2024.2.4,59.94003598780302,2025-10-22 20h13.17.369235 +0200,
58,0,58,,,,,,space,1.7599272999996174,None,None,None,None,,,0,0,0,0,,,,,1,0,1,0,,,,,58,0,58,0,923.7896058999995,,,,,,,,,,,,,,,,,,,,,,,,,,,,,,,,,,,,,,,,,,,,,,,,,,,,,,,,,Platz,2.0223,923.7743670999998,923.774958,923.7750618999999,923.7896058999995,925.8225907999995,925.8069139999998,925.8108636999996,925.8225907999995,925.8225907999995,925.8225907999995,925.8225907999995,927.8227068999995,927.8227068999995,927.8227068999995,927.8227068999995,927.8068359999997,None,None,,,,,,,,,,,,,,,,,,,,,,,,2594,1,2025-10-22_20h13.04.433,sm,2024.2.4,59.94003598780302,2025-10-22 20h13.17.369235 +0200,
59,0,59,,,,,,space,1.7599272999996174,None,None,2,None,1.1192535999998654,0.16545339999993303,0,0,0,0,,,,,1,0,1,0,,,,,59,0,59,0,927.8227068999995,,,,,,,,,,,,,,,,,,,,,,,,,,,,,,,,,,,,,,,,,,,,,,,,,,,,,,,,,Fisch,3.6907,927.8073114999997,927.8080351999997,927.8081442000002,927.8227068999995,931.5223323999999,931.5065635999999,931.5113400999999,931.5223323999999,931.5223323999999,931.5223323999999,931.5223323999999,933.5221959,933.5221959,933.5221959,933.5221959,933.5064604999998,2,None,1.1192535999998654,0.16545339999993303,,,,,,,,,,,,,,,,,,,,,,2594,1,2025-10-22_20h13.04.433,sm,2024.2.4,59.94003598780302,2025-10-22 20h13.17.369235 +0200,
60,0,60,,,,,,space,1.7599272999996174,None,None,3,None,1.4728158999996595,0.17858710000018618,0,0,0,0,,,,,1,0,1,0,,,,,60,0,60,0,933.5221959,,,,,,,,,,,,,,,,,,,,,,,,,,,,,,,,,,,,,,,,,,,,,,,,,,,,,,,,,Pflege,2.0739,933.5069650999994,933.5075445000002,933.507646,933.5221959,935.6051705999998,935.5895739999996,935.5934939999997,935.6051705999998,935.6051705999998,935.6051705999998,935.6051705999998,937.6055177999997,937.6055177999997,937.6055177999997,937.6055177999997,937.5896784999995,3,None,1.4728158999996595,0.17858710000018618,,,,,,,,,,,,,,,,,,,,,,2594,1,2025-10-22_20h13.04.433,sm,2024.2.4,59.94003598780302,2025-10-22 20h13.17.369235 +0200,
61,0,61,,,,,,space,1.7599272999996174,None,None,2,None,1.0597801000003528,0.1767093999997087,0,0,0,0,,,,,1,0,1,0,,,,,61,0,61,0,937.6055177999997,,,,,,,,,,,,,,,,,,,,,,,,,,,,,,,,,,,,,,,,,,,,,,,,,,,,,,,,,Herbst,3.5198,937.5901905999999,937.5907007999995,937.5908036000001,937.6055177999997,941.1383113000002,941.1227010000002,941.1267135999997,941.1383113000002,941.1383113000002,941.1383113000002,941.1383113000002,943.1384575000002,943.1384575000002,943.1384575000002,943.1384575000002,943.1227284999995,2,None,1.0597801000003528,0.1767093999997087,,,,,,,,,,,,,,,,,,,,,,2594,1,2025-10-22_20h13.04.433,sm,2024.2.4,59.94003598780302,2025-10-22 20h13.17.369235 +0200,
62,0,62,,,,,,space,1.7599272999996174,None,None,2,None,1.2569020999999339,0.1786579999998139,0,0,0,0,,,,,1,0,1,0,,,,,62,0,62,0,943.1384575000002,,,,,,,,,,,,,,,,,,,,,,,,,,,,,,,,,,,,,,,,,,,,,,,,,,,,,,,,,Agent,2.3422,943.1232426999995,943.1237462999998,943.1238548000001,943.1384575000002,945.4880572000002,945.4724330999998,945.4757632000001,945.4880572000002,945.4880572000002,945.4880572000002,945.4880572000002,947.4880471999995,947.4880471999995,947.4880471999995,947.4880471999995,947.4725639999997,2,None,1.2569020999999339,0.1786579999998139,,,,,,,,,,,,,,,,,,,,,,2594,1,2025-10-22_20h13.04.433,sm,2024.2.4,59.94003598780302,2025-10-22 20h13.17.369235 +0200,
63,0,63,,,,,,space,1.7599272999996174,None,None,2,None,0.8003912000003766,0.1504586000000927,0,0,0,0,,,,,1,0,1,0,,,,,63,0,63,0,947.4880471999995,,,,,,,,,,,,,,,,,,,,,,,,,,,,,,,,,,,,,,,,,,,,,,,,,,,,,,,,,Journalistin,2.7206,947.4730751999996,947.4736058999997,947.4737090999997,947.4880471999995,950.2210543000001,950.2054588999999,950.2102453999996,950.2210543000001,950.2210543000001,950.2210543000001,950.2210543000001,952.2199144999995,952.2199144999995,952.2199144999995,952.2199144999995,952.2044477999998,2,None,0.8003912000003766,0.1504586000000927,,,,,,,,,,,,,,,,,,,,,,2594,1,2025-10-22_20h13.04.433,sm,2024.2.4,59.94003598780302,2025-10-22 20h13.17.369235 +0200,
