thisN,thisTrialN,thisRepN,Cue,Target,Mediator1,Mediator2,iti,scanner_ready_press.keys,scanner_ready_press.rt,scanner_ready_press.duration,skip_trigger.keys,living_nonliving.keys,end_mapping.keys,living_nonliving.rt,living_nonliving.duration,blocks.thisRepN,blocks.thisTrialN,blocks.thisN,blocks.thisIndex,load_and_shuffle.thisRepN,load_and_shuffle.thisTrialN,load_and_shuffle.thisN,load_and_shuffle.thisIndex,runs.thisRepN,runs.thisTrialN,runs.thisN,runs.thisIndex,fm_key.keys,fm_key.rt,fm_key.duration,iti_loading_loop.thisRepN,iti_loading_loop.thisTrialN,iti_loading_loop.thisN,iti_loading_loop.thisIndex,semantic_mapping_run.thisRepN,semantic_mapping_run.thisTrialN,semantic_mapping_run.thisN,semantic_mapping_run.thisIndex,thisRow.t,notes,welcome.started,welcome_text.started,key_resp__welcome.started,welcome.stopped,key_resp__welcome.keys,key_resp__welcome.rt,key_resp__welcome.duration,scout.started,scout_text.started,key_resp.started,scout.stopped,key_resp.keys,key_resp.rt,key_resp.duration,instructions_semantic_mapping1.started,sm_instructions1_text.started,sm_instructions1_key.started,instructions_semantic_mapping1.stopped,sm_instructions1_key.keys,sm_instructions1_key.rt,sm_instructions1_key.duration,instructions_semantic_mapping2.started,sm_instructions2_text.started,sm_instructions2_key.started,instructions_semantic_mapping2.stopped,sm_instructions2_key.keys,sm_instructions2_key.rt,sm_instructions2_key.duration,reset_run.started,reset_run.stopped,shuffle_items.started,shuffle_items.stopped,set_up_runs.started,set_up_runs.stopped,load_iti.started,load_iti.stopped,prep_scanner.started,scanner_ready_press.started,ready_set_text.started,prep_scanner.stopped,runs.scanner_ready_press.keys,runs.scanner_ready_press.rt,runs.scanner_ready_press.duration,wait_for_trigger.started,starting_soon.started,skip_trigger.started,wait_for_trigger.stopped,runs.skip_trigger.keys,blank.started,begin_end_run_cross.started,sound_1.started,sound_1.stopped,sound_2.started,sound_2.stopped,blank.stopped,CurrentItem,CurrentITI,set_up_trial.started,set_up_trial.stopped,sm_iti.started,iti_cross.started,iti_cross.stopped,sm_iti.stopped,item.started,living_nonliving.started,end_mapping.started,living_nonliving_text.started,semantic_map_item.started,item.stopped,semantic_mapping_run.living_nonliving.keys,semantic_mapping_run.end_mapping.keys,living_nonliving.stopped,end_mapping.stopped,living_nonliving_text.stopped,semantic_map_item.stopped,semantic_mapping_run.living_nonliving.rt,semantic_mapping_run.living_nonliving.duration,fieldmap.started,fieldmap.stopped,runs.fm_key.keys,task_break.started,feeback_text.started,task_break_text.started,task_break_resp.started,feeback_text.stopped,task_break.stopped,runs.task_break_resp.keys,runs.task_break_resp.rt,runs.task_break_resp.duration,begin_end_run_cross.stopped,fm_text.started,fm_key.started,runs.fm_key.rt,runs.fm_key.duration,PID,MRI,date,expName,psychopyVersion,frameRate,expStart,
,,,,,,,,,,,,,,,,,,,,,,,,,,,,,,,,,,,,,,,,,0.0038088999999672524,0.00905120000061288,0.00905120000061288,5.315395000000535,space,5.283587599999919,None,,,,,,,,,,,,,,,,,,,,,,,,,,,,,,,,,,,,,,,,,,,,,,,,,,,,,,,,,,,,,,,,,,,,,,,,,,,,,,,,,,,,,,,,6113,1,2025-10-17_12h29.34.696,sm,2024.2.4,59.95078040919703,2025-10-17 12h29.43.791669 +0200,
,,,,,,,,,,,,,,,,,,,,,,,,,,,,,,,,,,,,,,,,,,,,,,,,5.315509700000803,5.3240710000000036,5.3240710000000036,76.75213190000068,space,71.40870919999998,None,,,,,,,,,,,,,,,,,,,,,,,,,,,,,,,,,,,,,,,,,,,,,,,,,,,,,,,,,,,,,,,,,,,,,,,,,,,,,,,,,6113,1,2025-10-17_12h29.34.696,sm,2024.2.4,59.95078040919703,2025-10-17 12h29.43.791669 +0200,
,,,,,,,,,,,,,,,,,,,,,,,,,,,,,,,,,,,,,,,,,,,,,,,,,,,,,,,76.75224479999997,76.76677569999993,76.76677569999993,87.8013118000008,2,11.021972700000333,None,,,,,,,,,,,,,,,,,,,,,,,,,,,,,,,,,,,,,,,,,,,,,,,,,,,,,,,,,,,,,,,,,,,,,,,,,,6113,1,2025-10-17_12h29.34.696,sm,2024.2.4,59.95078040919703,2025-10-17 12h29.43.791669 +0200,
,,,,,,,,,,,,,,,,,,,,,,,,,,,,,,,,,,,,,,,,,,,,,,,,,,,,,,,,,,,,,,87.80143060000046,87.81616420000046,87.81616420000046,97.30067230000077,2,9.465192800000295,None,,,,,,,,,,,,,,,,,,,,,,,,,,,,,,,,,,,,,,,,,,,,,,,,,,,,,,,,,,,,,,,,,,,6113,1,2025-10-17_12h29.34.696,sm,2024.2.4,59.95078040919703,2025-10-17 12h29.43.791669 +0200,
0,0,0,Akrobatin,Fliegen,Turnerin,Zirkus,4.1378,space,1.9258371000005354,None,None,None,None,,,0,0,0,0,0,79,79,66,0,0,0,0,,,,0,79,79,3,0,0,0,0,157.4953032000003,,,,,,,,,,,,,,,,,,,,,,,,,,,,,,97.30155800000011,97.30216960000052,97.36755510000057,97.3677875000003,97.37218690000009,97.37247060000027,97.40210890000071,97.40228139999999,97.4088271999999,97.41354150000006,97.41354150000006,99.35068500000034,space,1.9258371000005354,None,99.3508309000008,99.36563079999996,99.36563079999996,145.46438209999997,None,145.47309290000067,145.48177040000064,145.47975226666702,146.68419919999997,155.47879086666697,156.4852535,157.47920909999993,Feuer,4.1378,157.48057510000035,157.48136860000068,157.4845090000008,157.4953032000003,161.64609270000074,161.62963800000034,161.63634570000067,161.64609270000074,161.64609270000074,161.64609270000074,161.64609270000074,163.64526100000057,None,None,,,,,,,,,,,,,,,,,,,,,,,,6113,1,2025-10-17_12h29.34.696,sm,2024.2.4,59.95078040919703,2025-10-17 12h29.43.791669 +0200,
1,0,1,,,,,,space,1.9258371000005354,None,None,3,None,0.8994107999997141,0.16243000000031316,0,0,0,0,,,,,0,0,0,0,,,,,,,,1,0,1,0,163.66162729999996,,,,,,,,,,,,,,,,,,,,,,,,,,,,,,,,,,,,,,,,,,,,,,,,,,,,,,,,,Popcorn,2.8615,163.64570710000044,163.64637820000007,163.64649000000009,163.66162729999996,166.52805960000023,166.5125332000007,166.51897989999998,166.52805960000023,166.52805960000023,166.52805960000023,166.52805960000023,168.51237200000014,3,None,168.52818250000018,168.52818250000018,168.52818250000018,168.52818250000018,0.8994107999997141,0.16243000000031316,,,,,,,,,,,,,,,,,,6113,1,2025-10-17_12h29.34.696,sm,2024.2.4,59.95078040919703,2025-10-17 12h29.43.791669 +0200,
2,0,2,,,,,,space,1.9258371000005354,None,None,2,None,1.3008516999998392,0.18760389999988547,0,0,0,0,,,,,0,0,0,0,,,,,,,,2,0,2,0,168.52818250000018,,,,,,,,,,,,,,,,,,,,,,,,,,,,,,,,,,,,,,,,,,,,,,,,,,,,,,,,,Zeit,2.274,168.51284840000062,168.51333599999998,168.5134334000004,168.52818250000018,170.8112372000005,170.7957103000008,170.80163850000008,170.8112372000005,170.8112372000005,170.8112372000005,170.8112372000005,172.79537660000005,2,None,172.8111484000001,172.8111484000001,172.8111484000001,172.8111484000001,1.3008516999998392,0.18760389999988547,,,,,,,,,,,,,,,,,,6113,1,2025-10-17_12h29.34.696,sm,2024.2.4,59.95078040919703,2025-10-17 12h29.43.791669 +0200,
3,0,3,,,,,,space,1.9258371000005354,None,None,3,None,1.12611299999935,0.20763020000049437,0,0,0,0,,,,,0,0,0,0,,,,,,,,3,0,3,0,172.8111484000001,,,,,,,,,,,,,,,,,,,,,,,,,,,,,,,,,,,,,,,,,,,,,,,,,,,,,,,,,Schlamm,2.8351,172.79579809999996,172.7962690000004,172.7963604000006,172.8111484000001,175.66097590000027,175.6454999000007,175.64967359999991,175.66097590000027,175.66097590000027,175.66097590000027,175.66097590000027,177.64539530000002,3,None,177.6609126000003,177.6609126000003,177.6609126000003,177.6609126000003,1.12611299999935,0.20763020000049437,,,,,,,,,,,,,,,,,,6113,1,2025-10-17_12h29.34.696,sm,2024.2.4,59.95078040919703,2025-10-17 12h29.43.791669 +0200,
4,0,4,,,,,,space,1.9258371000005354,None,None,3,None,0.7475045999999566,0.2124298999997336,0,0,0,0,,,,,0,0,0,0,,,,,,,,4,0,4,0,177.6609126000003,,,,,,,,,,,,,,,,,,,,,,,,,,,,,,,,,,,,,,,,,,,,,,,,,,,,,,,,,Bett,2.7137,177.64589350000006,177.64654260000043,177.64664960000027,177.6609126000003,180.3772902999999,180.36189670000022,180.3656160999999,180.3772902999999,180.3772902999999,180.3772902999999,180.3772902999999,182.36217790000046,3,None,182.37743330000012,182.37743330000012,182.37743330000012,182.37743330000012,0.7475045999999566,0.2124298999997336,,,,,,,,,,,,,,,,,,6113,1,2025-10-17_12h29.34.696,sm,2024.2.4,59.95078040919703,2025-10-17 12h29.43.791669 +0200,
5,0,5,,,,,,space,1.9258371000005354,None,None,2,None,1.5736944000000221,0.17564240000046993,0,0,0,0,,,,,0,0,0,0,,,,,,,,5,0,5,0,182.37743330000012,,,,,,,,,,,,,,,,,,,,,,,,,,,,,,,,,,,,,,,,,,,,,,,,,,,,,,,,,Musik,2.6711,182.3626763000002,182.36317990000043,182.3632886000005,182.37743330000012,185.06013390000044,185.0448567000003,185.04845700000078,185.06013390000044,185.06013390000044,185.06013390000044,185.06013390000044,187.04484860000048,2,None,187.0602501000003,187.0602501000003,187.0602501000003,187.0602501000003,1.5736944000000221,0.17564240000046993,,,,,,,,,,,,,,,,,,6113,1,2025-10-17_12h29.34.696,sm,2024.2.4,59.95078040919703,2025-10-17 12h29.43.791669 +0200,
6,0,6,,,,,,space,1.9258371000005354,None,None,3,None,0.9560423000002629,0.20858620000035444,0,0,0,0,,,,,0,0,0,0,,,,,,,,6,0,6,0,187.0602501000003,,,,,,,,,,,,,,,,,,,,,,,,,,,,,,,,,,,,,,,,,,,,,,,,,,,,,,,,,Tube,2.4045,187.04535040000064,187.04586410000047,187.04597250000006,187.0602501000003,189.4769021000002,189.4610315,189.4640345000007,189.4769021000002,189.4769021000002,189.4769021000002,189.4769021000002,191.46132639999996,3,None,191.47695230000045,191.47695230000045,191.47695230000045,191.47695230000045,0.9560423000002629,0.20858620000035444,,,,,,,,,,,,,,,,,,6113,1,2025-10-17_12h29.34.696,sm,2024.2.4,59.95078040919703,2025-10-17 12h29.43.791669 +0200,
7,0,7,,,,,,space,1.9258371000005354,None,None,3,None,0.715999400000328,0.1795142000000851,0,0,0,0,,,,,0,0,0,0,,,,,,,,7,0,7,0,191.47695230000045,,,,,,,,,,,,,,,,,,,,,,,,,,,,,,,,,,,,,,,,,,,,,,,,,,,,,,,,,Schreibtisch,2.7971,191.46182580000004,191.46232920000057,191.4624375000003,191.47695230000045,194.27641760000006,194.26095570000052,194.2654934000002,194.27641760000006,194.27641760000006,194.27641760000006,194.27641760000006,196.26099700000032,3,None,196.27657240000008,196.27657240000008,196.27657240000008,196.27657240000008,0.715999400000328,0.1795142000000851,,,,,,,,,,,,,,,,,,6113,1,2025-10-17_12h29.34.696,sm,2024.2.4,59.95078040919703,2025-10-17 12h29.43.791669 +0200,
8,0,8,,,,,,space,1.9258371000005354,None,None,3,None,0.6670203999992736,0.15951430000041,0,0,0,0,,,,,0,0,0,0,,,,,,,,8,0,8,0,196.27657240000008,,,,,,,,,,,,,,,,,,,,,,,,,,,,,,,,,,,,,,,,,,,,,,,,,,,,,,,,,Nummer,2.0888,196.26150400000006,196.2620325000007,196.26214040000013,196.27657240000008,198.37631820000024,198.36063570000078,198.3654219,198.37631820000024,198.37631820000024,198.37631820000024,198.37631820000024,200.36054700000022,3,None,200.37641630000053,200.37641630000053,200.37641630000053,200.37641630000053,0.6670203999992736,0.15951430000041,,,,,,,,,,,,,,,,,,6113,1,2025-10-17_12h29.34.696,sm,2024.2.4,59.95078040919703,2025-10-17 12h29.43.791669 +0200,
9,0,9,,,,,,space,1.9258371000005354,None,None,2,None,1.0248228000000381,0.19605440000032104,0,0,0,0,,,,,0,0,0,0,,,,,,,,9,0,9,0,200.37641630000053,,,,,,,,,,,,,,,,,,,,,,,,,,,,,,,,,,,,,,,,,,,,,,,,,,,,,,,,,Anwalt,3.8382,200.36104760000035,200.3615604000006,200.36166709999998,200.37641630000053,204.22606480000013,204.21070390000023,204.21477950000008,204.22606480000013,204.22606480000013,204.22606480000013,204.22606480000013,206.21069979999993,2,None,206.22609980000016,206.22609980000016,206.22609980000016,206.22609980000016,1.0248228000000381,0.19605440000032104,,,,,,,,,,,,,,,,,,6113,1,2025-10-17_12h29.34.696,sm,2024.2.4,59.95078040919703,2025-10-17 12h29.43.791669 +0200,
10,0,10,,,,,,space,1.9258371000005354,None,None,2,None,0.9988769000001412,0.1654817999997249,0,0,0,0,,,,,0,0,0,0,,,,,,,,10,0,10,0,206.22609980000016,,,,,,,,,,,,,,,,,,,,,,,,,,,,,,,,,,,,,,,,,,,,,,,,,,,,,,,,,Fliegen,4.0479,206.21120020000035,206.2117261000003,206.21183330000076,206.22609980000016,210.27529630000026,210.2599192000007,210.26333610000074,210.27529630000026,210.27529630000026,210.27529630000026,210.27529630000026,212.26013370000055,2,None,212.27555699999994,212.27555699999994,212.27555699999994,212.27555699999994,0.9988769000001412,0.1654817999997249,,,,,,,,,,,,,,,,,,6113,1,2025-10-17_12h29.34.696,sm,2024.2.4,59.95078040919703,2025-10-17 12h29.43.791669 +0200,
11,0,11,,,,,,space,1.9258371000005354,None,None,3,None,0.7300633999993806,0.19689390000075946,0,0,0,0,,,,,0,0,0,0,,,,,,,,11,0,11,0,212.27555699999994,,,,,,,,,,,,,,,,,,,,,,,,,,,,,,,,,,,,,,,,,,,,,,,,,,,,,,,,,Spaghetti,2.6073,212.26063740000063,212.26114230000076,212.26125480000064,212.27555699999994,214.89189570000053,214.87634740000067,214.87991640000018,214.89189570000053,214.89189570000053,214.89189570000053,214.89189570000053,216.8766110000006,3,None,216.89192830000047,216.89192830000047,216.89192830000047,216.89192830000047,0.7300633999993806,0.19689390000075946,,,,,,,,,,,,,,,,,,6113,1,2025-10-17_12h29.34.696,sm,2024.2.4,59.95078040919703,2025-10-17 12h29.43.791669 +0200,
12,0,12,,,,,,space,1.9258371000005354,None,None,3,None,1.2883905000007871,0.17128599999978178,0,0,0,0,,,,,0,0,0,0,,,,,,,,12,0,12,0,216.89192830000047,,,,,,,,,,,,,,,,,,,,,,,,,,,,,,,,,,,,,,,,,,,,,,,,,,,,,,,,,Netz,2.1453,216.87712850000025,216.87764050000078,216.87774770000033,216.89192830000047,219.0418920000002,219.0261655000004,219.02971380000054,219.0418920000002,219.0418920000002,219.0418920000002,219.0418920000002,221.02614690000064,3,None,221.04160180000054,221.04160180000054,221.04160180000054,221.04160180000054,1.2883905000007871,0.17128599999978178,,,,,,,,,,,,,,,,,,6113,1,2025-10-17_12h29.34.696,sm,2024.2.4,59.95078040919703,2025-10-17 12h29.43.791669 +0200,
13,0,13,,,,,,space,1.9258371000005354,None,None,2,None,0.6634317999996711,0.18744799999967654,0,0,0,0,,,,,0,0,0,0,,,,,,,,13,0,13,0,221.04160180000054,,,,,,,,,,,,,,,,,,,,,,,,,,,,,,,,,,,,,,,,,,,,,,,,,,,,,,,,,Känguru,2.8034,221.02664330000061,221.02716349999992,221.0272743000005,221.04160180000054,223.8580348000005,223.84230710000065,223.84820209999998,223.8580348000005,223.8580348000005,223.8580348000005,223.8580348000005,225.8425283000006,2,None,225.8582292000001,225.8582292000001,225.8582292000001,225.8582292000001,0.6634317999996711,0.18744799999967654,,,,,,,,,,,,,,,,,,6113,1,2025-10-17_12h29.34.696,sm,2024.2.4,59.95078040919703,2025-10-17 12h29.43.791669 +0200,
14,0,14,,,,,,space,1.9258371000005354,None,None,2,None,1.33022660000006,0.1532852999998795,0,0,0,0,,,,,0,0,0,0,,,,,,,,14,0,14,0,225.8582292000001,,,,,,,,,,,,,,,,,,,,,,,,,,,,,,,,,,,,,,,,,,,,,,,,,,,,,,,,,Schule,2.6809,225.84303590000036,225.8435352000006,225.84364150000056,225.8582292000001,228.54125360000035,228.5252870000004,228.52916340000047,228.54125360000035,228.54125360000035,228.54125360000035,228.54125360000035,230.5256698000003,2,None,230.54107120000026,230.54107120000026,230.54107120000026,230.54107120000026,1.33022660000006,0.1532852999998795,,,,,,,,,,,,,,,,,,6113,1,2025-10-17_12h29.34.696,sm,2024.2.4,59.95078040919703,2025-10-17 12h29.43.791669 +0200,
15,0,15,,,,,,space,1.9258371000005354,None,None,2,None,0.7522184000008565,0.17237909999948897,0,0,0,0,,,,,0,0,0,0,,,,,,,,15,0,15,0,230.54107120000026,,,,,,,,,,,,,,,,,,,,,,,,,,,,,,,,,,,,,,,,,,,,,,,,,,,,,,,,,Kunde,2.1316,230.52616930000022,230.52668080000058,230.52678760000072,230.54107120000026,232.67432840000038,232.65896150000026,232.66311190000033,232.67432840000038,232.67432840000038,232.67432840000038,232.67432840000038,234.6587371000005,2,None,234.67429640000046,234.67429640000046,234.67429640000046,234.67429640000046,0.7522184000008565,0.17237909999948897,,,,,,,,,,,,,,,,,,6113,1,2025-10-17_12h29.34.696,sm,2024.2.4,59.95078040919703,2025-10-17 12h29.43.791669 +0200,
16,0,16,,,,,,space,1.9258371000005354,None,None,3,None,1.2376822999995056,0.17912710000018706,0,0,0,0,,,,,0,0,0,0,,,,,,,,16,0,16,0,234.67429640000046,,,,,,,,,,,,,,,,,,,,,,,,,,,,,,,,,,,,,,,,,,,,,,,,,,,,,,,,,Tee,2.4412,234.65918450000026,234.65966370000024,234.65975810000054,234.67429640000046,237.1242366000006,237.1088604000006,237.1124443000008,237.1242366000006,237.1242366000006,237.1242366000006,237.1242366000006,239.10831600000074,3,None,239.1239082000002,239.1239082000002,239.1239082000002,239.1239082000002,1.2376822999995056,0.17912710000018706,,,,,,,,,,,,,,,,,,6113,1,2025-10-17_12h29.34.696,sm,2024.2.4,59.95078040919703,2025-10-17 12h29.43.791669 +0200,
17,0,17,,,,,,space,1.9258371000005354,None,None,3,None,1.2585453000001507,0.17719390000002022,0,0,0,0,,,,,0,0,0,0,,,,,,,,17,0,17,0,239.1239082000002,,,,,,,,,,,,,,,,,,,,,,,,,,,,,,,,,,,,,,,,,,,,,,,,,,,,,,,,,Zimmer,2.882,239.10883080000076,239.1093410000003,239.1094479000003,239.1239082000002,242.00723720000042,241.99163130000034,241.995637,242.00723720000042,242.00723720000042,242.00723720000042,242.00723720000042,243.9917157,3,None,244.0070037000005,244.0070037000005,244.0070037000005,244.0070037000005,1.2585453000001507,0.17719390000002022,,,,,,,,,,,,,,,,,,6113,1,2025-10-17_12h29.34.696,sm,2024.2.4,59.95078040919703,2025-10-17 12h29.43.791669 +0200,
18,0,18,,,,,,space,1.9258371000005354,None,None,3,None,1.4698563999991165,0.19147720000000845,0,0,0,0,,,,,0,0,0,0,,,,,,,,18,0,18,0,244.0070037000005,,,,,,,,,,,,,,,,,,,,,,,,,,,,,,,,,,,,,,,,,,,,,,,,,,,,,,,,,Brille,3.2156,243.99221370000032,243.9927191000006,243.9928258,244.0070037000005,247.2232249000008,247.20792580000034,247.21131520000017,247.2232249000008,247.2232249000008,247.2232249000008,247.2232249000008,249.20772570000008,3,None,249.22336450000057,249.22336450000057,249.22336450000057,249.22336450000057,1.4698563999991165,0.19147720000000845,,,,,,,,,,,,,,,,,,6113,1,2025-10-17_12h29.34.696,sm,2024.2.4,59.95078040919703,2025-10-17 12h29.43.791669 +0200,
19,0,19,,,,,,space,1.9258371000005354,None,None,3,None,1.2071497000006275,0.20587589999922784,0,0,0,0,,,,,0,0,0,0,,,,,,,,19,0,19,0,249.22336450000057,,,,,,,,,,,,,,,,,,,,,,,,,,,,,,,,,,,,,,,,,,,,,,,,,,,,,,,,,Mäher,2.3363,249.20822140000018,249.20874490000006,249.2088521000005,249.22336450000057,251.57357560000037,251.55779640000037,251.56189170000016,251.57357560000037,251.57357560000037,251.57357560000037,251.57357560000037,253.5575955000004,3,None,253.5731889000008,253.5731889000008,253.5731889000008,253.5731889000008,1.2071497000006275,0.20587589999922784,,,,,,,,,,,,,,,,,,6113,1,2025-10-17_12h29.34.696,sm,2024.2.4,59.95078040919703,2025-10-17 12h29.43.791669 +0200,
20,0,20,,,,,,space,1.9258371000005354,None,None,2,None,1.4999043999996502,0.19841160000032687,0,0,0,0,,,,,0,0,0,0,,,,,,,,20,0,20,0,253.5731889000008,,,,,,,,,,,,,,,,,,,,,,,,,,,,,,,,,,,,,,,,,,,,,,,,,,,,,,,,,Anführer,2.1434,253.5580899000006,253.55858919999991,253.55869500000063,253.5731889000008,255.7231001,255.7077994000001,255.71220369999992,255.7231001,255.7231001,255.7231001,255.7231001,257.7073199000006,2,None,257.7231182000005,257.7231182000005,257.7231182000005,257.7231182000005,1.4999043999996502,0.19841160000032687,,,,,,,,,,,,,,,,,,6113,1,2025-10-17_12h29.34.696,sm,2024.2.4,59.95078040919703,2025-10-17 12h29.43.791669 +0200,
21,0,21,,,,,,space,1.9258371000005354,None,None,3,None,1.1655937000004997,0.1793363999995563,0,0,0,0,,,,,0,0,0,0,,,,,,,,21,0,21,0,257.7231182000005,,,,,,,,,,,,,,,,,,,,,,,,,,,,,,,,,,,,,,,,,,,,,,,,,,,,,,,,,Mappe,3.7507,257.7078184000002,257.7084719000004,257.70857930000057,257.7231182000005,261.489106,261.47350989999995,261.4772014,261.489106,261.489106,261.489106,261.489106,263.4737482999999,3,None,263.4893793000001,263.4893793000001,263.4893793000001,263.4893793000001,1.1655937000004997,0.1793363999995563,,,,,,,,,,,,,,,,,,6113,1,2025-10-17_12h29.34.696,sm,2024.2.4,59.95078040919703,2025-10-17 12h29.43.791669 +0200,
22,0,22,,,,,,space,1.9258371000005354,None,None,3,None,1.5564015999998446,0.1858484000003955,0,0,0,0,,,,,0,0,0,0,,,,,,,,22,0,22,0,263.4893793000001,,,,,,,,,,,,,,,,,,,,,,,,,,,,,,,,,,,,,,,,,,,,,,,,,,,,,,,,,Schwimmen,2.7573,263.4742455000005,263.47476559999996,263.47487120000005,263.4893793000001,266.25538830000005,266.23981230000027,266.2436964000008,266.25538830000005,266.25538830000005,266.25538830000005,266.25538830000005,268.2405688000008,3,None,268.2560426,268.2560426,268.2560426,268.2560426,1.5564015999998446,0.1858484000003955,,,,,,,,,,,,,,,,,,6113,1,2025-10-17_12h29.34.696,sm,2024.2.4,59.95078040919703,2025-10-17 12h29.43.791669 +0200,
23,0,23,,,,,,space,1.9258371000005354,None,None,3,None,1.3279740999996648,0.1781449000000066,0,0,0,0,,,,,0,0,0,0,,,,,,,,23,0,23,0,268.2560426,,,,,,,,,,,,,,,,,,,,,,,,,,,,,,,,,,,,,,,,,,,,,,,,,,,,,,,,,Gold,5.3738,268.2410695000008,268.241575,268.24168220000047,268.2560426,273.6386629000008,273.6229555,273.6263082000005,273.6386629000008,273.6386629000008,273.6386629000008,273.6386629000008,275.62275640000007,3,None,275.6385936000006,275.6385936000006,275.6385936000006,275.6385936000006,1.3279740999996648,0.1781449000000066,,,,,,,,,,,,,,,,,,6113,1,2025-10-17_12h29.34.696,sm,2024.2.4,59.95078040919703,2025-10-17 12h29.43.791669 +0200,
24,0,24,,,,,,space,1.9258371000005354,None,None,3,None,0.8125509999999849,0.1749214999999822,0,0,0,0,,,,,0,0,0,0,,,,,,,,24,0,24,0,275.6385936000006,,,,,,,,,,,,,,,,,,,,,,,,,,,,,,,,,,,,,,,,,,,,,,,,,,,,,,,,,Statue,2.5548,275.62326420000045,275.6237748000003,275.6238824000002,275.6385936000006,278.20498920000045,278.1894355000004,278.1934805000001,278.20498920000045,278.20498920000045,278.20498920000045,278.20498920000045,280.1895370000002,3,None,280.2049663000007,280.2049663000007,280.2049663000007,280.2049663000007,0.8125509999999849,0.1749214999999822,,,,,,,,,,,,,,,,,,6113,1,2025-10-17_12h29.34.696,sm,2024.2.4,59.95078040919703,2025-10-17 12h29.43.791669 +0200,
25,0,25,,,,,,space,1.9258371000005354,None,None,3,None,1.2641732000001866,0.17645450000054552,0,0,0,0,,,,,0,0,0,0,,,,,,,,25,0,25,0,280.2049663000007,,,,,,,,,,,,,,,,,,,,,,,,,,,,,,,,,,,,,,,,,,,,,,,,,,,,,,,,,Bild,2.4287,280.1900325000006,280.19077070000003,280.1908742000005,280.2049663000007,282.63779010000053,282.6221749000006,282.6252376000002,282.63779010000053,282.63779010000053,282.63779010000053,282.63779010000053,284.6223563000003,3,None,284.63790770000014,284.63790770000014,284.63790770000014,284.63790770000014,1.2641732000001866,0.17645450000054552,,,,,,,,,,,,,,,,,,6113,1,2025-10-17_12h29.34.696,sm,2024.2.4,59.95078040919703,2025-10-17 12h29.43.791669 +0200,
26,0,26,,,,,,space,1.9258371000005354,None,None,3,None,1.5471787999995286,0.21281350000026578,0,0,0,0,,,,,0,0,0,0,,,,,,,,26,0,26,0,284.63790770000014,,,,,,,,,,,,,,,,,,,,,,,,,,,,,,,,,,,,,,,,,,,,,,,,,,,,,,,,,Golf,4.4167,284.62286230000063,284.62337090000074,284.62347730000056,284.63790770000014,289.05417470000066,289.0387150000006,289.04187470000033,289.05417470000066,289.05417470000066,289.05417470000066,289.05417470000066,291.0386741000002,3,None,291.0542608000005,291.0542608000005,291.0542608000005,291.0542608000005,1.5471787999995286,0.21281350000026578,,,,,,,,,,,,,,,,,,6113,1,2025-10-17_12h29.34.696,sm,2024.2.4,59.95078040919703,2025-10-17 12h29.43.791669 +0200,
27,0,27,,,,,,space,1.9258371000005354,None,None,3,None,0.9192170000005717,0.18568749999940337,0,0,0,0,,,,,0,0,0,0,,,,,,,,27,0,27,0,291.0542608000005,,,,,,,,,,,,,,,,,,,,,,,,,,,,,,,,,,,,,,,,,,,,,,,,,,,,,,,,,Helm,2.8411,291.03917420000016,291.0396758000006,291.03978610000013,291.0542608000005,293.90394689999994,293.88824470000054,293.89430300000004,293.90394689999994,293.90394689999994,293.90394689999994,293.90394689999994,295.88851280000017,3,None,295.90395460000036,295.90395460000036,295.90395460000036,295.90395460000036,0.9192170000005717,0.18568749999940337,,,,,,,,,,,,,,,,,,6113,1,2025-10-17_12h29.34.696,sm,2024.2.4,59.95078040919703,2025-10-17 12h29.43.791669 +0200,
28,0,28,,,,,,space,1.9258371000005354,None,None,2,None,1.4943656999994346,0.1954686999997648,0,0,0,0,,,,,0,0,0,0,,,,,,,,28,0,28,0,295.90395460000036,,,,,,,,,,,,,,,,,,,,,,,,,,,,,,,,,,,,,,,,,,,,,,,,,,,,,,,,,Erde,4.0975,295.8890128000003,295.8895252000002,295.88963090000016,295.90395460000036,300.00362720000066,299.98808350000036,299.9916153000004,300.00362720000066,300.00362720000066,300.00362720000066,300.00362720000066,301.9881425000003,2,None,302.0035981000001,302.0035981000001,302.0035981000001,302.0035981000001,1.4943656999994346,0.1954686999997648,,,,,,,,,,,,,,,,,,6113,1,2025-10-17_12h29.34.696,sm,2024.2.4,59.95078040919703,2025-10-17 12h29.43.791669 +0200,
29,0,29,,,,,,space,1.9258371000005354,None,None,3,None,1.257863300000281,0.23736430000008113,0,0,0,0,,,,,0,0,0,0,,,,,,,,29,0,29,0,302.0035981000001,,,,,,,,,,,,,,,,,,,,,,,,,,,,,,,,,,,,,,,,,,,,,,,,,,,,,,,,,Orange,3.3631,301.9886490000008,301.98915620000025,301.9892641000006,302.0035981000001,305.3698254000001,305.3543887000005,305.3605288000008,305.3698254000001,305.3698254000001,305.3698254000001,305.3698254000001,307.3542320000006,3,None,307.3699231999999,307.3699231999999,307.3699231999999,307.3699231999999,1.257863300000281,0.23736430000008113,,,,,,,,,,,,,,,,,,6113,1,2025-10-17_12h29.34.696,sm,2024.2.4,59.95078040919703,2025-10-17 12h29.43.791669 +0200,
30,0,30,,,,,,space,1.9258371000005354,None,None,2,None,1.2456099000000904,0.2110253000000739,0,0,0,0,,,,,0,0,0,0,,,,,,,,30,0,30,0,307.3699231999999,,,,,,,,,,,,,,,,,,,,,,,,,,,,,,,,,,,,,,,,,,,,,,,,,,,,,,,,,Leute,5.0734,307.35473210000055,307.35530760000074,307.3554125999999,307.3699231999999,312.45294300000023,312.43773469999996,312.4415966000006,312.45294300000023,312.45294300000023,312.45294300000023,312.45294300000023,314.4374862000004,2,None,314.45296450000023,314.45296450000023,314.45296450000023,314.45296450000023,1.2456099000000904,0.2110253000000739,,,,,,,,,,,,,,,,,,6113,1,2025-10-17_12h29.34.696,sm,2024.2.4,59.95078040919703,2025-10-17 12h29.43.791669 +0200,
31,0,31,,,,,,space,1.9258371000005354,None,None,2,None,1.1736741999993683,0.18350250000003143,0,0,0,0,,,,,0,0,0,0,,,,,,,,31,0,31,0,314.45296450000023,,,,,,,,,,,,,,,,,,,,,,,,,,,,,,,,,,,,,,,,,,,,,,,,,,,,,,,,,Sprache,2.279,314.43798440000046,314.4384989,314.4386047000007,314.45296450000023,316.7361821000004,316.7205577000004,316.7246511000003,316.7361821000004,316.7361821000004,316.7361821000004,316.7361821000004,318.72057270000005,2,None,318.7361172000001,318.7361172000001,318.7361172000001,318.7361172000001,1.1736741999993683,0.18350250000003143,,,,,,,,,,,,,,,,,,6113,1,2025-10-17_12h29.34.696,sm,2024.2.4,59.95078040919703,2025-10-17 12h29.43.791669 +0200,
32,0,32,,,,,,space,1.9258371000005354,None,None,3,None,0.7194762999997693,0.20044599999982893,0,0,0,0,,,,,0,0,0,0,,,,,,,,32,0,32,0,318.7361172000001,,,,,,,,,,,,,,,,,,,,,,,,,,,,,,,,,,,,,,,,,,,,,,,,,,,,,,,,,Tisch,5.5838,318.72107420000066,318.72159100000044,318.7216960000005,318.7361172000001,324.31882940000014,324.3032140000005,324.30656570000065,324.31882940000014,324.31882940000014,324.31882940000014,324.31882940000014,326.3032645000003,3,None,326.3189063,326.3189063,326.3189063,326.3189063,0.7194762999997693,0.20044599999982893,,,,,,,,,,,,,,,,,,6113,1,2025-10-17_12h29.34.696,sm,2024.2.4,59.95078040919703,2025-10-17 12h29.43.791669 +0200,
33,0,33,,,,,,space,1.9258371000005354,None,None,2,None,0.8504371000008177,None,0,0,0,0,,,,,0,0,0,0,,,,,,,,33,0,33,0,326.3189063,,,,,,,,,,,,,,,,,,,,,,,,,,,,,,,,,,,,,,,,,,,,,,,,,,,,,,,,,Geschwister,4.3449,326.3037858000007,326.3042922000004,326.3044023000002,326.3189063,330.6684187999999,330.6529147000001,330.6579896000003,330.6684187999999,330.6684187999999,330.6684187999999,330.6684187999999,332.65296410000064,2,None,332.66862110000056,332.66862110000056,332.66862110000056,332.66862110000056,0.8504371000008177,None,,,,,,,,,,,,,,,,,,6113,1,2025-10-17_12h29.34.696,sm,2024.2.4,59.95078040919703,2025-10-17 12h29.43.791669 +0200,
34,0,34,,,,,,space,1.9258371000005354,None,None,None,None,,,0,0,0,0,,,,,0,0,0,0,,,,,,,,34,0,34,0,332.66862110000056,,,,,,,,,,,,,,,,,,,,,,,,,,,,,,,,,,,,,,,,,,,,,,,,,,,,,,,,,Nacht,3.0611,332.6534693000003,332.65414540000074,332.6542491,332.66862110000056,335.73475300000064,335.7194035000002,335.7234502000001,335.73475300000064,335.73475300000064,335.73475300000064,335.73475300000064,337.7195905000008,None,None,337.7348249000006,337.7348249000006,337.7348249000006,337.7348249000006,,,,,,,,,,,,,,,,,,,,6113,1,2025-10-17_12h29.34.696,sm,2024.2.4,59.95078040919703,2025-10-17 12h29.43.791669 +0200,
35,0,35,,,,,,space,1.9258371000005354,None,None,2,None,1.422290200000134,0.15528610000001208,0,0,0,0,,,,,0,0,0,0,,,,,,,,35,0,35,0,337.7348249000006,,,,,,,,,,,,,,,,,,,,,,,,,,,,,,,,,,,,,,,,,,,,,,,,,,,,,,,,,Blumen,4.7992,337.7200309,337.7205212000008,337.7206195000008,337.7348249000006,342.5343552000004,342.5189515000002,342.52294510000047,342.5343552000004,342.5343552000004,342.5343552000004,342.5343552000004,344.5189642000005,2,None,344.5345987999999,344.5345987999999,344.5345987999999,344.5345987999999,1.422290200000134,0.15528610000001208,,,,,,,,,,,,,,,,,,6113,1,2025-10-17_12h29.34.696,sm,2024.2.4,59.95078040919703,2025-10-17 12h29.43.791669 +0200,
36,0,36,,,,,,space,1.9258371000005354,None,None,None,None,,,0,0,0,0,,,,,0,0,0,0,,,,,,,,36,0,36,0,344.5345987999999,,,,,,,,,,,,,,,,,,,,,,,,,,,,,,,,,,,,,,,,,,,,,,,,,,,,,,,,,Kunst,2.0921,344.5194695,344.5199736000004,344.5200805000004,344.5345987999999,346.6339704000002,346.6186499000005,346.6222701000006,346.6339704000002,346.6339704000002,346.6339704000002,346.6339704000002,348.61870980000003,None,None,348.63412680000056,348.63412680000056,348.63412680000056,348.63412680000056,,,,,,,,,,,,,,,,,,,,6113,1,2025-10-17_12h29.34.696,sm,2024.2.4,59.95078040919703,2025-10-17 12h29.43.791669 +0200,
37,0,37,,,,,,space,1.9258371000005354,None,None,3,None,0.9379926000001433,0.18448199999966164,0,0,0,0,,,,,0,0,0,0,,,,,,,,37,0,37,0,348.63412680000056,,,,,,,,,,,,,,,,,,,,,,,,,,,,,,,,,,,,,,,,,,,,,,,,,,,,,,,,,Schnürsenkel,2.7357,348.61917450000055,348.61992120000014,348.6200256000002,348.63412680000056,351.38401650000014,351.36852400000043,351.3728981000004,351.38401650000014,351.38401650000014,351.38401650000014,351.38401650000014,353.36839170000076,3,None,353.3840706000001,353.3840706000001,353.3840706000001,353.3840706000001,0.9379926000001433,0.18448199999966164,,,,,,,,,,,,,,,,,,6113,1,2025-10-17_12h29.34.696,sm,2024.2.4,59.95078040919703,2025-10-17 12h29.43.791669 +0200,
38,0,38,,,,,,space,1.9258371000005354,None,None,2,None,0.9562829000005877,0.160573199999817,0,0,0,0,,,,,0,0,0,0,,,,,,,,38,0,38,0,353.3840706000001,,,,,,,,,,,,,,,,,,,,,,,,,,,,,,,,,,,,,,,,,,,,,,,,,,,,,,,,,Afrika,2.5789,353.36889710000014,353.36940310000045,353.3695135000007,353.3840706000001,355.96709550000014,355.9514297000005,355.95486000000074,355.96709550000014,355.96709550000014,355.96709550000014,355.96709550000014,357.9516472000005,2,None,357.96706820000054,357.96706820000054,357.96706820000054,357.96706820000054,0.9562829000005877,0.160573199999817,,,,,,,,,,,,,,,,,,6113,1,2025-10-17_12h29.34.696,sm,2024.2.4,59.95078040919703,2025-10-17 12h29.43.791669 +0200,
39,0,39,,,,,,space,1.9258371000005354,None,None,3,None,1.083639200000107,0.17341659999965486,0,0,0,0,,,,,0,0,0,0,,,,,,,,39,0,39,0,357.96706820000054,,,,,,,,,,,,,,,,,,,,,,,,,,,,,,,,,,,,,,,,,,,,,,,,,,,,,,,,,Ringe,4.8846,357.9521484000006,357.9526570000007,357.95276080000076,357.96706820000054,362.8665931000005,362.8509125999999,362.85455700000057,362.8665931000005,362.8665931000005,362.8665931000005,362.8665931000005,364.8511589,3,None,364.86666980000064,364.86666980000064,364.86666980000064,364.86666980000064,1.083639200000107,0.17341659999965486,,,,,,,,,,,,,,,,,,6113,1,2025-10-17_12h29.34.696,sm,2024.2.4,59.95078040919703,2025-10-17 12h29.43.791669 +0200,
40,0,40,,,,,,space,1.9258371000005354,None,None,2,None,1.0972713000001022,0.18750189999991562,0,0,0,0,,,,,0,0,0,0,,,,,,,,40,0,40,0,364.86666980000064,,,,,,,,,,,,,,,,,,,,,,,,,,,,,,,,,,,,,,,,,,,,,,,,,,,,,,,,,Gesicht,2.1341,364.8516623000005,364.85231290000047,364.8524165000008,364.86666980000064,366.99969670000064,366.9839834000004,366.9884178000002,366.99969670000064,366.99969670000064,366.99969670000064,366.99969670000064,368.9841200999999,2,None,368.9997548000001,368.9997548000001,368.9997548000001,368.9997548000001,1.0972713000001022,0.18750189999991562,,,,,,,,,,,,,,,,,,6113,1,2025-10-17_12h29.34.696,sm,2024.2.4,59.95078040919703,2025-10-17 12h29.43.791669 +0200,
41,0,41,,,,,,space,1.9258371000005354,None,None,2,None,1.5577968999996301,0.15828360000068642,0,0,0,0,,,,,0,0,0,0,,,,,,,,41,0,41,0,368.9997548000001,,,,,,,,,,,,,,,,,,,,,,,,,,,,,,,,,,,,,,,,,,,,,,,,,,,,,,,,,Hand,2.3229,368.9846167000005,368.98526820000006,368.9853731000003,368.9997548000001,371.3327611000004,371.31721480000033,371.3202953,371.3327611000004,371.3327611000004,371.3327611000004,371.3327611000004,373.31717970000045,2,None,373.3327911000006,373.3327911000006,373.3327911000006,373.3327911000006,1.5577968999996301,0.15828360000068642,,,,,,,,,,,,,,,,,,6113,1,2025-10-17_12h29.34.696,sm,2024.2.4,59.95078040919703,2025-10-17 12h29.43.791669 +0200,
42,0,42,,,,,,space,1.9258371000005354,None,None,2,None,0.735092199999599,0.14967599999999948,0,0,0,0,,,,,0,0,0,0,,,,,,,,42,0,42,0,373.3327911000006,,,,,,,,,,,,,,,,,,,,,,,,,,,,,,,,,,,,,,,,,,,,,,,,,,,,,,,,,Professor,2.9098,373.3176841000004,373.31818060000023,373.31828889999997,373.3327911000006,376.2491082000006,376.2336473000005,376.2374473,376.2491082000006,376.2491082000006,376.2491082000006,376.2491082000006,378.2338159000001,2,None,378.2491456000007,378.2491456000007,378.2491456000007,378.2491456000007,0.735092199999599,0.14967599999999948,,,,,,,,,,,,,,,,,,6113,1,2025-10-17_12h29.34.696,sm,2024.2.4,59.95078040919703,2025-10-17 12h29.43.791669 +0200,
43,0,43,,,,,,space,1.9258371000005354,None,None,3,None,1.306424600000355,0.15963319999991654,0,0,0,0,,,,,0,0,0,0,,,,,,,,43,0,43,0,378.2491456000007,,,,,,,,,,,,,,,,,,,,,,,,,,,,,,,,,,,,,,,,,,,,,,,,,,,,,,,,,Gipfel,3.5166,378.2343169000005,378.23482760000024,378.23493060000055,378.2491456000007,381.7657384000004,381.74997520000034,381.7539645000006,381.7657384000004,381.7657384000004,381.7657384000004,381.7657384000004,383.7504991000005,3,None,383.7657125000005,383.7657125000005,383.7657125000005,383.7657125000005,1.306424600000355,0.15963319999991654,,,,,,,,,,,,,,,,,,6113,1,2025-10-17_12h29.34.696,sm,2024.2.4,59.95078040919703,2025-10-17 12h29.43.791669 +0200,
44,0,44,,,,,,space,1.9258371000005354,None,None,3,None,1.0831263999998555,0.131646499999988,0,0,0,0,,,,,0,0,0,0,,,,,,,,44,0,44,0,383.7657125000005,,,,,,,,,,,,,,,,,,,,,,,,,,,,,,,,,,,,,,,,,,,,,,,,,,,,,,,,,Bluse,2.8691,383.75100660000044,383.75153670000054,383.75164330000007,383.7657125000005,386.64933530000053,386.63296140000057,386.6364557000006,386.64933530000053,386.64933530000053,386.64933530000053,386.64933530000053,388.6329046999999,3,None,388.64861400000063,388.64861400000063,388.64861400000063,388.64861400000063,1.0831263999998555,0.131646499999988,,,,,,,,,,,,,,,,,,6113,1,2025-10-17_12h29.34.696,sm,2024.2.4,59.95078040919703,2025-10-17 12h29.43.791669 +0200,
45,0,45,,,,,,space,1.9258371000005354,None,None,2,None,1.226846900000055,0.15817739999965852,0,0,0,0,,,,,0,0,0,0,,,,,,,,45,0,45,0,388.64861400000063,,,,,,,,,,,,,,,,,,,,,,,,,,,,,,,,,,,,,,,,,,,,,,,,,,,,,,,,,Arm,5.289,388.6333998,388.6339693,388.63407520000055,388.64861400000063,393.94833540000036,393.93275130000075,393.9363916000002,393.94833540000036,393.94833540000036,393.94833540000036,393.94833540000036,395.9326955000006,2,None,395.9481312000007,395.9481312000007,395.9481312000007,395.9481312000007,1.226846900000055,0.15817739999965852,,,,,,,,,,,,,,,,,,6113,1,2025-10-17_12h29.34.696,sm,2024.2.4,59.95078040919703,2025-10-17 12h29.43.791669 +0200,
46,0,46,,,,,,space,1.9258371000005354,None,None,2,None,1.523616999999831,0.15721490000032645,0,0,0,0,,,,,0,0,0,0,,,,,,,,46,0,46,0,395.9481312000007,,,,,,,,,,,,,,,,,,,,,,,,,,,,,,,,,,,,,,,,,,,,,,,,,,,,,,,,,Vulkan,2.8454,395.9331645000002,395.9336626000004,395.93376250000074,395.9481312000007,398.7979283000004,398.78246110000055,398.7866318000006,398.7979283000004,398.7979283000004,398.7979283000004,398.7979283000004,400.7822730000007,2,None,400.7981002000006,400.7981002000006,400.7981002000006,400.7981002000006,1.523616999999831,0.15721490000032645,,,,,,,,,,,,,,,,,,6113,1,2025-10-17_12h29.34.696,sm,2024.2.4,59.95078040919703,2025-10-17 12h29.43.791669 +0200,
47,0,47,,,,,,space,1.9258371000005354,None,None,2,None,0.757311600000321,0.1877345000002606,0,0,0,0,,,,,0,0,0,0,,,,,,,,47,0,47,0,400.7981002000006,,,,,,,,,,,,,,,,,,,,,,,,,,,,,,,,,,,,,,,,,,,,,,,,,,,,,,,,,Lachen,2.5626,400.7827797,400.7832836000007,400.7833920000003,400.7981002000006,403.3645122000007,403.3490986000006,403.35391980000077,403.3645122000007,403.3645122000007,403.3645122000007,403.3645122000007,405.34870390000015,2,None,405.36437040000055,405.36437040000055,405.36437040000055,405.36437040000055,0.757311600000321,0.1877345000002606,,,,,,,,,,,,,,,,,,6113,1,2025-10-17_12h29.34.696,sm,2024.2.4,59.95078040919703,2025-10-17 12h29.43.791669 +0200,
48,0,48,,,,,,space,1.9258371000005354,None,None,2,None,0.9858352000001105,0.15464299999985087,0,0,0,0,,,,,0,0,0,0,,,,,,,,48,0,48,0,405.36437040000055,,,,,,,,,,,,,,,,,,,,,,,,,,,,,,,,,,,,,,,,,,,,,,,,,,,,,,,,,Fledermaus,3.7827,405.34920670000065,405.3497154000006,405.3498217000006,405.36437040000055,409.1473249999999,409.13171280000006,409.13629410000067,409.1473249999999,409.1473249999999,409.1473249999999,409.1473249999999,411.1316575000001,2,None,411.14728340000056,411.14728340000056,411.14728340000056,411.14728340000056,0.9858352000001105,0.15464299999985087,,,,,,,,,,,,,,,,,,6113,1,2025-10-17_12h29.34.696,sm,2024.2.4,59.95078040919703,2025-10-17 12h29.43.791669 +0200,
49,0,49,,,,,,space,1.9258371000005354,None,None,3,None,1.0595639000002848,0.2138355999995838,0,0,0,0,,,,,0,0,0,0,,,,,,,,49,0,49,0,411.14728340000056,,,,,,,,,,,,,,,,,,,,,,,,,,,,,,,,,,,,,,,,,,,,,,,,,,,,,,,,,Zucker,2.0345,411.13215180000043,411.13264980000076,411.1327564000003,411.14728340000056,413.1969790000003,413.1815454000007,413.1857391000003,413.1969790000003,413.1969790000003,413.1969790000003,413.1969790000003,415.1814946000004,3,None,415.1970276000002,415.1970276000002,415.1970276000002,415.1970276000002,1.0595639000002848,0.2138355999995838,,,,,,,,,,,,,,,,,,6113,1,2025-10-17_12h29.34.696,sm,2024.2.4,59.95078040919703,2025-10-17 12h29.43.791669 +0200,
50,0,50,,,,,,space,1.9258371000005354,None,None,2,None,0.7689000999998825,0.17395890000079817,0,0,0,0,,,,,0,0,0,0,,,,,,,,50,0,50,0,415.1970276000002,,,,,,,,,,,,,,,,,,,,,,,,,,,,,,,,,,,,,,,,,,,,,,,,,,,,,,,,,Gruppe,2.014,415.1819884000006,415.1824929000004,415.18259880000005,415.1970276000002,417.2136377000006,417.19805710000037,417.20222080000076,417.2136377000006,417.2136377000006,417.2136377000006,417.2136377000006,419.19801050000024,2,None,419.21339910000006,419.21339910000006,419.21339910000006,419.21339910000006,0.7689000999998825,0.17395890000079817,,,,,,,,,,,,,,,,,,6113,1,2025-10-17_12h29.34.696,sm,2024.2.4,59.95078040919703,2025-10-17 12h29.43.791669 +0200,
51,0,51,,,,,,space,1.9258371000005354,None,None,3,None,0.8263118000004397,0.18809199999941484,0,0,0,0,,,,,0,0,0,0,,,,,,,,51,0,51,0,419.21339910000006,,,,,,,,,,,,,,,,,,,,,,,,,,,,,,,,,,,,,,,,,,,,,,,,,,,,,,,,,Dachboden,2.4131,419.1985101,419.19915480000054,419.19925779999994,419.21339910000006,421.63004060000003,421.6147096000004,421.61920720000035,421.63004060000003,421.63004060000003,421.63004060000003,421.63004060000003,423.61408480000046,3,None,423.63011800000004,423.63011800000004,423.63011800000004,423.63011800000004,0.8263118000004397,0.18809199999941484,,,,,,,,,,,,,,,,,,6113,1,2025-10-17_12h29.34.696,sm,2024.2.4,59.95078040919703,2025-10-17 12h29.43.791669 +0200,
52,0,52,,,,,,space,1.9258371000005354,None,None,3,None,0.6896970999996483,0.1704825000006167,0,0,0,0,,,,,0,0,0,0,,,,,,,,52,0,52,0,423.63011800000004,,,,,,,,,,,,,,,,,,,,,,,,,,,,,,,,,,,,,,,,,,,,,,,,,,,,,,,,,Kante,3.0884,423.6145245000007,423.61513450000075,423.6152256000005,423.63011800000004,426.7295548000002,426.71418470000026,426.71820750000006,426.7295548000002,426.7295548000002,426.7295548000002,426.7295548000002,428.71412000000055,3,None,428.7295849000002,428.7295849000002,428.7295849000002,428.7295849000002,0.6896970999996483,0.1704825000006167,,,,,,,,,,,,,,,,,,6113,1,2025-10-17_12h29.34.696,sm,2024.2.4,59.95078040919703,2025-10-17 12h29.43.791669 +0200,
53,0,53,,,,,,space,1.9258371000005354,None,None,3,None,1.0430949999999939,0.20182430000022578,0,0,0,0,,,,,0,0,0,0,,,,,,,,53,0,53,0,428.7295849000002,,,,,,,,,,,,,,,,,,,,,,,,,,,,,,,,,,,,,,,,,,,,,,,,,,,,,,,,,Erbe,4.0886,428.7146253000001,428.7151180000001,428.7152270000006,428.7295849000002,432.8291143000006,432.81387470000027,432.8183275000001,432.8291143000006,432.8291143000006,432.8291143000006,432.8291143000006,434.8138514000002,3,None,434.82949740000004,434.82949740000004,434.82949740000004,434.82949740000004,1.0430949999999939,0.20182430000022578,,,,,,,,,,,,,,,,,,6113,1,2025-10-17_12h29.34.696,sm,2024.2.4,59.95078040919703,2025-10-17 12h29.43.791669 +0200,
54,0,54,,,,,,space,1.9258371000005354,None,None,3,None,1.0135686999992686,0.2124987000006513,0,0,0,0,,,,,0,0,0,0,,,,,,,,54,0,54,0,434.82949740000004,,,,,,,,,,,,,,,,,,,,,,,,,,,,,,,,,,,,,,,,,,,,,,,,,,,,,,,,,Teleskop,3.0221,434.81435560000045,434.8148654000006,434.81497130000025,434.82949740000004,437.8622787000004,437.8465676000005,437.8500343000005,437.8622787000004,437.8622787000004,437.8622787000004,437.8622787000004,439.8468369000002,3,None,439.86231320000024,439.86231320000024,439.86231320000024,439.86231320000024,1.0135686999992686,0.2124987000006513,,,,,,,,,,,,,,,,,,6113,1,2025-10-17_12h29.34.696,sm,2024.2.4,59.95078040919703,2025-10-17 12h29.43.791669 +0200,
55,0,55,,,,,,space,1.9258371000005354,None,None,3,None,1.6335589000000255,0.1825736999999208,0,0,0,0,,,,,0,0,0,0,,,,,,,,55,0,55,0,439.86231320000024,,,,,,,,,,,,,,,,,,,,,,,,,,,,,,,,,,,,,,,,,,,,,,,,,,,,,,,,,Strand,2.8354,439.8473593000008,439.8481034000006,439.8482371,439.86231320000024,442.71176790000027,442.69619670000066,442.7000757000005,442.71176790000027,442.71176790000027,442.71176790000027,442.71176790000027,444.6963873000004,3,None,444.7123435000003,444.7123435000003,444.7123435000003,444.7123435000003,1.6335589000000255,0.1825736999999208,,,,,,,,,,,,,,,,,,6113,1,2025-10-17_12h29.34.696,sm,2024.2.4,59.95078040919703,2025-10-17 12h29.43.791669 +0200,
56,0,56,,,,,,space,1.9258371000005354,None,None,3,None,1.311208500000248,0.14869289999933244,0,0,0,0,,,,,0,0,0,0,,,,,,,,56,0,56,0,444.7123435000003,,,,,,,,,,,,,,,,,,,,,,,,,,,,,,,,,,,,,,,,,,,,,,,,,,,,,,,,,Bad,2.1652,444.6969045000005,444.6974254000006,444.6975330000005,444.7123435000003,446.8784413000003,446.8627126000001,446.8662377999999,446.8784413000003,446.8784413000003,446.8784413000003,446.8784413000003,448.86286650000056,3,None,448.8783404000005,448.8783404000005,448.8783404000005,448.8783404000005,1.311208500000248,0.14869289999933244,,,,,,,,,,,,,,,,,,6113,1,2025-10-17_12h29.34.696,sm,2024.2.4,59.95078040919703,2025-10-17 12h29.43.791669 +0200,
57,0,57,,,,,,space,1.9258371000005354,None,None,3,None,0.972138700000869,0.2061413999999786,0,0,0,0,,,,,0,0,0,0,,,,,,,,57,0,57,0,448.8783404000005,,,,,,,,,,,,,,,,,,,,,,,,,,,,,,,,,,,,,,,,,,,,,,,,,,,,,,,,,Brief,3.7457,448.86333020000075,448.8639617000008,448.8640634000003,448.8783404000005,452.6279824000003,452.6125002000008,452.61648270000023,452.6279824000003,452.6279824000003,452.6279824000003,452.6279824000003,454.6124714000007,3,None,454.62799540000015,454.62799540000015,454.62799540000015,454.62799540000015,0.972138700000869,0.2061413999999786,,,,,,,,,,,,,,,,,,6113,1,2025-10-17_12h29.34.696,sm,2024.2.4,59.95078040919703,2025-10-17 12h29.43.791669 +0200,
58,0,58,,,,,,space,1.9258371000005354,None,None,None,None,,,0,0,0,0,,,,,0,0,0,0,,,,,,,,58,0,58,0,454.62799540000015,,,,,,,,,,,,,,,,,,,,,,,,,,,,,,,,,,,,,,,,,,,,,,,,,,,,,,,,,Fakt,2.0086,454.6129707,454.6136208000007,454.61372819999997,454.62799540000015,456.64468470000065,456.62894060000053,456.6325366000001,456.64468470000065,456.64468470000065,456.64468470000065,456.64468470000065,458.62891730000047,None,None,458.64474130000053,458.64474130000053,458.64474130000053,458.64474130000053,,,,,,,,,,,,,,,,,,,,6113,1,2025-10-17_12h29.34.696,sm,2024.2.4,59.95078040919703,2025-10-17 12h29.43.791669 +0200,
59,0,59,,,,,,space,1.9258371000005354,None,None,3,None,0.7906627000002118,0.20048050000059447,0,0,0,0,,,,,0,0,0,0,,,,,,,,59,0,59,0,458.64474130000053,,,,,,,,,,,,,,,,,,,,,,,,,,,,,,,,,,,,,,,,,,,,,,,,,,,,,,,,,Teller,2.3169,458.6293861000004,458.63002490000054,458.63013090000004,458.64474130000053,460.96109220000017,460.94565349999993,460.9497770000007,460.96109220000017,460.96109220000017,460.96109220000017,460.96109220000017,462.9458826,3,None,462.96134060000077,462.96134060000077,462.96134060000077,462.96134060000077,0.7906627000002118,0.20048050000059447,,,,,,,,,,,,,,,,,,6113,1,2025-10-17_12h29.34.696,sm,2024.2.4,59.95078040919703,2025-10-17 12h29.43.791669 +0200,
60,0,60,,,,,,space,1.9258371000005354,None,None,3,None,1.2845702999993591,0.189469600000848,0,0,0,0,,,,,0,0,0,0,,,,,,,,60,0,60,0,462.96134060000077,,,,,,,,,,,,,,,,,,,,,,,,,,,,,,,,,,,,,,,,,,,,,,,,,,,,,,,,,Schloss,3.3692,462.9463809000008,462.9470572,462.9471745000001,462.96134060000077,466.3437326000003,466.32825589999993,466.332445,466.3437326000003,466.3437326000003,466.3437326000003,466.3437326000003,468.32850039999994,3,None,468.3437870000007,468.3437870000007,468.3437870000007,468.3437870000007,1.2845702999993591,0.189469600000848,,,,,,,,,,,,,,,,,,6113,1,2025-10-17_12h29.34.696,sm,2024.2.4,59.95078040919703,2025-10-17 12h29.43.791669 +0200,
61,0,61,,,,,,space,1.9258371000005354,None,None,2,None,0.8994362000003093,0.33105499999965105,0,0,0,0,,,,,0,0,0,0,,,,,,,,61,0,61,0,468.3437870000007,,,,,,,,,,,,,,,,,,,,,,,,,,,,,,,,,,,,,,,,,,,,,,,,,,,,,,,,,Klempner,3.0656,468.3290020000004,468.32951030000004,468.3296213000003,468.3437870000007,471.4104530000004,471.3948087000008,471.3986405000005,471.4104530000004,471.4104530000004,471.4104530000004,471.4104530000004,473.39487869999994,2,None,473.41058020000037,473.41058020000037,473.41058020000037,473.41058020000037,0.8994362000003093,0.33105499999965105,,,,,,,,,,,,,,,,,,6113,1,2025-10-17_12h29.34.696,sm,2024.2.4,59.95078040919703,2025-10-17 12h29.43.791669 +0200,
62,0,62,,,,,,space,1.9258371000005354,None,None,2,None,0.7796151000002283,0.16665959999954794,0,0,0,0,,,,,0,0,0,0,,,,,,,,62,0,62,0,473.41058020000037,,,,,,,,,,,,,,,,,,,,,,,,,,,,,,,,,,,,,,,,,,,,,,,,,,,,,,,,,Liebe,2.2989,473.3953741000005,473.3959360000008,473.3960452000001,473.41058020000037,475.7097558000005,475.6942566000007,475.6977889,475.7097558000005,475.7097558000005,475.7097558000005,475.7097558000005,477.69460849999996,2,None,477.70999160000065,477.70999160000065,477.70999160000065,477.70999160000065,0.7796151000002283,0.16665959999954794,,,,,,,,,,,,,,,,,,6113,1,2025-10-17_12h29.34.696,sm,2024.2.4,59.95078040919703,2025-10-17 12h29.43.791669 +0200,
63,0,63,,,,,,space,1.9258371000005354,None,None,2,None,1.4270133999998507,0.16167849999965256,0,0,0,0,,,,,0,0,0,0,,,,,,,,63,0,63,0,477.70999160000065,,,,,,,,,,,,,,,,,,,,,,,,,,,,,,,,,,,,,,,,,,,,,,,,,,,,,,,,,Baum,2.554,477.6951116,477.69569630000024,477.6958029000007,477.70999160000065,480.2764003000002,480.26076020000073,480.2640732,480.2764003000002,480.2764003000002,480.2764003000002,480.2764003000002,482.26102810000066,2,None,482.2765881000005,482.2765881000005,482.2765881000005,482.2765881000005,1.4270133999998507,0.16167849999965256,,,,,,,,,,,,,,,,,,6113,1,2025-10-17_12h29.34.696,sm,2024.2.4,59.95078040919703,2025-10-17 12h29.43.791669 +0200,
64,0,64,,,,,,space,1.9258371000005354,None,None,2,None,1.232999099999688,0.16843430000062654,0,0,0,0,,,,,0,0,0,0,,,,,,,,64,0,64,0,482.2765881000005,,,,,,,,,,,,,,,,,,,,,,,,,,,,,,,,,,,,,,,,,,,,,,,,,,,,,,,,,Gelenk,3.1948,482.26152360000015,482.26216980000027,482.2622756999999,482.2765881000005,485.4761851000003,485.46095500000047,485.4652236000002,485.4761851000003,485.4761851000003,485.4761851000003,485.4761851000003,487.4605367000004,2,None,487.4761354000002,487.4761354000002,487.4761354000002,487.4761354000002,1.232999099999688,0.16843430000062654,,,,,,,,,,,,,,,,,,6113,1,2025-10-17_12h29.34.696,sm,2024.2.4,59.95078040919703,2025-10-17 12h29.43.791669 +0200,
65,0,65,,,,,,space,1.9258371000005354,None,None,None,None,,,0,0,0,0,,,,,0,0,0,0,,,,,,,,65,0,65,0,487.4761354000002,,,,,,,,,,,,,,,,,,,,,,,,,,,,,,,,,,,,,,,,,,,,,,,,,,,,,,,,,Haare,3.2652,487.4610330000005,487.4617748999999,487.4618842,487.4761354000002,490.74267899999995,490.72688500000004,490.7305851000001,490.74267899999995,490.74267899999995,490.74267899999995,490.74267899999995,492.7270414000004,None,None,492.7425624000007,492.7425624000007,492.7425624000007,492.7425624000007,,,,,,,,,,,,,,,,,,,,6113,1,2025-10-17_12h29.34.696,sm,2024.2.4,59.95078040919703,2025-10-17 12h29.43.791669 +0200,
66,0,66,,,,,,space,1.9258371000005354,None,None,3,None,1.059616399999868,0.18645809999998164,0,0,0,0,,,,,0,0,0,0,,,,,,,,66,0,66,0,492.7425624000007,,,,,,,,,,,,,,,,,,,,,,,,,,,,,,,,,,,,,,,,,,,,,,,,,,,,,,,,,Vers,3.3256,492.72750930000075,492.7280102000004,492.72811960000035,492.7425624000007,496.07559990000027,496.05989750000026,496.06347260000075,496.07559990000027,496.07559990000027,496.07559990000027,496.07559990000027,498.0602308000007,3,None,498.0755777000004,498.0755777000004,498.0755777000004,498.0755777000004,1.059616399999868,0.18645809999998164,,,,,,,,,,,,,,,,,,6113,1,2025-10-17_12h29.34.696,sm,2024.2.4,59.95078040919703,2025-10-17 12h29.43.791669 +0200,
67,0,67,,,,,,space,1.9258371000005354,None,None,3,None,1.7248411999999007,None,0,0,0,0,,,,,0,0,0,0,,,,,,,,67,0,67,0,498.0755777000004,,,,,,,,,,,,,,,,,,,,,,,,,,,,,,,,,,,,,,,,,,,,,,,,,,,,,,,,,Trauben,2.0817,498.0607450000007,498.06143320000047,498.0615458000002,498.0755777000004,500.15842280000015,500.14306730000044,500.14893740000025,500.15842280000015,500.15842280000015,500.15842280000015,500.15842280000015,502.1433769000005,3,None,502.1585920000007,502.1585920000007,502.1585920000007,502.1585920000007,1.7248411999999007,None,,,,,,,,,,,,,,,,,,6113,1,2025-10-17_12h29.34.696,sm,2024.2.4,59.95078040919703,2025-10-17 12h29.43.791669 +0200,
68,0,68,,,,,,space,1.9258371000005354,None,None,3,None,0.8562400999999227,0.16450150000036956,0,0,0,0,,,,,0,0,0,0,,,,,,,,68,0,68,0,502.1585920000007,,,,,,,,,,,,,,,,,,,,,,,,,,,,,,,,,,,,,,,,,,,,,,,,,,,,,,,,,Klee,2.0929,502.14388620000045,502.1444405000002,502.1445478000005,502.1585920000007,504.2585945999999,504.2428950000003,504.24662630000057,504.2585945999999,504.2585945999999,504.2585945999999,504.2585945999999,506.2427637999999,3,None,506.25865260000046,506.25865260000046,506.25865260000046,506.25865260000046,0.8562400999999227,0.16450150000036956,,,,,,,,,,,,,,,,,,6113,1,2025-10-17_12h29.34.696,sm,2024.2.4,59.95078040919703,2025-10-17 12h29.43.791669 +0200,
69,0,69,,,,,,space,1.9258371000005354,None,None,2,None,1.1820543000003454,0.16811520000010205,0,0,0,0,,,,,0,0,0,0,,,,,,,,69,0,69,0,506.25865260000046,,,,,,,,,,,,,,,,,,,,,,,,,,,,,,,,,,,,,,,,,,,,,,,,,,,,,,,,,Spion,3.982,506.24326910000036,506.2437774,506.2438823000002,506.25865260000046,510.24148779999996,510.22593010000037,510.22990950000076,510.24148779999996,510.24148779999996,510.24148779999996,510.24148779999996,512.2262497000002,2,None,512.2413704999999,512.2413704999999,512.2413704999999,512.2413704999999,1.1820543000003454,0.16811520000010205,,,,,,,,,,,,,,,,,,6113,1,2025-10-17_12h29.34.696,sm,2024.2.4,59.95078040919703,2025-10-17 12h29.43.791669 +0200,
70,0,70,,,,,,space,1.9258371000005354,None,None,3,None,1.8452399999996487,None,0,0,0,0,,,,,0,0,0,0,,,,,,,,70,0,70,0,512.2413704999999,,,,,,,,,,,,,,,,,,,,,,,,,,,,,,,,,,,,,,,,,,,,,,,,,,,,,,,,,Bart,2.272,512.2267441000004,512.2272800000001,512.2273852000008,512.2413704999999,514.5245150999999,514.5092026000002,514.5128136000003,514.5245150999999,514.5245150999999,514.5245150999999,514.5245150999999,516.5091908000004,3,None,516.5244067000003,516.5244067000003,516.5244067000003,516.5244067000003,1.8452399999996487,None,,,,,,,,,,,,,,,,,,6113,1,2025-10-17_12h29.34.696,sm,2024.2.4,59.95078040919703,2025-10-17 12h29.43.791669 +0200,
71,0,71,,,,,,space,1.9258371000005354,None,None,3,None,1.4194745999993756,0.16963469999973313,0,0,0,0,,,,,0,0,0,0,,,,,,,,71,0,71,0,516.5244067000003,,,,,,,,,,,,,,,,,,,,,,,,,,,,,,,,,,,,,,,,,,,,,,,,,,,,,,,,,Bus,2.255,516.5096962000007,516.5102437000005,516.5103499000006,516.5244067000003,518.7908797,518.7752872000001,518.7788724000002,518.7908797,518.7908797,518.7908797,518.7908797,520.7754515000006,3,None,520.7910046000006,520.7910046000006,520.7910046000006,520.7910046000006,1.4194745999993756,0.16963469999973313,,,,,,,,,,,,,,,,,,6113,1,2025-10-17_12h29.34.696,sm,2024.2.4,59.95078040919703,2025-10-17 12h29.43.791669 +0200,
72,0,72,,,,,,space,1.9258371000005354,None,None,2,None,0.9810833000001367,0.15951910000057978,0,0,0,0,,,,,0,0,0,0,,,,,,,,72,0,72,0,520.7910046000006,,,,,,,,,,,,,,,,,,,,,,,,,,,,,,,,,,,,,,,,,,,,,,,,,,,,,,,,,Feier,2.4151,520.7759463000002,520.7766832000007,520.7768607000007,520.7910046000006,523.2072297000004,523.1919252000007,523.1960450000006,523.2072297000004,523.2072297000004,523.2072297000004,523.2072297000004,525.1919952000007,2,None,525.2074049000003,525.2074049000003,525.2074049000003,525.2074049000003,0.9810833000001367,0.15951910000057978,,,,,,,,,,,,,,,,,,6113,1,2025-10-17_12h29.34.696,sm,2024.2.4,59.95078040919703,2025-10-17 12h29.43.791669 +0200,
73,0,73,,,,,,space,1.9258371000005354,None,None,2,None,0.9786038000002009,0.1761837000003652,0,0,0,0,,,,,0,0,0,0,,,,,,,,73,0,73,0,525.2074049000003,,,,,,,,,,,,,,,,,,,,,,,,,,,,,,,,,,,,,,,,,,,,,,,,,,,,,,,,,Ozean,4.2097,525.1924606000002,525.1929844000006,525.1931019000003,525.2074049000003,529.4238945000006,529.4079986000006,529.4114276,529.4238945000006,529.4238945000006,529.4238945000006,529.4238945000006,531.4081560000004,2,None,531.4237209000003,531.4237209000003,531.4237209000003,531.4237209000003,0.9786038000002009,0.1761837000003652,,,,,,,,,,,,,,,,,,6113,1,2025-10-17_12h29.34.696,sm,2024.2.4,59.95078040919703,2025-10-17 12h29.43.791669 +0200,
74,0,74,,,,,,space,1.9258371000005354,None,None,3,None,1.451546000000235,0.1595523999994839,0,0,0,0,,,,,0,0,0,0,,,,,,,,74,0,74,0,531.4237209000003,,,,,,,,,,,,,,,,,,,,,,,,,,,,,,,,,,,,,,,,,,,,,,,,,,,,,,,,,Schnee,2.0371,531.4086582,531.4092482000005,531.4093541000002,531.4237209000003,533.4733962,533.4580245000006,533.4629193000001,533.4733962,533.4733962,533.4733962,533.4733962,535.4579607000005,3,None,535.4735287000003,535.4735287000003,535.4735287000003,535.4735287000003,1.451546000000235,0.1595523999994839,,,,,,,,,,,,,,,,,,6113,1,2025-10-17_12h29.34.696,sm,2024.2.4,59.95078040919703,2025-10-17 12h29.43.791669 +0200,
75,0,75,,,,,,space,1.9258371000005354,None,None,3,None,0.9995655000002444,0.16867670000010548,0,0,0,0,,,,,0,0,0,0,,,,,,,,75,0,75,0,535.4735287000003,,,,,,,,,,,,,,,,,,,,,,,,,,,,,,,,,,,,,,,,,,,,,,,,,,,,,,,,,Auto,2.5633,535.4584565000005,535.4590017999999,535.4591057000007,535.4735287000003,538.0399378000002,538.0241980000001,538.0278516000008,538.0399378000002,538.0399378000002,538.0399378000002,538.0399378000002,540.0241734000001,3,None,540.0397700000003,540.0397700000003,540.0397700000003,540.0397700000003,0.9995655000002444,0.16867670000010548,,,,,,,,,,,,,,,,,,6113,1,2025-10-17_12h29.34.696,sm,2024.2.4,59.95078040919703,2025-10-17 12h29.43.791669 +0200,
76,0,76,,,,,,space,1.9258371000005354,None,None,3,None,1.6299988000000667,0.3007938999999169,0,0,0,0,,,,,0,0,0,0,,,,,,,,76,0,76,0,540.0397700000003,,,,,,,,,,,,,,,,,,,,,,,,,,,,,,,,,,,,,,,,,,,,,,,,,,,,,,,,,Ferien,2.461,540.0246761000008,540.0251804,540.0252879,540.0397700000003,542.5062472,542.4908878000006,542.4948899000001,542.5062472,542.5062472,542.5062472,542.5062472,544.4907648000008,3,None,544.5064428000005,544.5064428000005,544.5064428000005,544.5064428000005,1.6299988000000667,0.3007938999999169,,,,,,,,,,,,,,,,,,6113,1,2025-10-17_12h29.34.696,sm,2024.2.4,59.95078040919703,2025-10-17 12h29.43.791669 +0200,
77,0,77,,,,,,space,1.9258371000005354,None,None,3,None,1.4323346000001038,0.2243637999999919,0,0,0,0,,,,,0,0,0,0,,,,,,,,77,0,77,0,544.5064428000005,,,,,,,,,,,,,,,,,,,,,,,,,,,,,,,,,,,,,,,,,,,,,,,,,,,,,,,,,Kartoffel,2.0655,544.4912792000005,544.4918241000005,544.4919307,544.5064428000005,546.5725913000006,546.5570885000006,546.5610735,546.5725913000006,546.5725913000006,546.5725913000006,546.5725913000006,548.5571395000006,3,None,548.5726718000005,548.5726718000005,548.5726718000005,548.5726718000005,1.4323346000001038,0.2243637999999919,,,,,,,,,,,,,,,,,,6113,1,2025-10-17_12h29.34.696,sm,2024.2.4,59.95078040919703,2025-10-17 12h29.43.791669 +0200,
78,0,78,,,,,,space,1.9258371000005354,None,None,2,None,1.8496768000004522,None,0,0,0,0,,,,,0,0,0,0,,,,,,,,78,0,78,0,548.5726718000005,,,,,,,,,,,,,,,,,,,,,,,,,,,,,,,,,,,,,,,,,,,,,,,,,,,,,,,,,Duft,2.1064,548.5576364000008,548.5581672000008,548.5582732000003,548.5726718000005,550.6889623000006,550.6733874000001,550.6766941000005,550.6889623000006,550.6889623000006,550.6889623000006,550.6889623000006,552.6736324000003,2,None,552.6889547999999,552.6889547999999,552.6889547999999,552.6889547999999,1.8496768000004522,None,,,,,,,,,,,,,,,,,,6113,1,2025-10-17_12h29.34.696,sm,2024.2.4,59.95078040919703,2025-10-17 12h29.43.791669 +0200,
79,0,79,,,,,,space,1.9258371000005354,None,None,3,None,1.101640199999565,None,0,0,0,0,,,,,0,0,0,0,,,,,,,,79,0,79,0,552.6889547999999,,,,,,,,,,,,,,,,,,,,,,,,,,,,,,,,,,,,,,,,,,,,,,,,,,,,,,,,,Trocken,2.5048,552.6741252000002,552.6747912000001,552.6748996000006,552.6889547999999,555.2060352000008,555.1897399,555.1932209000006,555.2060352000008,555.2060352000008,555.2060352000008,555.2060352000008,557.1901956000002,3,None,557.2189349,557.2189349,557.2189349,557.2189349,1.101640199999565,None,,,,,,,,,,,,,,,,,,6113,1,2025-10-17_12h29.34.696,sm,2024.2.4,59.95078040919703,2025-10-17 12h29.43.791669 +0200,
0,0,0,,,,,3.0884,space,2.005989100000079,None,None,2,None,1.8044224999994185,None,0,0,0,0,,,,,1,0,1,0,,,,0,79,79,21,0,0,0,0,600.8027477000005,,,,,,,,,,,,,,,,,,,,,,,,,,,,,,,,,,,,574.2026561000002,574.2029121000005,574.2092065000006,574.2136879,574.2136879,576.2216417,space,2.005989100000079,None,576.2217963000003,576.2377535000005,576.2377535000005,588.7882718999999,None,588.7955205000007,588.804153,588.8036859666674,590.0137852000007,598.8030883666672,599.8136245000005,600.7874856000008,Raum,3.0884,600.7888327999999,600.7895516000008,600.7896526000004,600.8027477000005,603.9024177000001,603.8869559000004,603.8900928000003,603.9024177000001,603.9024177000001,603.9024177000001,603.9024177000001,605.8877772000005,2,None,605.9025613000003,605.9025613000003,605.9025613000003,605.9025613000003,1.8044224999994185,None,569.2047468999999,569.2047997,None,569.2108370000005,569.2210570000007,573.2211921000007,573.2211921000007,573.2211921000007,574.1564145000002,2,0.9219764999998006,None,600.8027477000005,,,,,6113,1,2025-10-17_12h29.34.696,sm,2024.2.4,59.95078040919703,2025-10-17 12h29.43.791669 +0200,
1,0,1,,,,,,space,2.005989100000079,None,None,2,None,0.9004009000000224,0.1787174999999479,0,0,0,0,,,,,1,0,1,0,,,,,,,,1,0,1,0,605.9025613000003,,,,,,,,,,,,,,,,,,,,,,,,,,,,,,,,,,,,,,,,,,,,,,,,,,,,,,,,,Vampir,3.5166,605.8882836000002,605.8889652000007,605.8890769,605.9025613000003,609.4189691000001,609.4034065000005,609.4074831000007,609.4189691000001,609.4189691000001,609.4189691000001,609.4189691000001,611.4034448000002,2,None,611.4188884000005,611.4188884000005,611.4188884000005,611.4188884000005,0.9004009000000224,0.1787174999999479,,,,,,,,,,,,,,,,,,6113,1,2025-10-17_12h29.34.696,sm,2024.2.4,59.95078040919703,2025-10-17 12h29.43.791669 +0200,
2,0,2,,,,,,space,2.005989100000079,None,None,2,None,0.646532699999625,0.15074170000025333,0,0,0,0,,,,,1,0,1,0,,,,,,,,2,0,2,0,611.4188884000005,,,,,,,,,,,,,,,,,,,,,,,,,,,,,,,,,,,,,,,,,,,,,,,,,,,,,,,,,Student,2.3363,611.4039468000001,611.4044612000007,611.4045669000006,611.4188884000005,613.7686489000007,613.7530155000004,613.7574558000006,613.7686489000007,613.7686489000007,613.7686489000007,613.7686489000007,615.7531543000005,2,None,615.7687378,615.7687378,615.7687378,615.7687378,0.646532699999625,0.15074170000025333,,,,,,,,,,,,,,,,,,6113,1,2025-10-17_12h29.34.696,sm,2024.2.4,59.95078040919703,2025-10-17 12h29.43.791669 +0200,
3,0,3,,,,,,space,2.005989100000079,None,None,2,None,1.5283570999999938,0.1619365000005928,0,0,0,0,,,,,1,0,1,0,,,,,,,,3,0,3,0,615.7687378,,,,,,,,,,,,,,,,,,,,,,,,,,,,,,,,,,,,,,,,,,,,,,,,,,,,,,,,,Radio,2.0888,615.7536499000007,615.7543124000003,615.7544164999999,615.7687378,617.8686525000003,617.8530318000003,617.8570816000001,617.8686525000003,617.8686525000003,617.8686525000003,617.8686525000003,619.8528788000003,2,None,619.8686129000007,619.8686129000007,619.8686129000007,619.8686129000007,1.5283570999999938,0.1619365000005928,,,,,,,,,,,,,,,,,,6113,1,2025-10-17_12h29.34.696,sm,2024.2.4,59.95078040919703,2025-10-17 12h29.43.791669 +0200,
4,0,4,,,,,,space,2.005989100000079,None,None,3,None,1.2818231999999625,0.1874680000000808,0,0,0,0,,,,,1,0,1,0,,,,,,,,4,0,4,0,619.8686129000007,,,,,,,,,,,,,,,,,,,,,,,,,,,,,,,,,,,,,,,,,,,,,,,,,,,,,,,,,Zähne,5.0734,619.8533772999999,619.8538932000001,619.8539980000005,619.8686129000007,624.9515630000005,624.9358689999999,624.9397758000005,624.9515630000005,624.9515630000005,624.9515630000005,624.9515630000005,626.9356526000001,3,None,626.9518900000003,626.9518900000003,626.9518900000003,626.9518900000003,1.2818231999999625,0.1874680000000808,,,,,,,,,,,,,,,,,,6113,1,2025-10-17_12h29.34.696,sm,2024.2.4,59.95078040919703,2025-10-17 12h29.43.791669 +0200,
5,0,5,,,,,,space,2.005989100000079,None,None,3,None,1.6186994999998205,0.1928405999997267,0,0,0,0,,,,,1,0,1,0,,,,,,,,5,0,5,0,626.9518900000003,,,,,,,,,,,,,,,,,,,,,,,,,,,,,,,,,,,,,,,,,,,,,,,,,,,,,,,,,Ei,2.014,626.9360984000004,626.9365751000005,626.9366757000007,626.9518900000003,628.9683957000007,628.9521274000008,628.9551034000006,628.9683957000007,628.9683957000007,628.9683957000007,628.9683957000007,630.9523062000007,3,None,630.9681019,630.9681019,630.9681019,630.9681019,1.6186994999998205,0.1928405999997267,,,,,,,,,,,,,,,,,,6113,1,2025-10-17_12h29.34.696,sm,2024.2.4,59.95078040919703,2025-10-17 12h29.43.791669 +0200,
6,0,6,,,,,,space,2.005989100000079,None,None,2,None,1.630505400000402,0.24139939999986382,0,0,0,0,,,,,1,0,1,0,,,,,,,,6,0,6,0,630.9681019,,,,,,,,,,,,,,,,,,,,,,,,,,,,,,,,,,,,,,,,,,,,,,,,,,,,,,,,,Zug,2.274,630.9528049999999,630.9533097000003,630.9534141000004,630.9681019,633.2510972,633.2355574000003,633.2392804000001,633.2510972,633.2510972,633.2510972,633.2510972,635.2351480000007,2,None,635.2511664000003,635.2511664000003,635.2511664000003,635.2511664000003,1.630505400000402,0.24139939999986382,,,,,,,,,,,,,,,,,,6113,1,2025-10-17_12h29.34.696,sm,2024.2.4,59.95078040919703,2025-10-17 12h29.43.791669 +0200,
7,0,7,,,,,,space,2.005989100000079,None,None,None,None,,,0,0,0,0,,,,,1,0,1,0,,,,,,,,7,0,7,0,635.2511664000003,,,,,,,,,,,,,,,,,,,,,,,,,,,,,,,,,,,,,,,,,,,,,,,,,,,,,,,,,Urlaub,3.7457,635.2355607,635.2360231000002,635.2361136,635.2511664000003,639.0004776000005,638.9850532,638.9920982000003,639.0004776000005,639.0004776000005,639.0004776000005,639.0004776000005,640.9851962000002,None,None,641.0006174,641.0006174,641.0006174,641.0006174,,,,,,,,,,,,,,,,,,,,6113,1,2025-10-17_12h29.34.696,sm,2024.2.4,59.95078040919703,2025-10-17 12h29.43.791669 +0200,
8,0,8,,,,,,space,2.005989100000079,None,None,3,None,1.3515126000002056,0.16379589999996824,0,0,0,0,,,,,1,0,1,0,,,,,,,,8,0,8,0,641.0006174,,,,,,,,,,,,,,,,,,,,,,,,,,,,,,,,,,,,,,,,,,,,,,,,,,,,,,,,,Geheimnis,3.0611,640.9856447000002,640.9862897000003,640.9863953000004,641.0006174,644.0667247000001,644.0516715000003,644.0564251000005,644.0667247000001,644.0667247000001,644.0667247000001,644.0667247000001,646.0516973000003,3,None,646.0670037,646.0670037,646.0670037,646.0670037,1.3515126000002056,0.16379589999996824,,,,,,,,,,,,,,,,,,6113,1,2025-10-17_12h29.34.696,sm,2024.2.4,59.95078040919703,2025-10-17 12h29.43.791669 +0200,
9,0,9,,,,,,space,2.005989100000079,None,None,2,None,1.1973290000005363,0.1545708999992712,0,0,0,0,,,,,1,0,1,0,,,,,,,,9,0,9,0,646.0670037,,,,,,,,,,,,,,,,,,,,,,,,,,,,,,,,,,,,,,,,,,,,,,,,,,,,,,,,,Augen,2.1652,646.0521935000006,646.0526968000004,646.0528063000002,646.0670037,648.2334319000001,648.2179782000003,648.2221428000003,648.2334319000001,648.2334319000001,648.2334319000001,648.2334319000001,650.2179487000003,2,None,650.2334530000007,650.2334530000007,650.2334530000007,650.2334530000007,1.1973290000005363,0.1545708999992712,,,,,,,,,,,,,,,,,,6113,1,2025-10-17_12h29.34.696,sm,2024.2.4,59.95078040919703,2025-10-17 12h29.43.791669 +0200,
10,0,10,,,,,,space,2.005989100000079,None,None,2,None,1.4134247000001778,0.1435977000001003,0,0,0,0,,,,,1,0,1,0,,,,,,,,10,0,10,0,650.2334530000007,,,,,,,,,,,,,,,,,,,,,,,,,,,,,,,,,,,,,,,,,,,,,,,,,,,,,,,,,Sport,3.8382,650.2184305999999,650.2189314000007,650.2190370000008,650.2334530000007,654.0830533000008,654.0672776000001,654.0708149000002,654.0830533000008,654.0830533000008,654.0830533000008,654.0830533000008,656.0674631000002,2,None,656.0830731000005,656.0830731000005,656.0830731000005,656.0830731000005,1.4134247000001778,0.1435977000001003,,,,,,,,,,,,,,,,,,6113,1,2025-10-17_12h29.34.696,sm,2024.2.4,59.95078040919703,2025-10-17 12h29.43.791669 +0200,
11,0,11,,,,,,space,2.005989100000079,None,None,2,None,1.1594269000006534,0.16994639999938954,0,0,0,0,,,,,1,0,1,0,,,,,,,,11,0,11,0,656.0830731000005,,,,,,,,,,,,,,,,,,,,,,,,,,,,,,,,,,,,,,,,,,,,,,,,,,,,,,,,,Geburtstag,2.0086,656.0679384000005,656.0685788999999,656.0686852000008,656.0830731000005,658.1001866000006,658.0840488000003,658.0885997000005,658.1001866000006,658.1001866000006,658.1001866000006,658.1001866000006,660.0838984000002,2,None,660.0994662000003,660.0994662000003,660.0994662000003,660.0994662000003,1.1594269000006534,0.16994639999938954,,,,,,,,,,,,,,,,,,6113,1,2025-10-17_12h29.34.696,sm,2024.2.4,59.95078040919703,2025-10-17 12h29.43.791669 +0200,
12,0,12,,,,,,space,2.005989100000079,None,None,None,None,,,0,0,0,0,,,,,1,0,1,0,,,,,,,,12,0,12,0,660.0994662000003,,,,,,,,,,,,,,,,,,,,,,,,,,,,,,,,,,,,,,,,,,,,,,,,,,,,,,,,,Tischler,2.5789,660.0844042000008,660.0850493000007,660.0851561,660.0994662000003,662.6824323999999,662.6667766999999,662.6705097000004,662.6824323999999,662.6824323999999,662.6824323999999,662.6824323999999,664.6670152000006,None,None,664.6827074000003,664.6827074000003,664.6827074000003,664.6827074000003,,,,,,,,,,,,,,,,,,,,6113,1,2025-10-17_12h29.34.696,sm,2024.2.4,59.95078040919703,2025-10-17 12h29.43.791669 +0200,
13,0,13,,,,,,space,2.005989100000079,None,None,3,None,0.7806730000002062,0.2156038000002809,0,0,0,0,,,,,1,0,1,0,,,,,,,,13,0,13,0,664.6827074000003,,,,,,,,,,,,,,,,,,,,,,,,,,,,,,,,,,,,,,,,,,,,,,,,,,,,,,,,,Seife,2.7573,664.6674778000006,664.6680420000002,664.6681493000006,664.6827074000003,667.4488178000001,667.4335862000007,667.4377848000004,667.4488178000001,667.4488178000001,667.4488178000001,667.4488178000001,669.4332843000002,3,None,669.4489519000008,669.4489519000008,669.4489519000008,669.4489519000008,0.7806730000002062,0.2156038000002809,,,,,,,,,,,,,,,,,,6113,1,2025-10-17_12h29.34.696,sm,2024.2.4,59.95078040919703,2025-10-17 12h29.43.791669 +0200,
14,0,14,,,,,,space,2.005989100000079,None,None,3,None,0.9324759999999515,0.14800190000005387,0,0,0,0,,,,,1,0,1,0,,,,,,,,14,0,14,0,669.4489519000008,,,,,,,,,,,,,,,,,,,,,,,,,,,,,,,,,,,,,,,,,,,,,,,,,,,,,,,,,Tal,3.1948,669.4337860000005,669.4342875000002,669.4343935000006,669.4489519000008,672.6484503000001,672.6331446000004,672.6368503000003,672.6484503000001,672.6484503000001,672.6484503000001,672.6484503000001,674.6331734000005,3,None,674.6487168000003,674.6487168000003,674.6487168000003,674.6487168000003,0.9324759999999515,0.14800190000005387,,,,,,,,,,,,,,,,,,6113,1,2025-10-17_12h29.34.696,sm,2024.2.4,59.95078040919703,2025-10-17 12h29.43.791669 +0200,
15,0,15,,,,,,space,2.005989100000079,None,None,3,None,1.2892830999999205,0.2662337000001571,0,0,0,0,,,,,1,0,1,0,,,,,,,,15,0,15,0,674.6487168000003,,,,,,,,,,,,,,,,,,,,,,,,,,,,,,,,,,,,,,,,,,,,,,,,,,,,,,,,,Bürste,2.0921,674.6336807000007,674.6341858000005,674.6342942000001,674.6487168000003,676.7483396000007,676.7327344000005,676.7372448000006,676.7483396000007,676.7483396000007,676.7483396000007,676.7483396000007,678.7329972000007,3,None,678.7484987000007,678.7484987000007,678.7484987000007,678.7484987000007,1.2892830999999205,0.2662337000001571,,,,,,,,,,,,,,,,,,6113,1,2025-10-17_12h29.34.696,sm,2024.2.4,59.95078040919703,2025-10-17 12h29.43.791669 +0200,
16,0,16,,,,,,space,2.005989100000079,None,None,3,None,1.130719499999941,0.1629768000002514,0,0,0,0,,,,,1,0,1,0,,,,,,,,16,0,16,0,678.7484987000007,,,,,,,,,,,,,,,,,,,,,,,,,,,,,,,,,,,,,,,,,,,,,,,,,,,,,,,,,Klinge,2.8354,678.7334991000007,678.7340205,678.7341264000006,678.7484987000007,681.5981291000007,681.5825505000003,681.5859470000005,681.5981291000007,681.5981291000007,681.5981291000007,681.5981291000007,683.5825852000007,3,None,683.5980988000001,683.5980988000001,683.5980988000001,683.5980988000001,1.130719499999941,0.1629768000002514,,,,,,,,,,,,,,,,,,6113,1,2025-10-17_12h29.34.696,sm,2024.2.4,59.95078040919703,2025-10-17 12h29.43.791669 +0200,
17,0,17,,,,,,space,2.005989100000079,None,None,3,None,0.9838279000005059,0.16666059999988647,0,0,0,0,,,,,1,0,1,0,,,,,,,,17,0,17,0,683.5980988000001,,,,,,,,,,,,,,,,,,,,,,,,,,,,,,,,,,,,,,,,,,,,,,,,,,,,,,,,,Zimt,3.3256,683.5830842000005,683.5837395000008,683.5838473000003,683.5980988000001,686.9310019000004,686.9154024,686.9187918000007,686.9310019000004,686.9310019000004,686.9310019000004,686.9310019000004,688.9160347000006,3,None,688.9311342999999,688.9311342999999,688.9311342999999,688.9311342999999,0.9838279000005059,0.16666059999988647,,,,,,,,,,,,,,,,,,6113,1,2025-10-17_12h29.34.696,sm,2024.2.4,59.95078040919703,2025-10-17 12h29.43.791669 +0200,
18,0,18,,,,,,space,2.005989100000079,None,None,3,None,1.5042383999998492,0.18013950000022305,0,0,0,0,,,,,1,0,1,0,,,,,,,,18,0,18,0,688.9311342999999,,,,,,,,,,,,,,,,,,,,,,,,,,,,,,,,,,,,,,,,,,,,,,,,,,,,,,,,,Monument,2.8351,688.9165794999999,688.9171079000007,688.9172153,688.9311342999999,691.7808931,691.7654553000002,691.7696977000005,691.7808931,691.7808931,691.7808931,691.7808931,693.7653275000002,3,None,693.7808629000001,693.7808629000001,693.7808629000001,693.7808629000001,1.5042383999998492,0.18013950000022305,,,,,,,,,,,,,,,,,,6113,1,2025-10-17_12h29.34.696,sm,2024.2.4,59.95078040919703,2025-10-17 12h29.43.791669 +0200,
19,0,19,,,,,,space,2.005989100000079,None,None,2,None,0.7017243000000235,0.17692259999967064,0,0,0,0,,,,,1,0,1,0,,,,,,,,19,0,19,0,693.7808629000001,,,,,,,,,,,,,,,,,,,,,,,,,,,,,,,,,,,,,,,,,,,,,,,,,,,,,,,,,Bruder,2.1434,693.7658346000007,693.7664238000007,693.7665947000005,693.7808629000001,695.9305475000001,695.9150313,695.9185597000005,695.9305475000001,695.9305475000001,695.9305475000001,695.9305475000001,697.9151783000007,2,None,697.9307950000002,697.9307950000002,697.9307950000002,697.9307950000002,0.7017243000000235,0.17692259999967064,,,,,,,,,,,,,,,,,,6113,1,2025-10-17_12h29.34.696,sm,2024.2.4,59.95078040919703,2025-10-17 12h29.43.791669 +0200,
20,0,20,,,,,,space,2.005989100000079,None,None,3,None,1.9438722000004418,None,0,0,0,0,,,,,1,0,1,0,,,,,,,,20,0,20,0,697.9307950000002,,,,,,,,,,,,,,,,,,,,,,,,,,,,,,,,,,,,,,,,,,,,,,,,,,,,,,,,,Poesie,2.8454,697.9156754000005,697.9164246,697.9165370000001,697.9307950000002,700.7804161000004,700.7646843000002,700.7686462000001,700.7804161000004,700.7804161000004,700.7804161000004,700.7804161000004,702.7647937000002,3,None,702.7802971000001,702.7802971000001,702.7802971000001,702.7802971000001,1.9438722000004418,None,,,,,,,,,,,,,,,,,,6113,1,2025-10-17_12h29.34.696,sm,2024.2.4,59.95078040919703,2025-10-17 12h29.43.791669 +0200,
21,0,21,,,,,,space,2.005989100000079,None,None,2,None,1.9386351999992257,None,0,0,0,0,,,,,1,0,1,0,,,,,,,,21,0,21,0,702.7802971000001,,,,,,,,,,,,,,,,,,,,,,,,,,,,,,,,,,,,,,,,,,,,,,,,,,,,,,,,,Weltraum,3.3631,702.7652941000006,702.7659778000007,702.7660825000003,702.7802971000001,706.1467815000005,706.1310900000008,706.1345749000002,706.1467815000005,706.1467815000005,706.1467815000005,706.1467815000005,708.1310501000007,2,None,708.1465246000007,708.1465246000007,708.1465246000007,708.1465246000007,1.9386351999992257,None,,,,,,,,,,,,,,,,,,6113,1,2025-10-17_12h29.34.696,sm,2024.2.4,59.95078040919703,2025-10-17 12h29.43.791669 +0200,
22,0,22,,,,,,space,2.005989100000079,None,None,2,None,1.030619399999523,0.15419389999988198,0,0,0,0,,,,,1,0,1,0,,,,,,,,22,0,22,0,708.1465246000007,,,,,,,,,,,,,,,,,,,,,,,,,,,,,,,,,,,,,,,,,,,,,,,,,,,,,,,,,Gespräch,2.5048,708.1315246000004,708.1320615000004,708.1321680000001,708.1465246000007,710.6630353,710.6474795000004,710.6520305000004,710.6630353,710.6630353,710.6630353,710.6630353,712.6475801000006,2,None,712.6629604,712.6629604,712.6629604,712.6629604,1.030619399999523,0.15419389999988198,,,,,,,,,,,,,,,,,,6113,1,2025-10-17_12h29.34.696,sm,2024.2.4,59.95078040919703,2025-10-17 12h29.43.791669 +0200,
23,0,23,,,,,,space,2.005989100000079,None,None,2,None,1.1043080999997983,0.14879060000021127,0,0,0,0,,,,,1,0,1,0,,,,,,,,23,0,23,0,712.6629604,,,,,,,,,,,,,,,,,,,,,,,,,,,,,,,,,,,,,,,,,,,,,,,,,,,,,,,,,Team,5.289,712.6480801000007,712.6487145000001,712.6488204000007,712.6629604,717.9626084000001,717.9468842000006,717.9498922000002,717.9626084000001,717.9626084000001,717.9626084000001,717.9626084000001,719.9472400000004,2,None,719.9626988,719.9626988,719.9626988,719.9626988,1.1043080999997983,0.14879060000021127,,,,,,,,,,,,,,,,,,6113,1,2025-10-17_12h29.34.696,sm,2024.2.4,59.95078040919703,2025-10-17 12h29.43.791669 +0200,
24,0,24,,,,,,space,2.005989100000079,None,None,2,None,1.3597061000000394,0.15018569999938336,0,0,0,0,,,,,1,0,1,0,,,,,,,,24,0,24,0,719.9626988,,,,,,,,,,,,,,,,,,,,,,,,,,,,,,,,,,,,,,,,,,,,,,,,,,,,,,,,,Humor,2.6073,719.9477391,719.9484008,719.9485057000002,719.9626988,722.5791773000001,722.5633789000003,722.5667886000001,722.5791773000001,722.5791773000001,722.5791773000001,722.5791773000001,724.5636006000004,2,None,724.5792610000008,724.5792610000008,724.5792610000008,724.5792610000008,1.3597061000000394,0.15018569999938336,,,,,,,,,,,,,,,,,,6113,1,2025-10-17_12h29.34.696,sm,2024.2.4,59.95078040919703,2025-10-17 12h29.43.791669 +0200,
25,0,25,,,,,,space,2.005989100000079,None,None,3,None,0.812883900000088,0.14517309999973804,0,0,0,0,,,,,1,0,1,0,,,,,,,,25,0,25,0,724.5792610000008,,,,,,,,,,,,,,,,,,,,,,,,,,,,,,,,,,,,,,,,,,,,,,,,,,,,,,,,,Karton,2.4131,724.5640968000007,724.5646210000004,724.5647256000002,724.5792610000008,726.9951801000007,726.9799349000004,726.9833318999999,726.9951801000007,726.9951801000007,726.9951801000007,726.9951801000007,728.9797978000006,3,None,728.9955697000005,728.9955697000005,728.9955697000005,728.9955697000005,0.812883900000088,0.14517309999973804,,,,,,,,,,,,,,,,,,6113,1,2025-10-17_12h29.34.696,sm,2024.2.4,59.95078040919703,2025-10-17 12h29.43.791669 +0200,
26,0,26,,,,,,space,2.005989100000079,None,None,2,None,1.1252973999999085,0.19688080000014452,0,0,0,0,,,,,1,0,1,0,,,,,,,,26,0,26,0,728.9955697000005,,,,,,,,,,,,,,,,,,,,,,,,,,,,,,,,,,,,,,,,,,,,,,,,,,,,,,,,,Zunge,2.4045,728.9803043000002,728.9808115000005,728.9809211000002,728.9955697000005,731.4118063000005,731.3962380000003,731.3997722000004,731.4118063000005,731.4118063000005,731.4118063000005,731.4118063000005,733.3964532,2,None,733.4119790000004,733.4119790000004,733.4119790000004,733.4119790000004,1.1252973999999085,0.19688080000014452,,,,,,,,,,,,,,,,,,6113,1,2025-10-17_12h29.34.696,sm,2024.2.4,59.95078040919703,2025-10-17 12h29.43.791669 +0200,
27,0,27,,,,,,space,2.005989100000079,None,None,2,None,0.9233089999997901,0.14657830000032845,0,0,0,0,,,,,1,0,1,0,,,,,,,,27,0,27,0,733.4119790000004,,,,,,,,,,,,,,,,,,,,,,,,,,,,,,,,,,,,,,,,,,,,,,,,,,,,,,,,,Autorin,2.8691,733.3969525000002,733.3976019000002,733.3977077,733.4119790000004,736.2950408000006,736.2797764000006,736.2837437000007,736.2950408000006,736.2950408000006,736.2950408000006,736.2950408000006,738.2794363000003,2,None,738.2949466,738.2949466,738.2949466,738.2949466,0.9233089999997901,0.14657830000032845,,,,,,,,,,,,,,,,,,6113,1,2025-10-17_12h29.34.696,sm,2024.2.4,59.95078040919703,2025-10-17 12h29.43.791669 +0200,
28,0,28,,,,,,space,2.005989100000079,None,None,2,None,1.048472600000423,0.17428509999990638,0,0,0,0,,,,,1,0,1,0,,,,,,,,28,0,28,0,738.2949466,,,,,,,,,,,,,,,,,,,,,,,,,,,,,,,,,,,,,,,,,,,,,,,,,,,,,,,,,Elephant,4.1378,738.2799312000006,738.2805056000007,738.2806128000002,738.2949466,742.4446476000003,742.4290467999999,742.4332202000005,742.4446476000003,742.4446476000003,742.4446476000003,742.4446476000003,744.4292315000002,2,None,744.4451091000001,744.4451091000001,744.4451091000001,744.4451091000001,1.048472600000423,0.17428509999990638,,,,,,,,,,,,,,,,,,6113,1,2025-10-17_12h29.34.696,sm,2024.2.4,59.95078040919703,2025-10-17 12h29.43.791669 +0200,
29,0,29,,,,,,space,2.005989100000079,None,None,2,None,1.090424200000598,0.14569639999990613,0,0,0,0,,,,,1,0,1,0,,,,,,,,29,0,29,0,744.4451091000001,,,,,,,,,,,,,,,,,,,,,,,,,,,,,,,,,,,,,,,,,,,,,,,,,,,,,,,,,Fuß,3.0656,744.4297298000001,744.4303155000007,744.4304218000007,744.4451091000001,747.5107472,747.4956777000007,747.4999551999999,747.5107472,747.5107472,747.5107472,747.5107472,749.4953279000001,2,None,749.5108095000005,749.5108095000005,749.5108095000005,749.5108095000005,1.090424200000598,0.14569639999990613,,,,,,,,,,,,,,,,,,6113,1,2025-10-17_12h29.34.696,sm,2024.2.4,59.95078040919703,2025-10-17 12h29.43.791669 +0200,
30,0,30,,,,,,space,2.005989100000079,None,None,2,None,1.681376900000032,0.17315559999951802,0,0,0,0,,,,,1,0,1,0,,,,,,,,30,0,30,0,749.5108095000005,,,,,,,,,,,,,,,,,,,,,,,,,,,,,,,,,,,,,,,,,,,,,,,,,,,,,,,,,Essen,2.3229,749.4958283000005,749.4964831000007,749.496588,749.5108095000005,751.8442881999999,751.8280262000007,751.8306545000005,751.8442881999999,751.8442881999999,751.8442881999999,751.8442881999999,753.8287832000005,2,None,753.8442584000004,753.8442584000004,753.8442584000004,753.8442584000004,1.681376900000032,0.17315559999951802,,,,,,,,,,,,,,,,,,6113,1,2025-10-17_12h29.34.696,sm,2024.2.4,59.95078040919703,2025-10-17 12h29.43.791669 +0200,
31,0,31,,,,,,space,2.005989100000079,None,None,3,None,1.4384835000000749,0.15793140000005224,0,0,0,0,,,,,1,0,1,0,,,,,,,,31,0,31,0,753.8442584000004,,,,,,,,,,,,,,,,,,,,,,,,,,,,,,,,,,,,,,,,,,,,,,,,,,,,,,,,,Album,2.3169,753.8292895000004,753.8298014000002,753.8299120000001,753.8442584000004,756.1604335000002,756.1447480000006,756.1482693000007,756.1604335000002,756.1604335000002,756.1604335000002,756.1604335000002,758.1451768000006,3,None,758.1603437000003,758.1603437000003,758.1603437000003,758.1603437000003,1.4384835000000749,0.15793140000005224,,,,,,,,,,,,,,,,,,6113,1,2025-10-17_12h29.34.696,sm,2024.2.4,59.95078040919703,2025-10-17 12h29.43.791669 +0200,
32,0,32,,,,,,space,2.005989100000079,None,None,3,None,0.8950856000001295,0.1522246999993513,0,0,0,0,,,,,1,0,1,0,,,,,,,,32,0,32,0,758.1603437000003,,,,,,,,,,,,,,,,,,,,,,,,,,,,,,,,,,,,,,,,,,,,,,,,,,,,,,,,,Dip,2.5633,758.1456760000001,758.1463458000007,758.1464553000005,758.1603437000003,760.7269695000005,760.7116433000001,760.7146113000008,760.7269695000005,760.7269695000005,760.7269695000005,760.7269695000005,762.7114012000002,3,None,762.7267484000004,762.7267484000004,762.7267484000004,762.7267484000004,0.8950856000001295,0.1522246999993513,,,,,,,,,,,,,,,,,,6113,1,2025-10-17_12h29.34.696,sm,2024.2.4,59.95078040919703,2025-10-17 12h29.43.791669 +0200,
33,0,33,,,,,,space,2.005989100000079,None,None,3,None,0.763182599999709,0.18698960000074294,0,0,0,0,,,,,1,0,1,0,,,,,,,,33,0,33,0,762.7267484000004,,,,,,,,,,,,,,,,,,,,,,,,,,,,,,,,,,,,,,,,,,,,,,,,,,,,,,,,,Pizza,2.0929,762.711918,762.7124231000007,762.7125300000007,762.7267484000004,764.8266964000004,764.8110825000003,764.8152216000008,764.8266964000004,764.8266964000004,764.8266964000004,764.8266964000004,766.8111922000007,3,None,766.8268881000004,766.8268881000004,766.8268881000004,766.8268881000004,0.763182599999709,0.18698960000074294,,,,,,,,,,,,,,,,,,6113,1,2025-10-17_12h29.34.696,sm,2024.2.4,59.95078040919703,2025-10-17 12h29.43.791669 +0200,
34,0,34,,,,,,space,2.005989100000079,None,None,2,None,1.1804156000007424,0.14761249999992287,0,0,0,0,,,,,1,0,1,0,,,,,,,,34,0,34,0,766.8268881000004,,,,,,,,,,,,,,,,,,,,,,,,,,,,,,,,,,,,,,,,,,,,,,,,,,,,,,,,,Konzert,2.5626,766.8116908000002,766.8121947,766.8123000000005,766.8268881000004,769.3931320000002,769.3776498000007,769.3816886000004,769.3931320000002,769.3931320000002,769.3931320000002,769.3931320000002,771.3775224999999,2,None,771.3931682000002,771.3931682000002,771.3931682000002,771.3931682000002,1.1804156000007424,0.14761249999992287,,,,,,,,,,,,,,,,,,6113,1,2025-10-17_12h29.34.696,sm,2024.2.4,59.95078040919703,2025-10-17 12h29.43.791669 +0200,
35,0,35,,,,,,space,2.005989100000079,None,None,3,None,1.1667375999995784,0.17994090000047436,0,0,0,0,,,,,1,0,1,0,,,,,,,,35,0,35,0,771.3931682000002,,,,,,,,,,,,,,,,,,,,,,,,,,,,,,,,,,,,,,,,,,,,,,,,,,,,,,,,,Käse,2.461,771.3780191000005,771.3786625000002,771.3787664000001,771.3931682000002,773.8593933000002,773.8439597000006,773.8476049000001,773.8593933000002,773.8593933000002,773.8593933000002,773.8593933000002,775.8440864000004,3,None,775.8594550000007,775.8594550000007,775.8594550000007,775.8594550000007,1.1667375999995784,0.17994090000047436,,,,,,,,,,,,,,,,,,6113,1,2025-10-17_12h29.34.696,sm,2024.2.4,59.95078040919703,2025-10-17 12h29.43.791669 +0200,
36,0,36,,,,,,space,2.005989100000079,None,None,2,None,1.2287817000005816,0.15715309999995952,0,0,0,0,,,,,1,0,1,0,,,,,,,,36,0,36,0,775.8594550000007,,,,,,,,,,,,,,,,,,,,,,,,,,,,,,,,,,,,,,,,,,,,,,,,,,,,,,,,,Gegenwart,2.8034,775.8445752000007,775.8453128000001,775.8454101000007,775.8594550000007,778.6758870000003,778.6602633000002,778.6669578000001,778.6758870000003,778.6758870000003,778.6758870000003,778.6758870000003,780.6598238000006,2,None,780.6760419000002,780.6760419000002,780.6760419000002,780.6760419000002,1.2287817000005816,0.15715309999995952,,,,,,,,,,,,,,,,,,6113,1,2025-10-17_12h29.34.696,sm,2024.2.4,59.95078040919703,2025-10-17 12h29.43.791669 +0200,
37,0,37,,,,,,space,2.005989100000079,None,None,2,None,0.7904537999993408,0.16572619999988092,0,0,0,0,,,,,1,0,1,0,,,,,,,,37,0,37,0,780.6760419000002,,,,,,,,,,,,,,,,,,,,,,,,,,,,,,,,,,,,,,,,,,,,,,,,,,,,,,,,,Turnerin,2.279,780.6602711000005,780.6607401000001,780.6608351000004,780.6760419000002,782.9588759000007,782.9432869000002,782.9473177,782.9588759000007,782.9588759000007,782.9588759000007,782.9588759000007,784.9432827,2,None,784.9588178000004,784.9588178000004,784.9588178000004,784.9588178000004,0.7904537999993408,0.16572619999988092,,,,,,,,,,,,,,,,,,6113,1,2025-10-17_12h29.34.696,sm,2024.2.4,59.95078040919703,2025-10-17 12h29.43.791669 +0200,
38,0,38,,,,,,space,2.005989100000079,None,None,3,None,1.9131349999997838,None,0,0,0,0,,,,,1,0,1,0,,,,,,,,38,0,38,0,784.9588178000004,,,,,,,,,,,,,,,,,,,,,,,,,,,,,,,,,,,,,,,,,,,,,,,,,,,,,,,,,Sack,2.1341,784.9437766000001,784.9442813000005,784.9443859000003,784.9588178000004,787.0920243,787.0765872000002,787.0797881000008,787.0920243,787.0920243,787.0920243,787.0920243,789.0765747000005,3,None,789.092028,789.092028,789.092028,789.092028,1.9131349999997838,None,,,,,,,,,,,,,,,,,,6113,1,2025-10-17_12h29.34.696,sm,2024.2.4,59.95078040919703,2025-10-17 12h29.43.791669 +0200,
39,0,39,,,,,,space,2.005989100000079,None,None,None,None,,,0,0,0,0,,,,,1,0,1,0,,,,,,,,39,0,39,0,789.092028,,,,,,,,,,,,,,,,,,,,,,,,,,,,,,,,,,,,,,,,,,,,,,,,,,,,,,,,,Zwerg,2.8615,789.0770759000006,789.0777647000004,789.0778724000002,789.092028,791.9590877999999,791.9426093000002,791.9459383000003,791.9590877999999,791.9590877999999,791.9590877999999,791.9590877999999,793.9427904000004,None,None,793.9582794000007,793.9582794000007,793.9582794000007,793.9582794000007,,,,,,,,,,,,,,,,,,,,6113,1,2025-10-17_12h29.34.696,sm,2024.2.4,59.95078040919703,2025-10-17 12h29.43.791669 +0200,
40,0,40,,,,,,space,2.005989100000079,None,None,None,None,,,0,0,0,0,,,,,1,0,1,0,,,,,,,,40,0,40,0,793.9582794000007,,,,,,,,,,,,,,,,,,,,,,,,,,,,,,,,,,,,,,,,,,,,,,,,,,,,,,,,,Weinen,2.7357,793.9432524000003,793.9437724,793.9438771000005,793.9582794000007,796.7081903000008,796.6926324000005,796.6966774000002,796.7081903000008,796.7081903000008,796.7081903000008,796.7081903000008,798.6924115000002,None,None,798.7080819000003,798.7080819000003,798.7080819000003,798.7080819000003,,,,,,,,,,,,,,,,,,,,6113,1,2025-10-17_12h29.34.696,sm,2024.2.4,59.95078040919703,2025-10-17 12h29.43.791669 +0200,
41,0,41,,,,,,space,2.005989100000079,None,None,None,None,,,0,0,0,0,,,,,1,0,1,0,,,,,,,,41,0,41,0,798.7080819000003,,,,,,,,,,,,,,,,,,,,,,,,,,,,,,,,,,,,,,,,,,,,,,,,,,,,,,,,,Rock,3.7827,798.6928537000003,798.6933364000006,798.6934359000006,798.7080819000003,802.4911533000004,802.4756099000006,802.4792566000006,802.4911533000004,802.4911533000004,802.4911533000004,802.4911533000004,804.4755865000006,None,None,804.4911295000002,804.4911295000002,804.4911295000002,804.4911295000002,,,,,,,,,,,,,,,,,,,,6113,1,2025-10-17_12h29.34.696,sm,2024.2.4,59.95078040919703,2025-10-17 12h29.43.791669 +0200,
42,0,42,,,,,,space,2.005989100000079,None,None,3,None,1.3985689999999522,0.19134529999973893,0,0,0,0,,,,,1,0,1,0,,,,,,,,42,0,42,0,804.4911295000002,,,,,,,,,,,,,,,,,,,,,,,,,,,,,,,,,,,,,,,,,,,,,,,,,,,,,,,,,Film,2.4287,804.4760441000008,804.4767022000005,804.4768076,804.4911295000002,806.9239998000003,806.9084863000007,806.9118185000007,806.9239998000003,806.9239998000003,806.9239998000003,806.9239998000003,808.9087660000005,3,None,808.9242515000005,808.9242515000005,808.9242515000005,808.9242515000005,1.3985689999999522,0.19134529999973893,,,,,,,,,,,,,,,,,,6113,1,2025-10-17_12h29.34.696,sm,2024.2.4,59.95078040919703,2025-10-17 12h29.43.791669 +0200,
43,0,43,,,,,,space,2.005989100000079,None,None,2,None,1.1783259999992879,0.17622670000037033,0,0,0,0,,,,,1,0,1,0,,,,,,,,43,0,43,0,808.9242515000005,,,,,,,,,,,,,,,,,,,,,,,,,,,,,,,,,,,,,,,,,,,,,,,,,,,,,,,,,Kopf,3.2156,808.9092702000007,808.9100217000005,808.9101264999999,808.9242515000005,812.1406532999999,812.1249954000004,812.1291470000006,812.1406532999999,812.1406532999999,812.1406532999999,812.1406532999999,814.1248294000006,2,None,814.1406380000008,814.1406380000008,814.1406380000008,814.1406380000008,1.1783259999992879,0.17622670000037033,,,,,,,,,,,,,,,,,,6113,1,2025-10-17_12h29.34.696,sm,2024.2.4,59.95078040919703,2025-10-17 12h29.43.791669 +0200,
44,0,44,,,,,,space,2.005989100000079,None,None,3,None,1.1207407000001695,0.19190139999955136,0,0,0,0,,,,,1,0,1,0,,,,,,,,44,0,44,0,814.1406380000008,,,,,,,,,,,,,,,,,,,,,,,,,,,,,,,,,,,,,,,,,,,,,,,,,,,,,,,,,Zeichnung,2.255,814.1253364000004,814.1258495000002,814.1259554000007,814.1406380000008,816.4071408,816.3914341,816.3956176000002,816.4071408,816.4071408,816.4071408,816.4071408,818.3915145000001,3,None,818.4069589000001,818.4069589000001,818.4069589000001,818.4069589000001,1.1207407000001695,0.19190139999955136,,,,,,,,,,,,,,,,,,6113,1,2025-10-17_12h29.34.696,sm,2024.2.4,59.95078040919703,2025-10-17 12h29.43.791669 +0200,
45,0,45,,,,,,space,2.005989100000079,None,None,3,None,0.8261216000000786,0.19342989999950078,0,0,0,0,,,,,1,0,1,0,,,,,,,,45,0,45,0,818.4069589000001,,,,,,,,,,,,,,,,,,,,,,,,,,,,,,,,,,,,,,,,,,,,,,,,,,,,,,,,,Diamant,3.982,818.3920101000003,818.3925259000007,818.3926323000005,818.4069589000001,822.3897574000002,822.3745269000001,822.3782779000003,822.3897574000002,822.3897574000002,822.3897574000002,822.3897574000002,824.3744732000005,3,None,824.3900849000001,824.3900849000001,824.3900849000001,824.3900849000001,0.8261216000000786,0.19342989999950078,,,,,,,,,,,,,,,,,,6113,1,2025-10-17_12h29.34.696,sm,2024.2.4,59.95078040919703,2025-10-17 12h29.43.791669 +0200,
46,0,46,,,,,,space,2.005989100000079,None,None,3,None,0.7661805000007007,0.19032179999976506,0,0,0,0,,,,,1,0,1,0,,,,,,,,46,0,46,0,824.3900849000001,,,,,,,,,,,,,,,,,,,,,,,,,,,,,,,,,,,,,,,,,,,,,,,,,,,,,,,,,Ball,4.2097,824.3749801000004,824.3754960000006,824.3756001000002,824.3900849000001,828.6063333000002,828.5908614,828.5946093000002,828.6063333000002,828.6063333000002,828.6063333000002,828.6063333000002,830.5907511000005,3,None,830.6063466000005,830.6063466000005,830.6063466000005,830.6063466000005,0.7661805000007007,0.19032179999976506,,,,,,,,,,,,,,,,,,6113,1,2025-10-17_12h29.34.696,sm,2024.2.4,59.95078040919703,2025-10-17 12h29.43.791669 +0200,
47,0,47,,,,,,space,2.005989100000079,None,None,3,None,0.8005548999999519,0.22262020000016491,0,0,0,0,,,,,1,0,1,0,,,,,,,,47,0,47,0,830.6063466000005,,,,,,,,,,,,,,,,,,,,,,,,,,,,,,,,,,,,,,,,,,,,,,,,,,,,,,,,,Nebel,2.6711,830.5912536000005,830.5917943000004,830.5919014000001,830.6063466000005,833.2892114000006,833.2737805000006,833.2773995000007,833.2892114000006,833.2892114000006,833.2892114000006,833.2892114000006,835.2738457000005,3,None,835.2892258000002,835.2892258000002,835.2892258000002,835.2892258000002,0.8005548999999519,0.22262020000016491,,,,,,,,,,,,,,,,,,6113,1,2025-10-17_12h29.34.696,sm,2024.2.4,59.95078040919703,2025-10-17 12h29.43.791669 +0200,
48,0,48,,,,,,space,2.005989100000079,None,None,2,None,0.806488299999728,0.14958720000049652,0,0,0,0,,,,,1,0,1,0,,,,,,,,48,0,48,0,835.2892258000002,,,,,,,,,,,,,,,,,,,,,,,,,,,,,,,,,,,,,,,,,,,,,,,,,,,,,,,,,Fisch,2.7971,835.2743497000001,835.2748578000001,835.2749617,835.2892258000002,838.0889999000001,838.0733690000006,838.0772659000004,838.0889999000001,838.0889999000001,838.0889999000001,838.0889999000001,840.0734752000008,2,None,840.0888567000002,840.0888567000002,840.0888567000002,840.0888567000002,0.806488299999728,0.14958720000049652,,,,,,,,,,,,,,,,,,6113,1,2025-10-17_12h29.34.696,sm,2024.2.4,59.95078040919703,2025-10-17 12h29.43.791669 +0200,
49,0,49,,,,,,space,2.005989100000079,None,None,3,None,1.323577899999691,0.15793500000017957,0,0,0,0,,,,,1,0,1,0,,,,,,,,49,0,49,0,840.0888567000002,,,,,,,,,,,,,,,,,,,,,,,,,,,,,,,,,,,,,,,,,,,,,,,,,,,,,,,,,Tanne,2.1064,840.073942,840.0744379000007,840.0745369000006,840.0888567000002,842.2055111,842.1899885000003,842.1940399000005,842.2055111,842.2055111,842.2055111,842.2055111,844.1898356000002,3,None,844.2054195999999,844.2054195999999,844.2054195999999,844.2054195999999,1.323577899999691,0.15793500000017957,,,,,,,,,,,,,,,,,,6113,1,2025-10-17_12h29.34.696,sm,2024.2.4,59.95078040919703,2025-10-17 12h29.43.791669 +0200,
50,0,50,,,,,,space,2.005989100000079,None,None,3,None,1.0885047000001578,0.23284160000002885,0,0,0,0,,,,,1,0,1,0,,,,,,,,50,0,50,0,844.2054195999999,,,,,,,,,,,,,,,,,,,,,,,,,,,,,,,,,,,,,,,,,,,,,,,,,,,,,,,,,Wanne,2.5548,844.1902831000007,844.1907669000002,844.1908722000007,844.2054195999999,846.7718356000005,846.7562951,846.7611860000006,846.7718356000005,846.7718356000005,846.7718356000005,846.7718356000005,848.7559939000002,3,None,848.7719133999999,848.7719133999999,848.7719133999999,848.7719133999999,1.0885047000001578,0.23284160000002885,,,,,,,,,,,,,,,,,,6113,1,2025-10-17_12h29.34.696,sm,2024.2.4,59.95078040919703,2025-10-17 12h29.43.791669 +0200,
51,0,51,,,,,,space,2.005989100000079,None,None,3,None,1.8445041999993919,None,0,0,0,0,,,,,1,0,1,0,,,,,,,,51,0,51,0,848.7719133999999,,,,,,,,,,,,,,,,,,,,,,,,,,,,,,,,,,,,,,,,,,,,,,,,,,,,,,,,,Knie,2.8411,848.7564387000002,848.7569648000008,848.7570615000004,848.7719133999999,851.6215712000003,851.6060590000006,851.6093391000004,851.6215712000003,851.6215712000003,851.6215712000003,851.6215712000003,853.6058694000003,3,None,853.6216695000003,853.6216695000003,853.6216695000003,853.6216695000003,1.8445041999993919,None,,,,,,,,,,,,,,,,,,6113,1,2025-10-17_12h29.34.696,sm,2024.2.4,59.95078040919703,2025-10-17 12h29.43.791669 +0200,
52,0,52,,,,,,space,2.005989100000079,None,None,2,None,1.3895025999991049,0.1275113000001511,0,0,0,0,,,,,1,0,1,0,,,,,,,,52,0,52,0,853.6216695000003,,,,,,,,,,,,,,,,,,,,,,,,,,,,,,,,,,,,,,,,,,,,,,,,,,,,,,,,,Rose,4.4167,853.6063417000005,853.6068658000004,853.606965,853.6216695000003,858.0376474000004,858.0223697000001,858.0256025000008,858.0376474000004,858.0376474000004,858.0376474000004,858.0376474000004,860.0226812000001,2,None,860.0377483000002,860.0377483000002,860.0377483000002,860.0377483000002,1.3895025999991049,0.1275113000001511,,,,,,,,,,,,,,,,,,6113,1,2025-10-17_12h29.34.696,sm,2024.2.4,59.95078040919703,2025-10-17 12h29.43.791669 +0200,
53,0,53,,,,,,space,2.005989100000079,None,None,3,None,0.8511665000005451,0.19287079999958223,0,0,0,0,,,,,1,0,1,0,,,,,,,,53,0,53,0,860.0377483000002,,,,,,,,,,,,,,,,,,,,,,,,,,,,,,,,,,,,,,,,,,,,,,,,,,,,,,,,,Kaffee,5.3738,860.0231886000001,860.0237047999999,860.0238095000004,860.0377483000002,865.4207114000001,865.4053598,865.4095035,865.4207114000001,865.4207114000001,865.4207114000001,865.4207114000001,867.4051534,3,None,867.4212121999999,867.4212121999999,867.4212121999999,867.4212121999999,0.8511665000005451,0.19287079999958223,,,,,,,,,,,,,,,,,,6113,1,2025-10-17_12h29.34.696,sm,2024.2.4,59.95078040919703,2025-10-17 12h29.43.791669 +0200,
54,0,54,,,,,,space,2.005989100000079,None,None,3,None,1.5174944000000323,0.20499279999967257,0,0,0,0,,,,,1,0,1,0,,,,,,,,54,0,54,0,867.4212121999999,,,,,,,,,,,,,,,,,,,,,,,,,,,,,,,,,,,,,,,,,,,,,,,,,,,,,,,,,Gras,4.0479,867.4056527000002,867.4062363000003,867.4063475000003,867.4212121999999,871.4704062999999,871.4550202,871.4588524000001,871.4704062999999,871.4704062999999,871.4704062999999,871.4704062999999,873.4549141000007,3,None,873.4704826000007,873.4704826000007,873.4704826000007,873.4704826000007,1.5174944000000323,0.20499279999967257,,,,,,,,,,,,,,,,,,6113,1,2025-10-17_12h29.34.696,sm,2024.2.4,59.95078040919703,2025-10-17 12h29.43.791669 +0200,
55,0,55,,,,,,space,2.005989100000079,None,None,3,None,1.7119619000004604,0.18786459999955696,0,0,0,0,,,,,1,0,1,0,,,,,,,,55,0,55,0,873.4704826000007,,,,,,,,,,,,,,,,,,,,,,,,,,,,,,,,,,,,,,,,,,,,,,,,,,,,,,,,,Zeigen,4.7992,873.4554155000005,873.4561552000005,873.4562622000003,873.4704826000007,878.2699734000007,878.2545491999999,878.2581952,878.2699734000007,878.2699734000007,878.2699734000007,878.2699734000007,880.254672,3,None,880.2701227000007,880.2701227000007,880.2701227000007,880.2701227000007,1.7119619000004604,0.18786459999955696,,,,,,,,,,,,,,,,,,6113,1,2025-10-17_12h29.34.696,sm,2024.2.4,59.95078040919703,2025-10-17 12h29.43.791669 +0200,
56,0,56,,,,,,space,2.005989100000079,None,None,3,None,1.136497700000291,0.24985749999996187,0,0,0,0,,,,,1,0,1,0,,,,,,,,56,0,56,0,880.2701227000007,,,,,,,,,,,,,,,,,,,,,,,,,,,,,,,,,,,,,,,,,,,,,,,,,,,,,,,,,Fiktion,2.9098,880.2551723000006,880.2556836000003,880.2557899000003,880.2701227000007,883.1862937000005,883.1707475000003,883.1745807000007,883.1862937000005,883.1862937000005,883.1862937000005,883.1862937000005,885.1708891000007,3,None,885.1864822000007,885.1864822000007,885.1864822000007,885.1864822000007,1.136497700000291,0.24985749999996187,,,,,,,,,,,,,,,,,,6113,1,2025-10-17_12h29.34.696,sm,2024.2.4,59.95078040919703,2025-10-17 12h29.43.791669 +0200,
57,0,57,,,,,,space,2.005989100000079,None,None,2,None,1.6091925000000629,0.18356469999980618,0,0,0,0,,,,,1,0,1,0,,,,,,,,57,0,57,0,885.1864822000007,,,,,,,,,,,,,,,,,,,,,,,,,,,,,,,,,,,,,,,,,,,,,,,,,,,,,,,,,Bildung,3.2652,885.1713862000006,885.1719123000003,885.1720191000004,885.1864822000007,888.4530052,888.4372739,888.4423753000001,888.4530052,888.4530052,888.4530052,888.4530052,890.4370900000004,2,None,890.4528428000003,890.4528428000003,890.4528428000003,890.4528428000003,1.6091925000000629,0.18356469999980618,,,,,,,,,,,,,,,,,,6113,1,2025-10-17_12h29.34.696,sm,2024.2.4,59.95078040919703,2025-10-17 12h29.43.791669 +0200,
58,0,58,,,,,,space,2.005989100000079,None,None,None,None,,,0,0,0,0,,,,,1,0,1,0,,,,,,,,58,0,58,0,890.4528428000003,,,,,,,,,,,,,,,,,,,,,,,,,,,,,,,,,,,,,,,,,,,,,,,,,,,,,,,,,Büro,2.0817,890.4375534999999,890.4380329000005,890.4381308000002,890.4528428000003,892.5358423000007,892.5201888000001,892.5233845000002,892.5358423000007,892.5358423000007,892.5358423000007,892.5358423000007,894.5205043000005,None,None,894.5357479000004,894.5357479000004,894.5357479000004,894.5357479000004,,,,,,,,,,,,,,,,,,,,6113,1,2025-10-17_12h29.34.696,sm,2024.2.4,59.95078040919703,2025-10-17 12h29.43.791669 +0200,
59,0,59,,,,,,space,2.005989100000079,None,None,None,None,,,0,0,0,0,,,,,1,0,1,0,,,,,,,,59,0,59,0,894.5357479000004,,,,,,,,,,,,,,,,,,,,,,,,,,,,,,,,,,,,,,,,,,,,,,,,,,,,,,,,,Service,4.8846,894.5209743000005,894.5214854000005,894.5215912000003,894.5357479000004,899.4355189000007,899.4200021000006,899.424223,899.4355189000007,899.4355189000007,899.4355189000007,899.4355189000007,901.4197833000007,None,None,901.435461,901.435461,901.435461,901.435461,,,,,,,,,,,,,,,,,,,,6113,1,2025-10-17_12h29.34.696,sm,2024.2.4,59.95078040919703,2025-10-17 12h29.43.791669 +0200,
60,0,60,,,,,,space,2.005989100000079,None,None,2,None,1.6954475000002276,0.20744099999956234,0,0,0,0,,,,,1,0,1,0,,,,,,,,60,0,60,0,901.435461,,,,,,,,,,,,,,,,,,,,,,,,,,,,,,,,,,,,,,,,,,,,,,,,,,,,,,,,,Wüste,3.7507,901.4202459000007,901.4207319000006,901.4208379000002,901.435461,905.2017775000004,905.1864072000008,905.1901991000004,905.2017775000004,905.2017775000004,905.2017775000004,905.2017775000004,907.1865246000007,2,None,907.2017180000003,907.2017180000003,907.2017180000003,907.2017180000003,1.6954475000002276,0.20744099999956234,,,,,,,,,,,,,,,,,,6113,1,2025-10-17_12h29.34.696,sm,2024.2.4,59.95078040919703,2025-10-17 12h29.43.791669 +0200,
61,0,61,,,,,,space,2.005989100000079,None,None,3,None,1.7359567000003153,0.16273240000009537,0,0,0,0,,,,,1,0,1,0,,,,,,,,61,0,61,0,907.2017180000003,,,,,,,,,,,,,,,,,,,,,,,,,,,,,,,,,,,,,,,,,,,,,,,,,,,,,,,,,Tradition,3.3692,907.1870020000006,907.1875115000003,907.1876185000001,907.2017180000003,910.5849337,910.5692482000004,910.5734760000005,910.5849337,910.5849337,910.5849337,910.5849337,912.5693206000005,3,None,912.5850630000004,912.5850630000004,912.5850630000004,912.5850630000004,1.7359567000003153,0.16273240000009537,,,,,,,,,,,,,,,,,,6113,1,2025-10-17_12h29.34.696,sm,2024.2.4,59.95078040919703,2025-10-17 12h29.43.791669 +0200,
62,0,62,,,,,,space,2.005989100000079,None,None,2,None,0.8341860999998971,0.1536392000007254,0,0,0,0,,,,,1,0,1,0,,,,,,,,62,0,62,0,912.5850630000004,,,,,,,,,,,,,,,,,,,,,,,,,,,,,,,,,,,,,,,,,,,,,,,,,,,,,,,,,Besucher,2.1316,912.5698216999999,912.5703262000006,912.5704319000006,912.5850630000004,914.7179810000007,914.7025189000005,914.7068094000006,914.7179810000007,914.7179810000007,914.7179810000007,914.7179810000007,916.7022664000006,2,None,916.7179365000002,916.7179365000002,916.7179365000002,916.7179365000002,0.8341860999998971,0.1536392000007254,,,,,,,,,,,,,,,,,,6113,1,2025-10-17_12h29.34.696,sm,2024.2.4,59.95078040919703,2025-10-17 12h29.43.791669 +0200,
63,0,63,,,,,,space,2.005989100000079,None,None,3,None,0.8217336999996405,0.14917140000034124,0,0,0,0,,,,,1,0,1,0,,,,,,,,63,0,63,0,916.7179365000002,,,,,,,,,,,,,,,,,,,,,,,,,,,,,,,,,,,,,,,,,,,,,,,,,,,,,,,,,Wein,2.882,916.7027699,916.7032798,916.7033852000004,916.7179365000002,919.6010409,919.5853663000007,919.5887045,919.6010409,919.6010409,919.6010409,919.6010409,921.5852927000005,3,None,921.6009845000008,921.6009845000008,921.6009845000008,921.6009845000008,0.8217336999996405,0.14917140000034124,,,,,,,,,,,,,,,,,,6113,1,2025-10-17_12h29.34.696,sm,2024.2.4,59.95078040919703,2025-10-17 12h29.43.791669 +0200,
64,0,64,,,,,,space,2.005989100000079,None,None,2,None,1.18762229999993,0.19628760000068723,0,0,0,0,,,,,1,0,1,0,,,,,,,,64,0,64,0,921.6009845000008,,,,,,,,,,,,,,,,,,,,,,,,,,,,,,,,,,,,,,,,,,,,,,,,,,,,,,,,,Atem,2.4151,921.5857945000007,921.5864713999999,921.5865769000002,921.6009845000008,924.0171627,924.0016760000008,924.0058939,924.0171627,924.0171627,924.0171627,924.0171627,926.0016333000003,2,None,926.0173342000007,926.0173342000007,926.0173342000007,926.0173342000007,1.18762229999993,0.19628760000068723,,,,,,,,,,,,,,,,,,6113,1,2025-10-17_12h29.34.696,sm,2024.2.4,59.95078040919703,2025-10-17 12h29.43.791669 +0200,
65,0,65,,,,,,space,2.005989100000079,None,None,None,None,,,0,0,0,0,,,,,1,0,1,0,,,,,,,,65,0,65,0,926.0173342000007,,,,,,,,,,,,,,,,,,,,,,,,,,,,,,,,,,,,,,,,,,,,,,,,,,,,,,,,,Beine,5.5838,926.0021426000003,926.0026483000001,926.0027577999999,926.0173342000007,931.6004299000006,931.5846853000003,931.5888659000002,931.6004299000006,931.6004299000006,931.6004299000006,931.6004299000006,933.5846768000001,None,None,933.6004660000008,933.6004660000008,933.6004660000008,933.6004660000008,,,,,,,,,,,,,,,,,,,,6113,1,2025-10-17_12h29.34.696,sm,2024.2.4,59.95078040919703,2025-10-17 12h29.43.791669 +0200,
