thisN,thisTrialN,thisRepN,Cue,Target,Mediator1,Mediator2,iti,scanner_ready_press.keys,scanner_ready_press.rt,scanner_ready_press.duration,skip_trigger.keys,living_nonliving.keys,living_nonliving.rt,living_nonliving.duration,end_mapping.keys,blocks.thisRepN,blocks.thisTrialN,blocks.thisN,blocks.thisIndex,load_and_shuffle.thisRepN,load_and_shuffle.thisTrialN,load_and_shuffle.thisN,load_and_shuffle.thisIndex,runs.thisRepN,runs.thisTrialN,runs.thisN,runs.thisIndex,iti_loading_loop.thisRepN,iti_loading_loop.thisTrialN,iti_loading_loop.thisN,iti_loading_loop.thisIndex,semantic_mapping_run.thisRepN,semantic_mapping_run.thisTrialN,semantic_mapping_run.thisN,semantic_mapping_run.thisIndex,thisRow.t,notes,welcome.started,welcome_text.started,key_resp__welcome.started,welcome.stopped,key_resp__welcome.keys,key_resp__welcome.rt,key_resp__welcome.duration,scout.started,scout_text.started,key_resp.started,scout.stopped,key_resp.keys,key_resp.rt,key_resp.duration,instructions_semantic_mapping1.started,sm_instructions1_text.started,sm_instructions1_key.started,instructions_semantic_mapping1.stopped,sm_instructions1_key.keys,sm_instructions1_key.rt,sm_instructions1_key.duration,instructions_semantic_mapping2.started,sm_instructions2_text.started,sm_instructions2_key.started,instructions_semantic_mapping2.stopped,sm_instructions2_key.keys,sm_instructions2_key.rt,sm_instructions2_key.duration,reset_run.started,reset_run.stopped,shuffle_items.started,shuffle_items.stopped,set_up_runs.started,set_up_runs.stopped,load_iti.started,load_iti.stopped,prep_scanner.started,scanner_ready_press.started,ready_set_text.started,prep_scanner.stopped,runs.scanner_ready_press.keys,runs.scanner_ready_press.rt,runs.scanner_ready_press.duration,wait_for_trigger.started,starting_soon.started,skip_trigger.started,wait_for_trigger.stopped,runs.skip_trigger.keys,blank.started,begin_end_run_cross.started,sound_1.started,sound_1.stopped,sound_2.started,sound_2.stopped,begin_end_run_cross.stopped,blank.stopped,CurrentItem,CurrentITI,set_up_trial.started,set_up_trial.stopped,sm_iti.started,iti_cross.started,iti_cross.stopped,sm_iti.stopped,item.started,living_nonliving.started,end_mapping.started,living_nonliving_text.started,semantic_map_item.started,living_nonliving.stopped,end_mapping.stopped,living_nonliving_text.stopped,semantic_map_item.stopped,item.stopped,semantic_mapping_run.living_nonliving.keys,semantic_mapping_run.living_nonliving.rt,semantic_mapping_run.living_nonliving.duration,semantic_mapping_run.end_mapping.keys,fieldmap.started,fieldmap.stopped,runs.fm_key.keys,task_break.started,feeback_text.started,task_break_text.started,task_break_resp.started,feeback_text.stopped,task_break.stopped,runs.task_break_resp.keys,runs.task_break_resp.rt,runs.task_break_resp.duration,fm_text.started,fm_key.started,runs.fm_key.rt,runs.fm_key.duration,thanks.started,thanks_text.started,thanks_text.stopped,thanks.stopped,PID,MRI,date,expName,psychopyVersion,frameRate,expStart,
,,,,,,,,,,,,,,,,,,,,,,,,,,,,,,,,,,,,,,0.0035710000001927256,0.008990100000119128,0.008990100000119128,441.74242530000083,space,441.70903069999986,None,,,,,,,,,,,,,,,,,,,,,,,,,,,,,,,,,,,,,,,,,,,,,,,,,,,,,,,,,,,,,,,,,,,,,,,,,,,,,,,,,,,,,,,,,,,,9210,1,2025-07-05_13h22.03.154,sm,2024.2.4,59.98141775679449,2025-07-05 13h22.43.478004 +0200,
,,,,,,,,,,,,,,,,,,,,,,,,,,,,,,,,,,,,,,,,,,,,,441.7425763000001,441.75150640000084,441.75150640000084,549.160398,space,107.40598080000018,None,,,,,,,,,,,,,,,,,,,,,,,,,,,,,,,,,,,,,,,,,,,,,,,,,,,,,,,,,,,,,,,,,,,,,,,,,,,,,,,,,,,,,9210,1,2025-07-05_13h22.03.154,sm,2024.2.4,59.98141775679449,2025-07-05 13h22.43.478004 +0200,
,,,,,,,,,,,,,,,,,,,,,,,,,,,,,,,,,,,,,,,,,,,,,,,,,,,,549.1605331000001,549.1754428000004,549.1754428000004,562.8263561000003,3,13.640130800000406,None,,,,,,,,,,,,,,,,,,,,,,,,,,,,,,,,,,,,,,,,,,,,,,,,,,,,,,,,,,,,,,,,,,,,,,,,,,,,,,9210,1,2025-07-05_13h22.03.154,sm,2024.2.4,59.98141775679449,2025-07-05 13h22.43.478004 +0200,
,,,,,,,,,,,,,,,,,,,,,,,,,,,,,,,,,,,,,,,,,,,,,,,,,,,,,,,,,,,562.8264766000002,562.8412799000007,562.8412799000007,570.9427420000002,3,8.084308999999848,None,,,,,,,,,,,,,,,,,,,,,,,,,,,,,,,,,,,,,,,,,,,,,,,,,,,,,,,,,,,,,,,,,,,,,,,9210,1,2025-07-05_13h22.03.154,sm,2024.2.4,59.98141775679449,2025-07-05 13h22.43.478004 +0200,
0,0,0,Fakt,Wissen,Wahrheit,Fiktion,2.8906,space,2.547952400000213,None,None,3,1.667968299999302,0.2586897000001045,None,0,0,0,0,0,79,79,0,0,0,0,0,0,79,79,55,0,0,0,0,631.3556745000005,,,,,,,,,,,,,,,,,,,,,,,,,,,,,,570.9437633000007,570.9445635000002,571.0134489000002,571.0136861000001,571.0181236000008,571.0184122000001,571.0473750000001,571.0475645000006,571.0542461000005,571.0576343000002,571.0576343000002,573.6107616000008,space,2.547952400000213,None,573.6109121000009,573.6256676000003,573.6256676000003,619.3395688,None,619.3484432000005,619.3560791,619.354785466667,620.5579127000001,629.3394001666668,630.3478727000002,631.3556745000005,631.3399926000002,Soße,2.8906,631.3413825000007,631.3420513000001,631.3454508000004,631.3556745000005,634.2553240000007,634.2400027000003,634.2434221000003,634.2553240000007,634.2553240000007,634.2553240000007,634.2553240000007,636.255967,636.255967,636.255967,636.255967,636.2400539,3,1.667968299999302,0.2586897000001045,None,,,,,,,,,,,,,,,,,,,,,9210,1,2025-07-05_13h22.03.154,sm,2024.2.4,59.98141775679449,2025-07-05 13h22.43.478004 +0200,
1,0,1,,,,,,space,2.547952400000213,None,None,3,1.6556252000000313,0.24140299999999115,None,0,0,0,0,,,,,0,0,0,0,,,,,1,0,1,0,636.255967,,,,,,,,,,,,,,,,,,,,,,,,,,,,,,,,,,,,,,,,,,,,,,,,,,,,,,,,,,Schmerz,2.7162,636.2405893000005,636.2411057000008,636.2412146000006,636.255967,638.9720356000007,638.9562037000005,638.9598609000004,638.9720356000007,638.9720356000007,638.9720356000007,638.9720356000007,640.9718887000008,640.9718887000008,640.9718887000008,640.9718887000008,640.9566386000006,3,1.6556252000000313,0.24140299999999115,None,,,,,,,,,,,,,,,,,,,,,9210,1,2025-07-05_13h22.03.154,sm,2024.2.4,59.98141775679449,2025-07-05 13h22.43.478004 +0200,
2,0,2,,,,,,space,2.547952400000213,None,None,3,0.7889038000002984,0.22693749999962165,None,0,0,0,0,,,,,0,0,0,0,,,,,2,0,2,0,640.9718887000008,,,,,,,,,,,,,,,,,,,,,,,,,,,,,,,,,,,,,,,,,,,,,,,,,,,,,,,,,,Knöchel,3.7587,640.9571582000008,640.9577094000006,640.9578178000002,640.9718887000008,644.7380652000002,644.7228505000003,644.7300823000005,644.7380652000002,644.7380652000002,644.7380652000002,644.7380652000002,646.7385712000005,646.7385712000005,646.7385712000005,646.7385712000005,646.7229097000009,3,0.7889038000002984,0.22693749999962165,None,,,,,,,,,,,,,,,,,,,,,9210,1,2025-07-05_13h22.03.154,sm,2024.2.4,59.98141775679449,2025-07-05 13h22.43.478004 +0200,
3,0,3,,,,,,space,2.547952400000213,None,None,3,0.8164225999998962,0.24834090000058495,None,0,0,0,0,,,,,0,0,0,0,,,,,3,0,3,0,646.7385712000005,,,,,,,,,,,,,,,,,,,,,,,,,,,,,,,,,,,,,,,,,,,,,,,,,,,,,,,,,,Album,2.1335,646.7234326000007,646.7240747000005,646.7241827000007,646.7385712000005,648.8718743000009,648.8556758000004,648.8596455000006,648.8718743000009,648.8718743000009,648.8718743000009,648.8718743000009,650.8713657000008,650.8713657000008,650.8713657000008,650.8713657000008,650.855751,3,0.8164225999998962,0.24834090000058495,None,,,,,,,,,,,,,,,,,,,,,9210,1,2025-07-05_13h22.03.154,sm,2024.2.4,59.98141775679449,2025-07-05 13h22.43.478004 +0200,
4,0,4,,,,,,space,2.547952400000213,None,None,3,0.7346800000004805,0.24638450000020384,None,0,0,0,0,,,,,0,0,0,0,,,,,4,0,4,0,650.8713657000008,,,,,,,,,,,,,,,,,,,,,,,,,,,,,,,,,,,,,,,,,,,,,,,,,,,,,,,,,,Brille,2.0819,650.8562749000002,650.8567930000008,650.8569019000006,650.8713657000008,652.9542977000001,652.9388054000001,652.9423849000004,652.9542977000001,652.9542977000001,652.9542977000001,652.9542977000001,654.9545397000002,654.9545397000002,654.9545397000002,654.9545397000002,654.9389583000002,3,0.7346800000004805,0.24638450000020384,None,,,,,,,,,,,,,,,,,,,,,9210,1,2025-07-05_13h22.03.154,sm,2024.2.4,59.98141775679449,2025-07-05 13h22.43.478004 +0200,
5,0,5,,,,,,space,2.547952400000213,None,None,3,0.7305605999999898,0.22340110000004643,None,0,0,0,0,,,,,0,0,0,0,,,,,5,0,5,0,654.9545397000002,,,,,,,,,,,,,,,,,,,,,,,,,,,,,,,,,,,,,,,,,,,,,,,,,,,,,,,,,,Kino,2.8995,654.9394919000006,654.9400049000005,654.9401130000006,654.9545397000002,657.8541492000004,657.8386518000007,657.8423015000008,657.8541492000004,657.8541492000004,657.8541492000004,657.8541492000004,659.8544419,659.8544419,659.8544419,659.8544419,659.8387504000002,3,0.7305605999999898,0.22340110000004643,None,,,,,,,,,,,,,,,,,,,,,9210,1,2025-07-05_13h22.03.154,sm,2024.2.4,59.98141775679449,2025-07-05 13h22.43.478004 +0200,
6,0,6,,,,,,space,2.547952400000213,None,None,3,0.86001430000033,0.2503305000000182,None,0,0,0,0,,,,,0,0,0,0,,,,,6,0,6,0,659.8544419,,,,,,,,,,,,,,,,,,,,,,,,,,,,,,,,,,,,,,,,,,,,,,,,,,,,,,,,,,Zimmer,2.3349,659.8392870000007,659.8398066,659.8399186000006,659.8544419,662.2039911000002,662.1882881000001,662.1941063000004,662.2039911000002,662.2039911000002,662.2039911000002,662.2039911000002,664.2042350000002,664.2042350000002,664.2042350000002,664.2042350000002,664.1884963000002,3,0.86001430000033,0.2503305000000182,None,,,,,,,,,,,,,,,,,,,,,9210,1,2025-07-05_13h22.03.154,sm,2024.2.4,59.98141775679449,2025-07-05 13h22.43.478004 +0200,
7,0,7,,,,,,space,2.547952400000213,None,None,3,1.0912678000004234,0.25930949999929,None,0,0,0,0,,,,,0,0,0,0,,,,,7,0,7,0,664.2042350000002,,,,,,,,,,,,,,,,,,,,,,,,,,,,,,,,,,,,,,,,,,,,,,,,,,,,,,,,,,Datei,3.0376,664.1890240000002,664.1895389000001,664.1896468000004,664.2042350000002,667.2537291000008,667.2380603000001,667.2418660000003,667.2537291000008,667.2537291000008,667.2537291000008,667.2537291000008,669.2537877000004,669.2537877000004,669.2537877000004,669.2537877000004,669.2382124000005,3,1.0912678000004234,0.25930949999929,None,,,,,,,,,,,,,,,,,,,,,9210,1,2025-07-05_13h22.03.154,sm,2024.2.4,59.98141775679449,2025-07-05 13h22.43.478004 +0200,
8,0,8,,,,,,space,2.547952400000213,None,None,3,0.7820990000000165,0.25132490000032703,None,0,0,0,0,,,,,0,0,0,0,,,,,8,0,8,0,669.2537877000004,,,,,,,,,,,,,,,,,,,,,,,,,,,,,,,,,,,,,,,,,,,,,,,,,,,,,,,,,,Teller,2.0732,669.2387364000006,669.2393933000003,669.2395005000008,669.2537877000004,671.3367746000004,671.3213532,671.3261268000006,671.3367746000004,671.3367746000004,671.3367746000004,671.3367746000004,673.3370133000008,673.3370133000008,673.3370133000008,673.3370133000008,673.3214065000002,3,0.7820990000000165,0.25132490000032703,None,,,,,,,,,,,,,,,,,,,,,9210,1,2025-07-05_13h22.03.154,sm,2024.2.4,59.98141775679449,2025-07-05 13h22.43.478004 +0200,
9,0,9,,,,,,space,2.547952400000213,None,None,3,1.0280953000001318,0.25723569999991014,None,0,0,0,0,,,,,0,0,0,0,,,,,9,0,9,0,673.3370133000008,,,,,,,,,,,,,,,,,,,,,,,,,,,,,,,,,,,,,,,,,,,,,,,,,,,,,,,,,,Fernseher,4.5818,673.3218930000003,673.3226543000001,673.3227621000005,673.3370133000008,677.9198227000006,677.9042103000002,677.9108765000001,677.9198227000006,677.9198227000006,677.9198227000006,677.9198227000006,679.9200049000001,679.9200049000001,679.9200049000001,679.9200049000001,679.9038473,3,1.0280953000001318,0.25723569999991014,None,,,,,,,,,,,,,,,,,,,,,9210,1,2025-07-05_13h22.03.154,sm,2024.2.4,59.98141775679449,2025-07-05 13h22.43.478004 +0200,
10,0,10,,,,,,space,2.547952400000213,None,None,3,1.4477273000002242,0.26561930000025313,None,0,0,0,0,,,,,0,0,0,0,,,,,10,0,10,0,679.9200049000001,,,,,,,,,,,,,,,,,,,,,,,,,,,,,,,,,,,,,,,,,,,,,,,,,,,,,,,,,,Nebel,2.2487,679.9043141000002,679.9049534000005,679.9050493000004,679.9200049000001,682.1694030000008,682.1537277000007,682.1574415000005,682.1694030000008,682.1694030000008,682.1694030000008,682.1694030000008,684.1695591000007,684.1695591000007,684.1695591000007,684.1695591000007,684.1538595000002,3,1.4477273000002242,0.26561930000025313,None,,,,,,,,,,,,,,,,,,,,,9210,1,2025-07-05_13h22.03.154,sm,2024.2.4,59.98141775679449,2025-07-05 13h22.43.478004 +0200,
11,0,11,,,,,,space,2.547952400000213,None,None,None,,,None,0,0,0,0,,,,,0,0,0,0,,,,,11,0,11,0,684.1695591000007,,,,,,,,,,,,,,,,,,,,,,,,,,,,,,,,,,,,,,,,,,,,,,,,,,,,,,,,,,Spaß,3.6403,684.1543468,684.1548404000005,684.1549412000004,684.1695591000007,687.8192769000007,687.8034697000003,687.8069063000003,687.8192769000007,687.8192769000007,687.8192769000007,687.8192769000007,689.8192254000005,689.8192254000005,689.8192254000005,689.8192254000005,689.8038423000007,None,,,None,,,,,,,,,,,,,,,,,,,,,9210,1,2025-07-05_13h22.03.154,sm,2024.2.4,59.98141775679449,2025-07-05 13h22.43.478004 +0200,
12,0,12,,,,,,space,2.547952400000213,None,None,2,0.9156471999995119,0.2683186000003843,None,0,0,0,0,,,,,0,0,0,0,,,,,12,0,12,0,689.8192254000005,,,,,,,,,,,,,,,,,,,,,,,,,,,,,,,,,,,,,,,,,,,,,,,,,,,,,,,,,,Wurm,2.6612,689.8043021000003,689.8048210000006,689.8049223000007,689.8192254000005,692.4856048000001,692.4701477000008,692.4737782000002,692.4856048000001,692.4856048000001,692.4856048000001,692.4856048000001,694.4858187,694.4858187,694.4858187,694.4858187,694.4697592000002,2,0.9156471999995119,0.2683186000003843,None,,,,,,,,,,,,,,,,,,,,,9210,1,2025-07-05_13h22.03.154,sm,2024.2.4,59.98141775679449,2025-07-05 13h22.43.478004 +0200,
13,0,13,,,,,,space,2.547952400000213,None,None,2,0.9550177999999505,0.23358860000007553,None,0,0,0,0,,,,,0,0,0,0,,,,,13,0,13,0,694.4858187,,,,,,,,,,,,,,,,,,,,,,,,,,,,,,,,,,,,,,,,,,,,,,,,,,,,,,,,,,Familie,3.3206,694.4702227000007,694.4707136000006,694.4708128000002,694.4858187,697.8185694000003,697.8032880000001,697.8067362000002,697.8185694000003,697.8185694000003,697.8185694000003,697.8185694000003,699.8185747000007,699.8185747000007,699.8185747000007,699.8185747000007,699.8028468000002,2,0.9550177999999505,0.23358860000007553,None,,,,,,,,,,,,,,,,,,,,,9210,1,2025-07-05_13h22.03.154,sm,2024.2.4,59.98141775679449,2025-07-05 13h22.43.478004 +0200,
14,0,14,,,,,,space,2.547952400000213,None,None,2,0.7113171000000875,0.31558050000057847,None,0,0,0,0,,,,,0,0,0,0,,,,,14,0,14,0,699.8185747000007,,,,,,,,,,,,,,,,,,,,,,,,,,,,,,,,,,,,,,,,,,,,,,,,,,,,,,,,,,Eule,2.7646,699.8033723000008,699.8038947000005,699.8039991000005,699.8185747000007,702.5849901000001,702.5693620000002,702.5726918,702.5849901000001,702.5849901000001,702.5849901000001,702.5849901000001,704.5850550000005,704.5850550000005,704.5850550000005,704.5850550000005,704.5695180000002,2,0.7113171000000875,0.31558050000057847,None,,,,,,,,,,,,,,,,,,,,,9210,1,2025-07-05_13h22.03.154,sm,2024.2.4,59.98141775679449,2025-07-05 13h22.43.478004 +0200,
15,0,15,,,,,,space,2.547952400000213,None,None,2,1.5813656999998784,0.2287546999996266,None,0,0,0,0,,,,,0,0,0,0,,,,,15,0,15,0,704.5850550000005,,,,,,,,,,,,,,,,,,,,,,,,,,,,,,,,,,,,,,,,,,,,,,,,,,,,,,,,,,Olympia,2.9004,704.5700312000008,704.5706970000001,704.5708098000005,704.5850550000005,707.4846021000003,707.4694721000005,707.4768087000002,707.4846021000003,707.4846021000003,707.4846021000003,707.4846021000003,709.4847143000006,709.4847143000006,709.4847143000006,709.4847143000006,709.4692861000003,2,1.5813656999998784,0.2287546999996266,None,,,,,,,,,,,,,,,,,,,,,9210,1,2025-07-05_13h22.03.154,sm,2024.2.4,59.98141775679449,2025-07-05 13h22.43.478004 +0200,
16,0,16,,,,,,space,2.547952400000213,None,None,2,0.7850478000000294,0.25967730000047595,None,0,0,0,0,,,,,0,0,0,0,,,,,16,0,16,0,709.4847143000006,,,,,,,,,,,,,,,,,,,,,,,,,,,,,,,,,,,,,,,,,,,,,,,,,,,,,,,,,,Löwe,2.7383,709.4698270000008,709.4704725000001,709.4706351000004,709.4847143000006,712.2344748000005,712.2190888000005,712.2228525,712.2344748000005,712.2344748000005,712.2344748000005,712.2344748000005,714.2346444000004,714.2346444000004,714.2346444000004,714.2346444000004,714.2189006000008,2,0.7850478000000294,0.25967730000047595,None,,,,,,,,,,,,,,,,,,,,,9210,1,2025-07-05_13h22.03.154,sm,2024.2.4,59.98141775679449,2025-07-05 13h22.43.478004 +0200,
17,0,17,,,,,,space,2.547952400000213,None,None,3,0.8548588000003292,0.2541870999993989,None,0,0,0,0,,,,,0,0,0,0,,,,,17,0,17,0,714.2346444000004,,,,,,,,,,,,,,,,,,,,,,,,,,,,,,,,,,,,,,,,,,,,,,,,,,,,,,,,,,Diamant,4.5641,714.2193579000004,714.2199901000004,714.2200870000006,714.2346444000004,718.8008345000007,718.7849540000007,718.7881992000002,718.8008345000007,718.8008345000007,718.8008345000007,718.8008345000007,720.8007660000003,720.8007660000003,720.8007660000003,720.8007660000003,720.7851081000008,3,0.8548588000003292,0.2541870999993989,None,,,,,,,,,,,,,,,,,,,,,9210,1,2025-07-05_13h22.03.154,sm,2024.2.4,59.98141775679449,2025-07-05 13h22.43.478004 +0200,
18,0,18,,,,,,space,2.547952400000213,None,None,3,1.3480681999999433,0.25436230000013893,None,0,0,0,0,,,,,0,0,0,0,,,,,18,0,18,0,720.8007660000003,,,,,,,,,,,,,,,,,,,,,,,,,,,,,,,,,,,,,,,,,,,,,,,,,,,,,,,,,,Zug,4.5859,720.7856251000003,720.7862792000005,720.7863854000007,720.8007660000003,725.4009953000004,725.3848063000005,725.3884574000003,725.4009953000004,725.4009953000004,725.4009953000004,725.4009953000004,727.4004857,727.4004857,727.4004857,727.4004857,727.3849437000008,3,1.3480681999999433,0.25436230000013893,None,,,,,,,,,,,,,,,,,,,,,9210,1,2025-07-05_13h22.03.154,sm,2024.2.4,59.98141775679449,2025-07-05 13h22.43.478004 +0200,
19,0,19,,,,,,space,2.547952400000213,None,None,2,1.2390013000003819,0.2208143999996537,None,0,0,0,0,,,,,0,0,0,0,,,,,19,0,19,0,727.4004857,,,,,,,,,,,,,,,,,,,,,,,,,,,,,,,,,,,,,,,,,,,,,,,,,,,,,,,,,,Rose,3.5116,727.3854626000002,727.3861148000005,727.3862203000008,727.4004857,730.9164805,730.9010912000003,730.9041399000007,730.9164805,730.9164805,730.9164805,730.9164805,732.9166568,732.9166568,732.9166568,732.9166568,732.9013369000004,2,1.2390013000003819,0.2208143999996537,None,,,,,,,,,,,,,,,,,,,,,9210,1,2025-07-05_13h22.03.154,sm,2024.2.4,59.98141775679449,2025-07-05 13h22.43.478004 +0200,
20,0,20,,,,,,space,2.547952400000213,None,None,3,1.3977242000000842,0.24939369999992778,None,0,0,0,0,,,,,0,0,0,0,,,,,20,0,20,0,732.9166568,,,,,,,,,,,,,,,,,,,,,,,,,,,,,,,,,,,,,,,,,,,,,,,,,,,,,,,,,,Rock,2.8777,732.9018594000008,732.9023704000001,732.9024856000005,732.9166568,735.7997836000004,735.7841854000008,735.7878420000006,735.7997836000004,735.7997836000004,735.7997836000004,735.7997836000004,737.8000508000005,737.8000508000005,737.8000508000005,737.8000508000005,737.7841055000008,3,1.3977242000000842,0.24939369999992778,None,,,,,,,,,,,,,,,,,,,,,9210,1,2025-07-05_13h22.03.154,sm,2024.2.4,59.98141775679449,2025-07-05 13h22.43.478004 +0200,
21,0,21,,,,,,space,2.547952400000213,None,None,2,1.5626829000002544,0.2263837999998941,None,0,0,0,0,,,,,0,0,0,0,,,,,21,0,21,0,737.8000508000005,,,,,,,,,,,,,,,,,,,,,,,,,,,,,,,,,,,,,,,,,,,,,,,,,,,,,,,,,,Angriff,2.7823,737.7846296000007,737.7851362000001,737.7852432,737.8000508000005,740.5826106000004,740.5671831,740.5713993000008,740.5826106000004,740.5826106000004,740.5826106000004,740.5826106000004,742.5826894000002,742.5826894000002,742.5826894000002,742.5826894000002,742.5674374,2,1.5626829000002544,0.2263837999998941,None,,,,,,,,,,,,,,,,,,,,,9210,1,2025-07-05_13h22.03.154,sm,2024.2.4,59.98141775679449,2025-07-05 13h22.43.478004 +0200,
22,0,22,,,,,,space,2.547952400000213,None,None,3,0.8239966999999524,0.24427290000039648,None,0,0,0,0,,,,,0,0,0,0,,,,,22,0,22,0,742.5826894000002,,,,,,,,,,,,,,,,,,,,,,,,,,,,,,,,,,,,,,,,,,,,,,,,,,,,,,,,,,Ball,4.3532,742.5679616000007,742.5684703000006,742.5685776,742.5826894000002,746.9491935000005,746.9336891000003,746.9373288000006,746.9491935000005,746.9491935000005,746.9491935000005,746.9491935000005,748.9492462000007,748.9492462000007,748.9492462000007,748.9492462000007,748.9336691000008,3,0.8239966999999524,0.24427290000039648,None,,,,,,,,,,,,,,,,,,,,,9210,1,2025-07-05_13h22.03.154,sm,2024.2.4,59.98141775679449,2025-07-05 13h22.43.478004 +0200,
23,0,23,,,,,,space,2.547952400000213,None,None,3,0.7098824999993667,0.24292640000021493,None,0,0,0,0,,,,,0,0,0,0,,,,,23,0,23,0,748.9492462000007,,,,,,,,,,,,,,,,,,,,,,,,,,,,,,,,,,,,,,,,,,,,,,,,,,,,,,,,,,Marmor,2.2712,748.9341912,748.9347757000005,748.9348833000004,748.9492462000007,751.2322400000003,751.2165893000001,751.2204246000001,751.2322400000003,751.2322400000003,751.2322400000003,751.2322400000003,753.2321936000008,753.2321936000008,753.2321936000008,753.2321936000008,753.2168449000001,3,0.7098824999993667,0.24292640000021493,None,,,,,,,,,,,,,,,,,,,,,9210,1,2025-07-05_13h22.03.154,sm,2024.2.4,59.98141775679449,2025-07-05 13h22.43.478004 +0200,
24,0,24,,,,,,space,2.547952400000213,None,None,2,1.3167465000005905,0.2232624999996915,None,0,0,0,0,,,,,0,0,0,0,,,,,24,0,24,0,753.2321936000008,,,,,,,,,,,,,,,,,,,,,,,,,,,,,,,,,,,,,,,,,,,,,,,,,,,,,,,,,,Poesie,2.4423,753.2173627000002,753.2180120000003,753.2181192000007,753.2321936000008,755.6987405,755.6668009000005,755.6740433000004,755.6987405,755.6987405,755.6987405,755.6987405,,,,,757.6823442000004,2,1.3167465000005905,0.2232624999996915,None,,,,,,,,,,,,,,,,,,,,,9210,1,2025-07-05_13h22.03.154,sm,2024.2.4,59.98141775679449,2025-07-05 13h22.43.478004 +0200,
25,0,25,,,,,,space,2.547952400000213,None,None,3,0.9656106000002183,0.30195389999971667,None,0,0,0,0,,,,,0,0,0,0,,,,,25,0,25,0,757.6985858000007,,,,,,,,,,,,,,,,,,,,,,,,,,,,,,,,,,,,,,,,,,,,,,,,,,,,,,,,,,Ecke,2.1177,757.6828664000004,757.683618,757.6837354000008,757.6985858000007,759.8151883,759.7995267000006,759.8032881000008,759.8151883,759.8151883,759.8151883,759.8151883,761.8150827000009,761.8150827000009,761.8150827000009,761.8150827000009,761.7997633000004,3,0.9656106000002183,0.30195389999971667,None,,,,,,,,,,,,,,,,,,,,,9210,1,2025-07-05_13h22.03.154,sm,2024.2.4,59.98141775679449,2025-07-05 13h22.43.478004 +0200,
26,0,26,,,,,,space,2.547952400000213,None,None,3,0.9973875999994561,0.26244390000010753,None,0,0,0,0,,,,,0,0,0,0,,,,,26,0,26,0,761.8150827000009,,,,,,,,,,,,,,,,,,,,,,,,,,,,,,,,,,,,,,,,,,,,,,,,,,,,,,,,,,Asche,3.0263,761.8002858,761.8008086,761.8009141000002,761.8150827000009,764.8480674000002,764.8325453000007,764.8360016000006,764.8480674000002,764.8480674000002,764.8480674000002,764.8480674000002,766.8481096000005,766.8481096000005,766.8481096000005,766.8481096000005,766.8325368000005,3,0.9973875999994561,0.26244390000010753,None,,,,,,,,,,,,,,,,,,,,,9210,1,2025-07-05_13h22.03.154,sm,2024.2.4,59.98141775679449,2025-07-05 13h22.43.478004 +0200,
27,0,27,,,,,,space,2.547952400000213,None,None,3,1.1335844000004727,0.27509939999981725,None,0,0,0,0,,,,,0,0,0,0,,,,,27,0,27,0,766.8481096000005,,,,,,,,,,,,,,,,,,,,,,,,,,,,,,,,,,,,,,,,,,,,,,,,,,,,,,,,,,Puppe,2.078,766.8330593000001,766.8335781000005,766.8336859000001,766.8481096000005,768.9312817,768.9157029000007,768.9206601000005,768.9312817,768.9312817,768.9312817,768.9312817,770.9313312000004,770.9313312000004,770.9313312000004,770.9313312000004,770.9154893000004,3,1.1335844000004727,0.27509939999981725,None,,,,,,,,,,,,,,,,,,,,,9210,1,2025-07-05_13h22.03.154,sm,2024.2.4,59.98141775679449,2025-07-05 13h22.43.478004 +0200,
28,0,28,,,,,,space,2.547952400000213,None,None,2,0.9655644000004031,0.26719729999967967,None,0,0,0,0,,,,,0,0,0,0,,,,,28,0,28,0,770.9313312000004,,,,,,,,,,,,,,,,,,,,,,,,,,,,,,,,,,,,,,,,,,,,,,,,,,,,,,,,,,Schaf,2.8166,770.9159592000005,770.9164486,770.9165427000007,770.9313312000004,773.7476421000001,773.7322462000002,773.7361943000005,773.7476421000001,773.7476421000001,773.7476421000001,773.7476421000001,775.7480760000008,775.7480760000008,775.7480760000008,775.7480760000008,775.7320817,2,0.9655644000004031,0.26719729999967967,None,,,,,,,,,,,,,,,,,,,,,9210,1,2025-07-05_13h22.03.154,sm,2024.2.4,59.98141775679449,2025-07-05 13h22.43.478004 +0200,
29,0,29,,,,,,space,2.547952400000213,None,None,2,1.2010627999998178,0.3171615000001111,None,0,0,0,0,,,,,0,0,0,0,,,,,29,0,29,0,775.7480760000008,,,,,,,,,,,,,,,,,,,,,,,,,,,,,,,,,,,,,,,,,,,,,,,,,,,,,,,,,,Anführer,2.2125,775.7326042000004,775.7332566000005,775.7333626,775.7480760000008,777.964035,777.9484578000001,777.9521356000005,777.964035,777.964035,777.964035,777.964035,779.9640850000005,779.9640850000005,779.9640850000005,779.9640850000005,779.9484647000008,2,1.2010627999998178,0.3171615000001111,None,,,,,,,,,,,,,,,,,,,,,9210,1,2025-07-05_13h22.03.154,sm,2024.2.4,59.98141775679449,2025-07-05 13h22.43.478004 +0200,
30,0,30,,,,,,space,2.547952400000213,None,None,2,1.542719400000351,0.21679630000016914,None,0,0,0,0,,,,,0,0,0,0,,,,,30,0,30,0,779.9640850000005,,,,,,,,,,,,,,,,,,,,,,,,,,,,,,,,,,,,,,,,,,,,,,,,,,,,,,,,,,Alligator,3.2446,779.9489862,779.9495003000002,779.9496091000001,779.9640850000005,783.2144327000005,783.1982167000006,783.2027536000005,783.2144327000005,783.2144327000005,783.2144327000005,783.2144327000005,785.2136850000006,785.2136850000006,785.2136850000006,785.2136850000006,785.1981806000003,2,1.542719400000351,0.21679630000016914,None,,,,,,,,,,,,,,,,,,,,,9210,1,2025-07-05_13h22.03.154,sm,2024.2.4,59.98141775679449,2025-07-05 13h22.43.478004 +0200,
31,0,31,,,,,,space,2.547952400000213,None,None,3,1.3226274999997258,0.26503130000037345,None,0,0,0,0,,,,,0,0,0,0,,,,,31,0,31,0,785.2136850000006,,,,,,,,,,,,,,,,,,,,,,,,,,,,,,,,,,,,,,,,,,,,,,,,,,,,,,,,,,Scheidung,2.6605,785.1988000000001,785.1993058000007,785.1994145000008,785.2136850000006,787.8802212,787.8646952000008,787.8689345000003,787.8802212,787.8802212,787.8802212,787.8802212,789.8802368000006,789.8802368000006,789.8802368000006,789.8802368000006,789.8643892,3,1.3226274999997258,0.26503130000037345,None,,,,,,,,,,,,,,,,,,,,,9210,1,2025-07-05_13h22.03.154,sm,2024.2.4,59.98141775679449,2025-07-05 13h22.43.478004 +0200,
32,0,32,,,,,,space,2.547952400000213,None,None,2,1.2352097000002686,0.20544380000046658,None,0,0,0,0,,,,,0,0,0,0,,,,,32,0,32,0,789.8802368000006,,,,,,,,,,,,,,,,,,,,,,,,,,,,,,,,,,,,,,,,,,,,,,,,,,,,,,,,,,Baum,2.3147,789.8648568000008,789.8654704,789.8655658000007,789.8802368000006,792.1968446000001,792.1810516000005,792.1847343000009,792.1968446000001,792.1968446000001,792.1968446000001,792.1968446000001,794.1966334000008,794.1966334000008,794.1966334000008,794.1966334000008,794.1811303000004,2,1.2352097000002686,0.20544380000046658,None,,,,,,,,,,,,,,,,,,,,,9210,1,2025-07-05_13h22.03.154,sm,2024.2.4,59.98141775679449,2025-07-05 13h22.43.478004 +0200,
33,0,33,,,,,,space,2.547952400000213,None,None,3,1.2101016000005984,0.25522989999990386,None,0,0,0,0,,,,,0,0,0,0,,,,,33,0,33,0,794.1966334000008,,,,,,,,,,,,,,,,,,,,,,,,,,,,,,,,,,,,,,,,,,,,,,,,,,,,,,,,,,Zeichnung,2.485,794.1816554000006,794.1821779000002,794.1822874000009,794.1966334000008,796.6962025000003,796.6807021000004,796.6846415,796.6962025000003,796.6962025000003,796.6962025000003,796.6962025000003,798.6964350000007,798.6964350000007,798.6964350000007,798.6964350000007,798.6813399000002,3,1.2101016000005984,0.25522989999990386,None,,,,,,,,,,,,,,,,,,,,,9210,1,2025-07-05_13h22.03.154,sm,2024.2.4,59.98141775679449,2025-07-05 13h22.43.478004 +0200,
34,0,34,,,,,,space,2.547952400000213,None,None,None,,,None,0,0,0,0,,,,,0,0,0,0,,,,,34,0,34,0,798.6964350000007,,,,,,,,,,,,,,,,,,,,,,,,,,,,,,,,,,,,,,,,,,,,,,,,,,,,,,,,,,Professor,4.0159,798.6818670000002,798.6823752,798.6824844000002,798.6964350000007,802.7124807,802.6974119000006,802.7023502000002,802.7124807,802.7124807,802.7124807,802.7124807,804.7126617000004,804.7126617000004,804.7126617000004,804.7126617000004,804.6972214000007,None,,,None,,,,,,,,,,,,,,,,,,,,,9210,1,2025-07-05_13h22.03.154,sm,2024.2.4,59.98141775679449,2025-07-05 13h22.43.478004 +0200,
35,0,35,,,,,,space,2.547952400000213,None,None,2,1.78283779999947,None,None,0,0,0,0,,,,,0,0,0,0,,,,,35,0,35,0,804.7126617000004,,,,,,,,,,,,,,,,,,,,,,,,,,,,,,,,,,,,,,,,,,,,,,,,,,,,,,,,,,Tanz,3.1959,804.6977078,804.6982701000006,804.6983750000009,804.7126617000004,807.9126030000007,807.8969204000005,807.9006907000003,807.9126030000007,807.9126030000007,807.9126030000007,807.9126030000007,809.9125755000005,809.9125755000005,809.9125755000005,809.9125755000005,809.8974727000004,2,1.78283779999947,None,None,,,,,,,,,,,,,,,,,,,,,9210,1,2025-07-05_13h22.03.154,sm,2024.2.4,59.98141775679449,2025-07-05 13h22.43.478004 +0200,
36,0,36,,,,,,space,2.547952400000213,None,None,3,0.8351490999993985,0.285290900000291,None,0,0,0,0,,,,,0,0,0,0,,,,,36,0,36,0,809.9125755000005,,,,,,,,,,,,,,,,,,,,,,,,,,,,,,,,,,,,,,,,,,,,,,,,,,,,,,,,,,Kerzen,2.5195,809.8979909,809.8987005000008,809.8988103000002,809.9125755000005,812.4454833,812.4296321000002,812.4331349000004,812.4454833,812.4454833,812.4454833,812.4454833,814.4452870000005,814.4452870000005,814.4452870000005,814.4452870000005,814.4299265,3,0.8351490999993985,0.285290900000291,None,,,,,,,,,,,,,,,,,,,,,9210,1,2025-07-05_13h22.03.154,sm,2024.2.4,59.98141775679449,2025-07-05 13h22.43.478004 +0200,
37,0,37,,,,,,space,2.547952400000213,None,None,3,1.180441499999688,0.2583221000004414,None,0,0,0,0,,,,,0,0,0,0,,,,,37,0,37,0,814.4452870000005,,,,,,,,,,,,,,,,,,,,,,,,,,,,,,,,,,,,,,,,,,,,,,,,,,,,,,,,,,Herbst,2.3908,814.4304544000006,814.4309622000001,814.4310707000004,814.4452870000005,816.8450617000008,816.8295104000008,816.8357625000008,816.8450617000008,816.8450617000008,816.8450617000008,816.8450617000008,818.8452425000005,818.8452425000005,818.8452425000005,818.8452425000005,818.8295114000002,3,1.180441499999688,0.2583221000004414,None,,,,,,,,,,,,,,,,,,,,,9210,1,2025-07-05_13h22.03.154,sm,2024.2.4,59.98141775679449,2025-07-05 13h22.43.478004 +0200,
38,0,38,,,,,,space,2.547952400000213,None,None,3,1.6977782000003572,0.23532389999945735,None,0,0,0,0,,,,,0,0,0,0,,,,,38,0,38,0,818.8452425000005,,,,,,,,,,,,,,,,,,,,,,,,,,,,,,,,,,,,,,,,,,,,,,,,,,,,,,,,,,Weltraum,2.3814,818.8300379000002,818.8306257000004,818.8307384,818.8452425000005,821.2280848,821.2125334000002,821.2164167000001,821.2280848,821.2280848,821.2280848,821.2280848,823.2281817000003,823.2281817000003,823.2281817000003,823.2281817000003,823.2128340000008,3,1.6977782000003572,0.23532389999945735,None,,,,,,,,,,,,,,,,,,,,,9210,1,2025-07-05_13h22.03.154,sm,2024.2.4,59.98141775679449,2025-07-05 13h22.43.478004 +0200,
39,0,39,,,,,,space,2.547952400000213,None,None,None,,,None,0,0,0,0,,,,,0,0,0,0,,,,,39,0,39,0,823.2281817000003,,,,,,,,,,,,,,,,,,,,,,,,,,,,,,,,,,,,,,,,,,,,,,,,,,,,,,,,,,Gegenwart,2.7072,823.2133539000006,823.2139383000003,823.2140463000005,823.2281817000003,825.9446835000008,825.9289137000005,825.9322488000007,825.9446835000008,825.9446835000008,825.9446835000008,825.9446835000008,827.9447066000002,827.9447066000002,827.9447066000002,827.9447066000002,827.9292464,None,,,None,,,,,,,,,,,,,,,,,,,,,9210,1,2025-07-05_13h22.03.154,sm,2024.2.4,59.98141775679449,2025-07-05 13h22.43.478004 +0200,
40,0,40,,,,,,space,2.547952400000213,None,None,2,1.1803862999995545,0.275394100000085,None,0,0,0,0,,,,,0,0,0,0,,,,,40,0,40,0,827.9447066000002,,,,,,,,,,,,,,,,,,,,,,,,,,,,,,,,,,,,,,,,,,,,,,,,,,,,,,,,,,Ferien,3.4326,827.9297352000003,827.9303233,827.9304320000001,827.9447066000002,831.377512,831.3619684000005,831.3663432000003,831.377512,831.377512,831.377512,831.377512,833.3776537000003,833.3776537000003,833.3776537000003,833.3776537000003,833.3623240000006,2,1.1803862999995545,0.275394100000085,None,,,,,,,,,,,,,,,,,,,,,9210,1,2025-07-05_13h22.03.154,sm,2024.2.4,59.98141775679449,2025-07-05 13h22.43.478004 +0200,
41,0,41,,,,,,space,2.547952400000213,None,None,3,0.8992299999999886,0.2267357999999149,None,0,0,0,0,,,,,0,0,0,0,,,,,41,0,41,0,833.3776537000003,,,,,,,,,,,,,,,,,,,,,,,,,,,,,,,,,,,,,,,,,,,,,,,,,,,,,,,,,,Zahnpasta,2.3533,833.3628529000007,833.3634374000003,833.3635455000003,833.3776537000003,835.7439744000003,835.7285279000007,835.7324446000002,835.7439744000003,835.7439744000003,835.7439744000003,835.7439744000003,837.7441639000008,837.7441639000008,837.7441639000008,837.7441639000008,837.7284556000004,3,0.8992299999999886,0.2267357999999149,None,,,,,,,,,,,,,,,,,,,,,9210,1,2025-07-05_13h22.03.154,sm,2024.2.4,59.98141775679449,2025-07-05 13h22.43.478004 +0200,
42,0,42,,,,,,space,2.547952400000213,None,None,2,1.1502003999994486,0.2025087000001804,None,0,0,0,0,,,,,0,0,0,0,,,,,42,0,42,0,837.7441639000008,,,,,,,,,,,,,,,,,,,,,,,,,,,,,,,,,,,,,,,,,,,,,,,,,,,,,,,,,,Bruder,2.8207,837.7289797000003,837.7294816000003,837.7295865000006,837.7441639000008,840.5773232000001,840.5617395000008,840.5659099000004,840.5773232000001,840.5773232000001,840.5773232000001,840.5773232000001,842.5774018000002,842.5774018000002,842.5774018000002,842.5774018000002,842.5617637000005,2,1.1502003999994486,0.2025087000001804,None,,,,,,,,,,,,,,,,,,,,,9210,1,2025-07-05_13h22.03.154,sm,2024.2.4,59.98141775679449,2025-07-05 13h22.43.478004 +0200,
43,0,43,,,,,,space,2.547952400000213,None,None,2,0.7983334000000468,0.22475400000075751,None,0,0,0,0,,,,,0,0,0,0,,,,,43,0,43,0,842.5774018000002,,,,,,,,,,,,,,,,,,,,,,,,,,,,,,,,,,,,,,,,,,,,,,,,,,,,,,,,,,Turnerin,2.4828,842.5622833000007,842.5629571000009,842.5630661000005,842.5774018000002,845.0602605000004,845.0446326000001,845.0487385000006,845.0602605000004,845.0602605000004,845.0602605000004,845.0602605000004,847.0602040000003,847.0602040000003,847.0602040000003,847.0602040000003,847.0445902000001,2,0.7983334000000468,0.22475400000075751,None,,,,,,,,,,,,,,,,,,,,,9210,1,2025-07-05_13h22.03.154,sm,2024.2.4,59.98141775679449,2025-07-05 13h22.43.478004 +0200,
44,0,44,,,,,,space,2.547952400000213,None,None,2,1.1734570999997231,0.2220167000004949,None,0,0,0,0,,,,,0,0,0,0,,,,,44,0,44,0,847.0602040000003,,,,,,,,,,,,,,,,,,,,,,,,,,,,,,,,,,,,,,,,,,,,,,,,,,,,,,,,,,Fledermaus,2.4929,847.0450827000004,847.0455787000001,847.0456779000006,847.0602040000003,849.5602442000009,849.5445243000004,849.5492180000001,849.5602442000009,849.5602442000009,849.5602442000009,849.5602442000009,851.5600321000002,851.5600321000002,851.5600321000002,851.5600321000002,851.544492,2,1.1734570999997231,0.2220167000004949,None,,,,,,,,,,,,,,,,,,,,,9210,1,2025-07-05_13h22.03.154,sm,2024.2.4,59.98141775679449,2025-07-05 13h22.43.478004 +0200,
45,0,45,,,,,,space,2.547952400000213,None,None,2,1.7006874999997308,0.20621029999983875,None,0,0,0,0,,,,,0,0,0,0,,,,,45,0,45,0,851.5600321000002,,,,,,,,,,,,,,,,,,,,,,,,,,,,,,,,,,,,,,,,,,,,,,,,,,,,,,,,,,Geheimnis,2.4576,851.5450188000004,851.5455339,851.5456447000006,851.5600321000002,854.0263950000008,854.0108798000001,854.0151898000004,854.0263950000008,854.0263950000008,854.0263950000008,854.0263950000008,856.0265484000001,856.0265484000001,856.0265484000001,856.0265484000001,856.0108617000005,2,1.7006874999997308,0.20621029999983875,None,,,,,,,,,,,,,,,,,,,,,9210,1,2025-07-05_13h22.03.154,sm,2024.2.4,59.98141775679449,2025-07-05 13h22.43.478004 +0200,
46,0,46,,,,,,space,2.547952400000213,None,None,3,0.8972352999999202,0.26464990000022226,None,0,0,0,0,,,,,0,0,0,0,,,,,46,0,46,0,856.0265484000001,,,,,,,,,,,,,,,,,,,,,,,,,,,,,,,,,,,,,,,,,,,,,,,,,,,,,,,,,,Stiefel,3.1104,856.0113792000002,856.0119485000005,856.0120548000004,856.0265484000001,859.1428573000003,859.1273693000003,859.1326523000007,859.1428573000003,859.1428573000003,859.1428573000003,859.1428573000003,861.1428152000008,861.1428152000008,861.1428152000008,861.1428152000008,861.1272943000004,3,0.8972352999999202,0.26464990000022226,None,,,,,,,,,,,,,,,,,,,,,9210,1,2025-07-05_13h22.03.154,sm,2024.2.4,59.98141775679449,2025-07-05 13h22.43.478004 +0200,
47,0,47,,,,,,space,2.547952400000213,None,None,3,0.7996756000002279,0.23337269999956334,None,0,0,0,0,,,,,0,0,0,0,,,,,47,0,47,0,861.1428152000008,,,,,,,,,,,,,,,,,,,,,,,,,,,,,,,,,,,,,,,,,,,,,,,,,,,,,,,,,,Tür,2.5557,861.1278225000005,861.1283471000006,861.1284568000001,861.1428152000008,863.7091959000009,863.6933442,863.6964601,863.7091959000009,863.7091959000009,863.7091959000009,863.7091959000009,865.7090936000004,865.7090936000004,865.7090936000004,865.7090936000004,865.6938539000002,3,0.7996756000002279,0.23337269999956334,None,,,,,,,,,,,,,,,,,,,,,9210,1,2025-07-05_13h22.03.154,sm,2024.2.4,59.98141775679449,2025-07-05 13h22.43.478004 +0200,
48,0,48,,,,,,space,2.547952400000213,None,None,3,1.4509245999997802,0.25617400000010093,None,0,0,0,0,,,,,0,0,0,0,,,,,48,0,48,0,865.7090936000004,,,,,,,,,,,,,,,,,,,,,,,,,,,,,,,,,,,,,,,,,,,,,,,,,,,,,,,,,,Glück,3.3819,865.6943783000006,865.6948995000002,865.6950079000007,865.7090936000004,869.0921863000003,869.0767780000006,869.0809401000006,869.0921863000003,869.0921863000003,869.0921863000003,869.0921863000003,871.0922705000003,871.0922705000003,871.0922705000003,871.0922705000003,871.0768119000004,3,1.4509245999997802,0.25617400000010093,None,,,,,,,,,,,,,,,,,,,,,9210,1,2025-07-05_13h22.03.154,sm,2024.2.4,59.98141775679449,2025-07-05 13h22.43.478004 +0200,
49,0,49,,,,,,space,2.547952400000213,None,None,3,0.9199436000008063,0.23638630000004923,None,0,0,0,0,,,,,0,0,0,0,,,,,49,0,49,0,871.0922705000003,,,,,,,,,,,,,,,,,,,,,,,,,,,,,,,,,,,,,,,,,,,,,,,,,,,,,,,,,,Karton,4.6857,871.0773340000005,871.0778559,871.0779678000008,871.0922705000003,875.7916620000005,875.7760794000005,875.7798657000003,875.7916620000005,875.7916620000005,875.7916620000005,875.7916620000005,877.7920358000001,877.7920358000001,877.7920358000001,877.7920358000001,877.7762637000005,3,0.9199436000008063,0.23638630000004923,None,,,,,,,,,,,,,,,,,,,,,9210,1,2025-07-05_13h22.03.154,sm,2024.2.4,59.98141775679449,2025-07-05 13h22.43.478004 +0200,
50,0,50,,,,,,space,2.547952400000213,None,None,2,1.3399140999999872,0.2113811999997779,None,0,0,0,0,,,,,0,0,0,0,,,,,50,0,50,0,877.7920358000001,,,,,,,,,,,,,,,,,,,,,,,,,,,,,,,,,,,,,,,,,,,,,,,,,,,,,,,,,,Publikum,3.9099,877.7767841000004,877.7772974000009,877.7774128000001,877.7920358000001,881.7082516,881.6930062000001,881.6975590000002,881.7082516,881.7082516,881.7082516,881.7082516,883.7084655000008,883.7084655000008,883.7084655000008,883.7084655000008,883.6927257000007,2,1.3399140999999872,0.2113811999997779,None,,,,,,,,,,,,,,,,,,,,,9210,1,2025-07-05_13h22.03.154,sm,2024.2.4,59.98141775679449,2025-07-05 13h22.43.478004 +0200,
51,0,51,,,,,,space,2.547952400000213,None,None,3,1.1626791999997295,0.27191659999971307,None,0,0,0,0,,,,,0,0,0,0,,,,,51,0,51,0,883.7084655000008,,,,,,,,,,,,,,,,,,,,,,,,,,,,,,,,,,,,,,,,,,,,,,,,,,,,,,,,,,Wanne,2.9304,883.6932502,883.6938630000004,883.6939756000002,883.7084655000008,886.6413550000007,886.6254360000003,886.6286812000008,886.6413550000007,886.6413550000007,886.6413550000007,886.6413550000007,888.6410385000008,888.6410385000008,888.6410385000008,888.6410385000008,888.6257895000008,3,1.1626791999997295,0.27191659999971307,None,,,,,,,,,,,,,,,,,,,,,9210,1,2025-07-05_13h22.03.154,sm,2024.2.4,59.98141775679449,2025-07-05 13h22.43.478004 +0200,
52,0,52,,,,,,space,2.547952400000213,None,None,3,1.1607383000000482,0.25987679999980173,None,0,0,0,0,,,,,0,0,0,0,,,,,52,0,52,0,888.6410385000008,,,,,,,,,,,,,,,,,,,,,,,,,,,,,,,,,,,,,,,,,,,,,,,,,,,,,,,,,,Rolle,2.4512,888.6263152000001,888.6268212000004,888.6269310000007,888.6410385000008,891.1073803000008,891.092063,891.0961606000001,891.1073803000008,891.1073803000008,891.1073803000008,891.1073803000008,893.1076084000006,893.1076084000006,893.1076084000006,893.1076084000006,893.0922741000004,3,1.1607383000000482,0.25987679999980173,None,,,,,,,,,,,,,,,,,,,,,9210,1,2025-07-05_13h22.03.154,sm,2024.2.4,59.98141775679449,2025-07-05 13h22.43.478004 +0200,
53,0,53,,,,,,space,2.547952400000213,None,None,3,1.1956828000002133,0.23028919999978825,None,0,0,0,0,,,,,0,0,0,0,,,,,53,0,53,0,893.1076084000006,,,,,,,,,,,,,,,,,,,,,,,,,,,,,,,,,,,,,,,,,,,,,,,,,,,,,,,,,,Mund,2.4637,893.0927915000002,893.0933789000001,893.0934877,893.1076084000006,895.5740409,895.5582761000005,895.5613006000003,895.5740409,895.5740409,895.5740409,895.5740409,897.5740846000008,897.5740846000008,897.5740846000008,897.5740846000008,897.5585312000003,3,1.1956828000002133,0.23028919999978825,None,,,,,,,,,,,,,,,,,,,,,9210,1,2025-07-05_13h22.03.154,sm,2024.2.4,59.98141775679449,2025-07-05 13h22.43.478004 +0200,
54,0,54,,,,,,space,2.547952400000213,None,None,3,1.392902700000377,0.23224320000008447,None,0,0,0,0,,,,,0,0,0,0,,,,,54,0,54,0,897.5740846000008,,,,,,,,,,,,,,,,,,,,,,,,,,,,,,,,,,,,,,,,,,,,,,,,,,,,,,,,,,Schule,3.1528,897.5590523000001,897.5595695000002,897.5596766000008,897.5740846000008,900.7404715000002,900.7249406000001,900.7291766000008,900.7404715000002,900.7404715000002,900.7404715000002,900.7404715000002,902.7408767000006,902.7408767000006,902.7408767000006,902.7408767000006,902.7249968000006,3,1.392902700000377,0.23224320000008447,None,,,,,,,,,,,,,,,,,,,,,9210,1,2025-07-05_13h22.03.154,sm,2024.2.4,59.98141775679449,2025-07-05 13h22.43.478004 +0200,
55,0,55,,,,,,space,2.547952400000213,None,None,3,0.9898338000002695,0.26059429999986605,None,0,0,0,0,,,,,0,0,0,0,,,,,55,0,55,0,902.7408767000006,,,,,,,,,,,,,,,,,,,,,,,,,,,,,,,,,,,,,,,,,,,,,,,,,,,,,,,,,,Spülung,2.4782,902.7255226000007,902.7261639000008,902.7262720000008,902.7408767000006,905.2233188,905.2080424000005,905.2119355000004,905.2233188,905.2233188,905.2233188,905.2233188,907.2235856000007,907.2235856000007,907.2235856000007,907.2235856000007,907.2078595000003,3,0.9898338000002695,0.26059429999986605,None,,,,,,,,,,,,,,,,,,,,,9210,1,2025-07-05_13h22.03.154,sm,2024.2.4,59.98141775679449,2025-07-05 13h22.43.478004 +0200,
56,0,56,,,,,,space,2.547952400000213,None,None,3,1.1045235999999932,0.2742545000000973,None,0,0,0,0,,,,,0,0,0,0,,,,,56,0,56,0,907.2235856000007,,,,,,,,,,,,,,,,,,,,,,,,,,,,,,,,,,,,,,,,,,,,,,,,,,,,,,,,,,Postkarte,3.1431,907.2083848000002,907.2088885000003,907.2089985000002,907.2235856000007,910.3732332,910.3578182000001,910.3624643000003,910.3732332,910.3732332,910.3732332,910.3732332,912.3732920000002,912.3732920000002,912.3732920000002,912.3732920000002,912.3577262000008,3,1.1045235999999932,0.2742545000000973,None,,,,,,,,,,,,,,,,,,,,,9210,1,2025-07-05_13h22.03.154,sm,2024.2.4,59.98141775679449,2025-07-05 13h22.43.478004 +0200,
57,0,57,,,,,,space,2.547952400000213,None,None,3,0.8892823999995016,0.2445069000004878,None,0,0,0,0,,,,,0,0,0,0,,,,,57,0,57,0,912.3732920000002,,,,,,,,,,,,,,,,,,,,,,,,,,,,,,,,,,,,,,,,,,,,,,,,,,,,,,,,,,Winter,2.6014,912.3582498000005,912.3587690000004,912.3588762000009,912.3732920000002,914.9898282000004,914.9741579000001,914.9782192000002,914.9898282000004,914.9898282000004,914.9898282000004,914.9898282000004,916.9896509,916.9896509,916.9896509,916.9896509,916.9740573000008,3,0.8892823999995016,0.2445069000004878,None,,,,,,,,,,,,,,,,,,,,,9210,1,2025-07-05_13h22.03.154,sm,2024.2.4,59.98141775679449,2025-07-05 13h22.43.478004 +0200,
58,0,58,,,,,,space,2.547952400000213,None,None,3,0.86546989999988,0.22275790000003326,None,0,0,0,0,,,,,0,0,0,0,,,,,58,0,58,0,916.9896509,,,,,,,,,,,,,,,,,,,,,,,,,,,,,,,,,,,,,,,,,,,,,,,,,,,,,,,,,,Maske,4.0235,916.9745715000008,916.9751425000004,916.9752495000002,916.9896509,921.0224996000006,921.0069601000005,921.0113846000004,921.0224996000006,921.0224996000006,921.0224996000006,921.0224996000006,923.0225516,923.0225516,923.0225516,923.0225516,923.0071721000004,3,0.86546989999988,0.22275790000003326,None,,,,,,,,,,,,,,,,,,,,,9210,1,2025-07-05_13h22.03.154,sm,2024.2.4,59.98141775679449,2025-07-05 13h22.43.478004 +0200,
59,0,59,,,,,,space,2.547952400000213,None,None,3,1.2127835000001141,0.21846450000066397,None,0,0,0,0,,,,,0,0,0,0,,,,,59,0,59,0,923.0225516,,,,,,,,,,,,,,,,,,,,,,,,,,,,,,,,,,,,,,,,,,,,,,,,,,,,,,,,,,Fakt,2.3384,923.0076955000004,923.0082037000002,923.0083109000007,923.0225516,925.3724257000003,925.3569353000003,925.3604977000005,925.3724257000003,925.3724257000003,925.3724257000003,925.3724257000003,927.3725888000008,927.3725888000008,927.3725888000008,927.3725888000008,927.3567079000004,3,1.2127835000001141,0.21846450000066397,None,,,,,,,,,,,,,,,,,,,,,9210,1,2025-07-05_13h22.03.154,sm,2024.2.4,59.98141775679449,2025-07-05 13h22.43.478004 +0200,
60,0,60,,,,,,space,2.547952400000213,None,None,3,1.2191410999994332,0.3144132000006721,None,0,0,0,0,,,,,0,0,0,0,,,,,60,0,60,0,927.3725888000008,,,,,,,,,,,,,,,,,,,,,,,,,,,,,,,,,,,,,,,,,,,,,,,,,,,,,,,,,,Telefon,4.2763,927.3572327000002,927.3577471000008,927.3578503000008,927.3725888000008,931.6553576000006,931.6398899000005,931.6442135000007,931.6553576000006,931.6553576000006,931.6553576000006,931.6553576000006,933.6555557000001,933.6555557000001,933.6555557000001,933.6555557000001,933.6400361000005,3,1.2191410999994332,0.3144132000006721,None,,,,,,,,,,,,,,,,,,,,,9210,1,2025-07-05_13h22.03.154,sm,2024.2.4,59.98141775679449,2025-07-05 13h22.43.478004 +0200,
61,0,61,,,,,,space,2.547952400000213,None,None,3,1.3690824000004795,0.23624199999994744,None,0,0,0,0,,,,,0,0,0,0,,,,,61,0,61,0,933.6555557000001,,,,,,,,,,,,,,,,,,,,,,,,,,,,,,,,,,,,,,,,,,,,,,,,,,,,,,,,,,Kaffee,2.381,933.6405556,933.6412126000005,933.6413199000008,933.6555557000001,936.0382618000003,936.0225006000001,936.0260762000007,936.0382618000003,936.0382618000003,936.0382618000003,936.0382618000003,938.0384376000002,938.0384376000002,938.0384376000002,938.0384376000002,938.0228305,3,1.3690824000004795,0.23624199999994744,None,,,,,,,,,,,,,,,,,,,,,9210,1,2025-07-05_13h22.03.154,sm,2024.2.4,59.98141775679449,2025-07-05 13h22.43.478004 +0200,
62,0,62,,,,,,space,2.547952400000213,None,None,3,1.5630736000002798,0.26238980000016454,None,0,0,0,0,,,,,0,0,0,0,,,,,62,0,62,0,938.0384376000002,,,,,,,,,,,,,,,,,,,,,,,,,,,,,,,,,,,,,,,,,,,,,,,,,,,,,,,,,,Pflege,2.9193,938.0233571000008,938.0238722000004,938.0239838000007,938.0384376000002,940.9716158000001,940.9558598000003,940.9600413000007,940.9716158000001,940.9716158000001,940.9716158000001,940.9716158000001,942.9714893,942.9714893,942.9714893,942.9714893,942.9560194000005,3,1.5630736000002798,0.26238980000016454,None,,,,,,,,,,,,,,,,,,,,,9210,1,2025-07-05_13h22.03.154,sm,2024.2.4,59.98141775679449,2025-07-05 13h22.43.478004 +0200,
63,0,63,,,,,,space,2.547952400000213,None,None,3,0.9605152000003727,0.23098060000029363,None,0,0,0,0,,,,,0,0,0,0,,,,,63,0,63,0,942.9714893,,,,,,,,,,,,,,,,,,,,,,,,,,,,,,,,,,,,,,,,,,,,,,,,,,,,,,,,,,Küche,3.5904,942.9565454000003,942.9571451000002,942.9572513000003,942.9714893,946.5711506000007,946.5555534000005,946.5592923000004,946.5711506000007,946.5711506000007,946.5711506000007,946.5711506000007,948.5713780000005,948.5713780000005,948.5713780000005,948.5713780000005,948.5557863000004,3,0.9605152000003727,0.23098060000029363,None,,,,,,,,,,,,,,,,,,,,,9210,1,2025-07-05_13h22.03.154,sm,2024.2.4,59.98141775679449,2025-07-05 13h22.43.478004 +0200,
64,0,64,,,,,,space,2.547952400000213,None,None,3,0.9024392999999691,0.2174328000000969,None,0,0,0,0,,,,,0,0,0,0,,,,,64,0,64,0,948.5713780000005,,,,,,,,,,,,,,,,,,,,,,,,,,,,,,,,,,,,,,,,,,,,,,,,,,,,,,,,,,Sand,4.9421,948.5563087,948.5568318000005,948.5569380000006,948.5713780000005,953.5205665000003,953.5050868000008,953.5081728000005,953.5205665000003,953.5205665000003,953.5205665000003,953.5205665000003,955.5207328000006,955.5207328000006,955.5207328000006,955.5207328000006,955.5051473000003,3,0.9024392999999691,0.2174328000000969,None,,,,,,,,,,,,,,,,,,,,,9210,1,2025-07-05_13h22.03.154,sm,2024.2.4,59.98141775679449,2025-07-05 13h22.43.478004 +0200,
65,0,65,,,,,,space,2.547952400000213,None,None,3,1.0880035999998654,0.2303769000000102,None,0,0,0,0,,,,,0,0,0,0,,,,,65,0,65,0,955.5207328000006,,,,,,,,,,,,,,,,,,,,,,,,,,,,,,,,,,,,,,,,,,,,,,,,,,,,,,,,,,Schwarz,3.0314,955.5056624000008,955.5061555000002,955.5062638000009,955.5207328000006,958.5545151000006,958.5383837000008,958.5448415000001,958.5545151000006,958.5545151000006,958.5545151000006,958.5545151000006,960.5538274,960.5538274,960.5538274,960.5538274,960.5381864000001,3,1.0880035999998654,0.2303769000000102,None,,,,,,,,,,,,,,,,,,,,,9210,1,2025-07-05_13h22.03.154,sm,2024.2.4,59.98141775679449,2025-07-05 13h22.43.478004 +0200,
66,0,66,,,,,,space,2.547952400000213,None,None,3,0.9107997999999498,0.27133039999989705,None,0,0,0,0,,,,,0,0,0,0,,,,,66,0,66,0,960.5538274,,,,,,,,,,,,,,,,,,,,,,,,,,,,,,,,,,,,,,,,,,,,,,,,,,,,,,,,,,Kappe,4.524,960.5387142,960.5392414000007,960.5393504000003,960.5538274,965.0870080000004,965.0711069000008,965.0746164000002,965.0870080000004,965.0870080000004,965.0870080000004,965.0870080000004,967.0867123000007,967.0867123000007,967.0867123000007,967.0867123000007,967.0713705000007,3,0.9107997999999498,0.27133039999989705,None,,,,,,,,,,,,,,,,,,,,,9210,1,2025-07-05_13h22.03.154,sm,2024.2.4,59.98141775679449,2025-07-05 13h22.43.478004 +0200,
67,0,67,,,,,,space,2.547952400000213,None,None,3,1.326356399999895,0.23863380000057077,None,0,0,0,0,,,,,0,0,0,0,,,,,67,0,67,0,967.0867123000007,,,,,,,,,,,,,,,,,,,,,,,,,,,,,,,,,,,,,,,,,,,,,,,,,,,,,,,,,,Luft,2.2089,967.0718897000006,967.0725566000001,967.0726630000008,967.0867123000007,969.3030766000002,969.2873738000008,969.2905446000004,969.3030766000002,969.3030766000002,969.3030766000002,969.3030766000002,971.3030680000002,971.3030680000002,971.3030680000002,971.3030680000002,971.2878353000006,3,1.326356399999895,0.23863380000057077,None,,,,,,,,,,,,,,,,,,,,,9210,1,2025-07-05_13h22.03.154,sm,2024.2.4,59.98141775679449,2025-07-05 13h22.43.478004 +0200,
68,0,68,,,,,,space,2.547952400000213,None,None,3,0.8619721000004574,0.207126999999673,None,0,0,0,0,,,,,0,0,0,0,,,,,68,0,68,0,971.3030680000002,,,,,,,,,,,,,,,,,,,,,,,,,,,,,,,,,,,,,,,,,,,,,,,,,,,,,,,,,,Dip,4.0524,971.2883321000008,971.2888299000006,971.2889319000005,971.3030680000002,975.3696890000001,975.3541208000006,975.3578641000004,975.3696890000001,975.3696890000001,975.3696890000001,975.3696890000001,977.3694816000007,977.3694816000007,977.3694816000007,977.3694816000007,977.3538563000002,3,0.8619721000004574,0.207126999999673,None,,,,,,,,,,,,,,,,,,,,,9210,1,2025-07-05_13h22.03.154,sm,2024.2.4,59.98141775679449,2025-07-05 13h22.43.478004 +0200,
69,0,69,,,,,,space,2.547952400000213,None,None,3,1.0009201000002577,0.24430909999955475,None,0,0,0,0,,,,,0,0,0,0,,,,,69,0,69,0,977.3694816000007,,,,,,,,,,,,,,,,,,,,,,,,,,,,,,,,,,,,,,,,,,,,,,,,,,,,,,,,,,Dunkelheit,2.505,977.3543927000001,977.3549094,977.3550225000008,977.3694816000007,979.8861174000003,979.8705609000008,979.8750962000004,979.8861174000003,979.8861174000003,979.8861174000003,979.8861174000003,981.8862394000007,981.8862394000007,981.8862394000007,981.8862394000007,981.8705698000003,3,1.0009201000002577,0.24430909999955475,None,,,,,,,,,,,,,,,,,,,,,9210,1,2025-07-05_13h22.03.154,sm,2024.2.4,59.98141775679449,2025-07-05 13h22.43.478004 +0200,
70,0,70,,,,,,space,2.547952400000213,None,None,2,1.6335483000002569,0.17776879999928497,None,0,0,0,0,,,,,0,0,0,0,,,,,70,0,70,0,981.8862394000007,,,,,,,,,,,,,,,,,,,,,,,,,,,,,,,,,,,,,,,,,,,,,,,,,,,,,,,,,,Handwerker,3.3735,981.8710932000004,981.8716123000004,981.8717180000003,981.8862394000007,985.2692488000002,985.2534041000008,985.2582940000002,985.2692488000002,985.2692488000002,985.2692488000002,985.2692488000002,987.268857,987.268857,987.268857,987.268857,987.2533506,2,1.6335483000002569,0.17776879999928497,None,,,,,,,,,,,,,,,,,,,,,9210,1,2025-07-05_13h22.03.154,sm,2024.2.4,59.98141775679449,2025-07-05 13h22.43.478004 +0200,
71,0,71,,,,,,space,2.547952400000213,None,None,3,0.8263832999991791,0.21436020000055578,None,0,0,0,0,,,,,0,0,0,0,,,,,71,0,71,0,987.268857,,,,,,,,,,,,,,,,,,,,,,,,,,,,,,,,,,,,,,,,,,,,,,,,,,,,,,,,,,Bett,3.3122,987.2538782000001,987.2545382000008,987.2546480000001,987.268857,990.5852758000001,990.5698596000002,990.5736423000008,990.5852758000001,990.5852758000001,990.5852758000001,990.5852758000001,992.5857642000001,992.5857642000001,992.5857642000001,992.5857642000001,992.5697448000001,3,0.8263832999991791,0.21436020000055578,None,,,,,,,,,,,,,,,,,,,,,9210,1,2025-07-05_13h22.03.154,sm,2024.2.4,59.98141775679449,2025-07-05 13h22.43.478004 +0200,
72,0,72,,,,,,space,2.547952400000213,None,None,3,1.672034199999871,0.2044557999997778,None,0,0,0,0,,,,,0,0,0,0,,,,,72,0,72,0,992.5857642000001,,,,,,,,,,,,,,,,,,,,,,,,,,,,,,,,,,,,,,,,,,,,,,,,,,,,,,,,,,Nase,3.4769,992.5702776000007,992.5707951000004,992.5709022000001,992.5857642000001,996.0684589000002,996.0528015,996.0569770000002,996.0684589000002,996.0684589000002,996.0684589000002,996.0684589000002,998.0683565000008,998.0683565000008,998.0683565000008,998.0683565000008,998.0528087000002,3,1.672034199999871,0.2044557999997778,None,,,,,,,,,,,,,,,,,,,,,9210,1,2025-07-05_13h22.03.154,sm,2024.2.4,59.98141775679449,2025-07-05 13h22.43.478004 +0200,
73,0,73,,,,,,space,2.547952400000213,None,None,None,,,None,0,0,0,0,,,,,0,0,0,0,,,,,73,0,73,0,998.0683565000008,,,,,,,,,,,,,,,,,,,,,,,,,,,,,,,,,,,,,,,,,,,,,,,,,,,,,,,,,,Büro,2.9657,998.0533387000005,998.0540371000006,998.0541495000007,998.0683565000008,1001.0346145000003,1001.0188912000003,1001.0219151000001,1001.0346145000003,1001.0346145000003,1001.0346145000003,1001.0346145000003,1003.0348788000001,1003.0348788000001,1003.0348788000001,1003.0348788000001,1003.0190365000008,None,,,None,,,,,,,,,,,,,,,,,,,,,9210,1,2025-07-05_13h22.03.154,sm,2024.2.4,59.98141775679449,2025-07-05 13h22.43.478004 +0200,
74,0,74,,,,,,space,2.547952400000213,None,None,3,1.564422100000229,0.19165129999964847,None,0,0,0,0,,,,,0,0,0,0,,,,,74,0,74,0,1003.0348788000001,,,,,,,,,,,,,,,,,,,,,,,,,,,,,,,,,,,,,,,,,,,,,,,,,,,,,,,,,,Center,4.4128,1003.0194764000007,1003.0199745,1003.0200695000003,1003.0348788000001,1007.4507084000006,1007.4354548000001,1007.4417672,1007.4507084000006,1007.4507084000006,1007.4507084000006,1007.4507084000006,1009.4510096000004,1009.4510096000004,1009.4510096000004,1009.4510096000004,1009.4355429000007,3,1.564422100000229,0.19165129999964847,None,,,,,,,,,,,,,,,,,,,,,9210,1,2025-07-05_13h22.03.154,sm,2024.2.4,59.98141775679449,2025-07-05 13h22.43.478004 +0200,
75,0,75,,,,,,space,2.547952400000213,None,None,None,,,None,0,0,0,0,,,,,0,0,0,0,,,,,75,0,75,0,1009.4510096000004,,,,,,,,,,,,,,,,,,,,,,,,,,,,,,,,,,,,,,,,,,,,,,,,,,,,,,,,,,Sicherheit,2.3335,1009.4360367000008,1009.4366745000007,1009.4367749000003,1009.4510096000004,1011.7841662000001,1011.7687331000006,1011.7733762000007,1011.7841662000001,1011.7841662000001,1011.7841662000001,1011.7841662000001,1013.7842966000007,1013.7842966000007,1013.7842966000007,1013.7842966000007,1013.7686937000008,None,,,None,,,,,,,,,,,,,,,,,,,,,9210,1,2025-07-05_13h22.03.154,sm,2024.2.4,59.98141775679449,2025-07-05 13h22.43.478004 +0200,
76,0,76,,,,,,space,2.547952400000213,None,None,3,1.2751225000001796,0.20809800000006362,None,0,0,0,0,,,,,0,0,0,0,,,,,76,0,76,0,1013.7842966000007,,,,,,,,,,,,,,,,,,,,,,,,,,,,,,,,,,,,,,,,,,,,,,,,,,,,,,,,,,Liebe,2.2036,1013.7691810000006,1013.7697762000007,1013.7698841000001,1013.7842966000007,1016.0004317000003,1015.9846431000005,1015.9878009000004,1016.0004317000003,1016.0004317000003,1016.0004317000003,1016.0004317000003,1018.0005949000006,1018.0005949000006,1018.0005949000006,1018.0005949000006,1017.9850771000001,3,1.2751225000001796,0.20809800000006362,None,,,,,,,,,,,,,,,,,,,,,9210,1,2025-07-05_13h22.03.154,sm,2024.2.4,59.98141775679449,2025-07-05 13h22.43.478004 +0200,
77,0,77,,,,,,space,2.547952400000213,None,None,3,0.9493689000000813,0.22035659999983181,None,0,0,0,0,,,,,0,0,0,0,,,,,77,0,77,0,1018.0005949000006,,,,,,,,,,,,,,,,,,,,,,,,,,,,,,,,,,,,,,,,,,,,,,,,,,,,,,,,,,Berg,2.721,1017.9856133000003,1017.9861519000006,1017.9862575000006,1018.0005949000006,1020.7345368000006,1020.7183635000001,1020.7221271000008,1020.7345368000006,1020.7345368000006,1020.7345368000006,1020.7345368000006,1022.7335224000008,1022.7335224000008,1022.7335224000008,1022.7335224000008,1022.7180739000005,3,0.9493689000000813,0.22035659999983181,None,,,,,,,,,,,,,,,,,,,,,9210,1,2025-07-05_13h22.03.154,sm,2024.2.4,59.98141775679449,2025-07-05 13h22.43.478004 +0200,
78,0,78,,,,,,space,2.547952400000213,None,None,3,0.9018217000002551,0.20993739999994432,None,0,0,0,0,,,,,0,0,0,0,,,,,78,0,78,0,1022.7335224000008,,,,,,,,,,,,,,,,,,,,,,,,,,,,,,,,,,,,,,,,,,,,,,,,,,,,,,,,,,Gemüse,2.0167,1022.7185822000001,1022.7190673000005,1022.7191647,1022.7335224000008,1024.7501743000003,1024.7346682000007,1024.7397865000003,1024.7501743000003,1024.7501743000003,1024.7501743000003,1024.7501743000003,1026.7501541000001,1026.7501541000001,1026.7501541000001,1026.7501541000001,1026.7346872000007,3,0.9018217000002551,0.20993739999994432,None,,,,,,,,,,,,,,,,,,,,,9210,1,2025-07-05_13h22.03.154,sm,2024.2.4,59.98141775679449,2025-07-05 13h22.43.478004 +0200,
79,0,79,,,,,,space,2.547952400000213,None,None,3,1.2163347999994585,0.23436760000004142,None,0,0,0,0,,,,,0,0,0,0,,,,,79,0,79,0,1026.7501541000001,,,,,,,,,,,,,,,,,,,,,,,,,,,,,,,,,,,,,,,,,,,,,,,,,,,,,,,,,,Beutel,2.8816,1026.7352222000009,1026.7359056000005,1026.7360181000004,1026.7501541000001,1029.6328187000008,1029.6178671000007,1029.6212369000004,1029.6328187000008,1029.6328187000008,1029.6328187000008,1029.6328187000008,1031.6451203000006,1031.6451203000006,1031.6451203000006,1031.6451203000006,1031.6177958000007,3,1.2163347999994585,0.23436760000004142,None,,,,,,,,,,,,,,,,,,,,,9210,1,2025-07-05_13h22.03.154,sm,2024.2.4,59.98141775679449,2025-07-05 13h22.43.478004 +0200,
0,0,0,,,,,3.9099,space,2.308848200000284,None,None,3,1.1561437000000296,0.26145270000051823,None,0,0,0,0,,,,,1,0,1,0,0,79,79,54,0,0,0,0,1077.5804237000002,,,,,,,,,,,,,,,,,,,,,,,,,,,,,,,,,,,,1049.8461048000008,1049.8463999000005,1049.8527049000004,1049.8571951000004,1049.8571951000004,1052.1835837000008,space,2.308848200000284,None,1052.1837439,1052.1986598000003,1052.1986598000003,1065.5641039000002,None,1065.5712694000003,1065.5811946000003,1065.579482766667,1066.7882533000002,1075.5638343666672,1076.5680249000006,1077.5804237000002,1077.5648633,Frieden,3.9099,1077.5663046,1077.5669068000007,1077.5670115000003,1077.5804237000002,1081.4970552000004,1081.4812649000005,1081.4854716,1081.4970552000004,1081.4970552000004,1081.4970552000004,1081.4970552000004,1083.4971121000008,1083.4971121000008,1083.4971121000008,1083.4971121000008,1083.4812766000005,3,1.1561437000000296,0.26145270000051823,None,1043.6328286000007,1043.6329059,None,1043.6419160000005,1043.6502851000005,1047.6493774,1047.6493774,1047.6659553000009,1049.8010550000008,5,2.1380481999995027,None,,,,,,,,,9210,1,2025-07-05_13h22.03.154,sm,2024.2.4,59.98141775679449,2025-07-05 13h22.43.478004 +0200,
1,0,1,,,,,,space,2.308848200000284,None,None,2,0.9387556000001496,0.240000499999951,None,0,0,0,0,,,,,1,0,1,0,,,,,1,0,1,0,1083.4971121000008,,,,,,,,,,,,,,,,,,,,,,,,,,,,,,,,,,,,,,,,,,,,,,,,,,,,,,,,,,Ziege,4.4128,1083.4818085000006,1083.4823232000008,1083.4824308000007,1083.4971121000008,1087.9130177000006,1087.8974745000005,1087.9012428000005,1087.9130177000006,1087.9130177000006,1087.9130177000006,1087.9130177000006,1089.9132531000005,1089.9132531000005,1089.9132531000005,1089.9132531000005,1089.8977277000004,2,0.9387556000001496,0.240000499999951,None,,,,,,,,,,,,,,,,,,,,,9210,1,2025-07-05_13h22.03.154,sm,2024.2.4,59.98141775679449,2025-07-05 13h22.43.478004 +0200,
2,0,2,,,,,,space,2.308848200000284,None,None,3,1.060279499999524,0.2734944000003452,None,0,0,0,0,,,,,1,0,1,0,,,,,2,0,2,0,1089.9132531000005,,,,,,,,,,,,,,,,,,,,,,,,,,,,,,,,,,,,,,,,,,,,,,,,,,,,,,,,,,Universität,4.6857,1089.8982546000007,1089.8988337,1089.8989397000005,1089.9132531000005,1094.6128379000002,1094.5968226000005,1094.6030082000007,1094.6128379000002,1094.6128379000002,1094.6128379000002,1094.6128379000002,1096.6127708000004,1096.6127708000004,1096.6127708000004,1096.6127708000004,1096.5972261000006,3,1.060279499999524,0.2734944000003452,None,,,,,,,,,,,,,,,,,,,,,9210,1,2025-07-05_13h22.03.154,sm,2024.2.4,59.98141775679449,2025-07-05 13h22.43.478004 +0200,
3,0,3,,,,,,space,2.308848200000284,None,None,3,1.078838999999789,0.30687660000057804,None,0,0,0,0,,,,,1,0,1,0,,,,,3,0,3,0,1096.6127708000004,,,,,,,,,,,,,,,,,,,,,,,,,,,,,,,,,,,,,,,,,,,,,,,,,,,,,,,,,,Knie,2.5557,1096.5977569000006,1096.5982697000009,1096.5983749000006,1096.6127708000004,1099.1790765000005,1099.1633799,1099.1668036,1099.1790765000005,1099.1790765000005,1099.1790765000005,1099.1790765000005,1101.1792530000002,1101.1792530000002,1101.1792530000002,1101.1792530000002,1101.1635859000007,3,1.078838999999789,0.30687660000057804,None,,,,,,,,,,,,,,,,,,,,,9210,1,2025-07-05_13h22.03.154,sm,2024.2.4,59.98141775679449,2025-07-05 13h22.43.478004 +0200,
4,0,4,,,,,,space,2.308848200000284,None,None,3,1.7896018999999797,None,None,0,0,0,0,,,,,1,0,1,0,,,,,4,0,4,0,1101.1792530000002,,,,,,,,,,,,,,,,,,,,,,,,,,,,,,,,,,,,,,,,,,,,,,,,,,,,,,,,,,Blumen,4.5818,1101.1641287000002,1101.1647830000002,1101.1648903000005,1101.1792530000002,1105.7620880000004,1105.7465284,1105.7508723,1105.7620880000004,1105.7620880000004,1105.7620880000004,1105.7620880000004,1107.7623669000004,1107.7623669000004,1107.7623669000004,1107.7623669000004,1107.7469243000005,3,1.7896018999999797,None,None,,,,,,,,,,,,,,,,,,,,,9210,1,2025-07-05_13h22.03.154,sm,2024.2.4,59.98141775679449,2025-07-05 13h22.43.478004 +0200,
5,0,5,,,,,,space,2.308848200000284,None,None,3,1.25432869999986,0.23039710000011837,None,0,0,0,0,,,,,1,0,1,0,,,,,5,0,5,0,1107.7623669000004,,,,,,,,,,,,,,,,,,,,,,,,,,,,,,,,,,,,,,,,,,,,,,,,,,,,,,,,,,Club,2.2089,1107.7474201000005,1107.7479929,1107.7480932000008,1107.7623669000004,1109.9786393000004,1109.9634088000003,1109.9676404000002,1109.9786393000004,1109.9786393000004,1109.9786393000004,1109.9786393000004,1111.9786238000006,1111.9786238000006,1111.9786238000006,1111.9786238000006,1111.9631690000006,3,1.25432869999986,0.23039710000011837,None,,,,,,,,,,,,,,,,,,,,,9210,1,2025-07-05_13h22.03.154,sm,2024.2.4,59.98141775679449,2025-07-05 13h22.43.478004 +0200,
6,0,6,,,,,,space,2.308848200000284,None,None,3,0.955086000000847,0.26726479999979347,None,0,0,0,0,,,,,1,0,1,0,,,,,6,0,6,0,1111.9786238000006,,,,,,,,,,,,,,,,,,,,,,,,,,,,,,,,,,,,,,,,,,,,,,,,,,,,,,,,,,Tasche,2.3533,1111.9636975000003,1111.9642284000001,1111.9643359000002,1111.9786238000006,1114.3449367000003,1114.3292349000003,1114.3329986000008,1114.3449367000003,1114.3449367000003,1114.3449367000003,1114.3449367000003,1116.3450624000006,1116.3450624000006,1116.3450624000006,1116.3450624000006,1116.3295559000007,3,0.955086000000847,0.26726479999979347,None,,,,,,,,,,,,,,,,,,,,,9210,1,2025-07-05_13h22.03.154,sm,2024.2.4,59.98141775679449,2025-07-05 13h22.43.478004 +0200,
7,0,7,,,,,,space,2.308848200000284,None,None,3,1.1545191000004706,0.2252674000001207,None,0,0,0,0,,,,,1,0,1,0,,,,,7,0,7,0,1116.3450624000006,,,,,,,,,,,,,,,,,,,,,,,,,,,,,,,,,,,,,,,,,,,,,,,,,,,,,,,,,,Loch,2.721,1116.3300856000005,1116.3307148000004,1116.3308901,1116.3450624000006,1119.0781047,1119.0621908000003,1119.0653807000008,1119.0781047,1119.0781047,1119.0781047,1119.0781047,1121.0780892000002,1121.0780892000002,1121.0780892000002,1121.0780892000002,1121.0625762,3,1.1545191000004706,0.2252674000001207,None,,,,,,,,,,,,,,,,,,,,,9210,1,2025-07-05_13h22.03.154,sm,2024.2.4,59.98141775679449,2025-07-05 13h22.43.478004 +0200,
8,0,8,,,,,,space,2.308848200000284,None,None,3,1.4693909999996322,0.2004601000007824,None,0,0,0,0,,,,,1,0,1,0,,,,,8,0,8,0,1121.0780892000002,,,,,,,,,,,,,,,,,,,,,,,,,,,,,,,,,,,,,,,,,,,,,,,,,,,,,,,,,,Teleskop,2.4929,1121.0631045,1121.0636210000002,1121.0637259000005,1121.0780892000002,1123.5778527000002,1123.5622906000008,1123.5661643000003,1123.5778527000002,1123.5778527000002,1123.5778527000002,1123.5778527000002,1125.5777125000004,1125.5777125000004,1125.5777125000004,1125.5777125000004,1125.5622874,3,1.4693909999996322,0.2004601000007824,None,,,,,,,,,,,,,,,,,,,,,9210,1,2025-07-05_13h22.03.154,sm,2024.2.4,59.98141775679449,2025-07-05 13h22.43.478004 +0200,
9,0,9,,,,,,space,2.308848200000284,None,None,None,,,None,0,0,0,0,,,,,1,0,1,0,,,,,9,0,9,0,1125.5777125000004,,,,,,,,,,,,,,,,,,,,,,,,,,,,,,,,,,,,,,,,,,,,,,,,,,,,,,,,,,Strand,3.7587,1125.5628107000002,1125.563325,1125.5634328000006,1125.5777125000004,1129.3441243000007,1129.3287195000003,1129.3325538000008,1129.3441243000007,1129.3441243000007,1129.3441243000007,1129.3441243000007,1131.3445428000005,1131.3445428000005,1131.3445428000005,1131.3445428000005,1131.3289095,None,,,None,,,,,,,,,,,,,,,,,,,,,9210,1,2025-07-05_13h22.03.154,sm,2024.2.4,59.98141775679449,2025-07-05 13h22.43.478004 +0200,
10,0,10,,,,,,space,2.308848200000284,None,None,2,1.201524000000063,0.2044409000000087,None,0,0,0,0,,,,,1,0,1,0,,,,,10,0,10,0,1131.3445428000005,,,,,,,,,,,,,,,,,,,,,,,,,,,,,,,,,,,,,,,,,,,,,,,,,,,,,,,,,,Präsident,3.4326,1131.3293653,1131.3301428000004,1131.3302434000007,1131.3445428000005,1134.7769051000005,1134.7614979,1134.7663052000007,1134.7769051000005,1134.7769051000005,1134.7769051000005,1134.7769051000005,1136.7772096000008,1136.7772096000008,1136.7772096000008,1136.7772096000008,1136.7615552000007,2,1.201524000000063,0.2044409000000087,None,,,,,,,,,,,,,,,,,,,,,9210,1,2025-07-05_13h22.03.154,sm,2024.2.4,59.98141775679449,2025-07-05 13h22.43.478004 +0200,
11,0,11,,,,,,space,2.308848200000284,None,None,3,1.4717600000003586,0.22835140000006504,None,0,0,0,0,,,,,1,0,1,0,,,,,11,0,11,0,1136.7772096000008,,,,,,,,,,,,,,,,,,,,,,,,,,,,,,,,,,,,,,,,,,,,,,,,,,,,,,,,,,Golf,2.1335,1136.7620773000008,1136.7627304000007,1136.7628391000007,1136.7772096000008,1138.9102656000005,1138.8947151000002,1138.8984171000002,1138.9102656000005,1138.9102656000005,1138.9102656000005,1138.9102656000005,1140.9103251000006,1140.9103251000006,1140.9103251000006,1140.9103251000006,1140.8947514000001,3,1.4717600000003586,0.22835140000006504,None,,,,,,,,,,,,,,,,,,,,,9210,1,2025-07-05_13h22.03.154,sm,2024.2.4,59.98141775679449,2025-07-05 13h22.43.478004 +0200,
12,0,12,,,,,,space,2.308848200000284,None,None,3,1.5597013000005973,0.25201019999985874,None,0,0,0,0,,,,,1,0,1,0,,,,,12,0,12,0,1140.9103251000006,,,,,,,,,,,,,,,,,,,,,,,,,,,,,,,,,,,,,,,,,,,,,,,,,,,,,,,,,,Schloss,2.4782,1140.8952753000003,1140.8957855000008,1140.8958924000008,1140.9103251000006,1143.3935512000007,1143.3779352000001,1143.3821839000002,1143.3935512000007,1143.3935512000007,1143.3935512000007,1143.3935512000007,1145.3939849000008,1145.3939849000008,1145.3939849000008,1145.3939849000008,1145.3775386000007,3,1.5597013000005973,0.25201019999985874,None,,,,,,,,,,,,,,,,,,,,,9210,1,2025-07-05_13h22.03.154,sm,2024.2.4,59.98141775679449,2025-07-05 13h22.43.478004 +0200,
13,0,13,,,,,,space,2.308848200000284,None,None,3,1.3063117000001512,0.22739199999978155,None,0,0,0,0,,,,,1,0,1,0,,,,,13,0,13,0,1145.3939849000008,,,,,,,,,,,,,,,,,,,,,,,,,,,,,,,,,,,,,,,,,,,,,,,,,,,,,,,,,,Film,2.505,1145.3779719000004,1145.3784487000003,1145.3785404,1145.3939849000008,1147.9098922000003,1147.8940984,1147.8978822000008,1147.9098922000003,1147.9098922000003,1147.9098922000003,1147.9098922000003,1149.9098523000002,1149.9098523000002,1149.9098523000002,1149.9098523000002,1149.8941816000006,3,1.3063117000001512,0.22739199999978155,None,,,,,,,,,,,,,,,,,,,,,9210,1,2025-07-05_13h22.03.154,sm,2024.2.4,59.98141775679449,2025-07-05 13h22.43.478004 +0200,
14,0,14,,,,,,space,2.308848200000284,None,None,3,1.7508625999998912,None,None,0,0,0,0,,,,,1,0,1,0,,,,,14,0,14,0,1149.9098523000002,,,,,,,,,,,,,,,,,,,,,,,,,,,,,,,,,,,,,,,,,,,,,,,,,,,,,,,,,,Lachen,2.9193,1149.8946976000007,1149.8953029000004,1149.8954094,1149.9098523000002,1152.8435069000006,1152.8271269000006,1152.8305970000001,1152.8435069000006,1152.8435069000006,1152.8435069000006,1152.8435069000006,1154.8427347000006,1154.8427347000006,1154.8427347000006,1154.8427347000006,1154.8273346000005,3,1.7508625999998912,None,None,,,,,,,,,,,,,,,,,,,,,9210,1,2025-07-05_13h22.03.154,sm,2024.2.4,59.98141775679449,2025-07-05 13h22.43.478004 +0200,
15,0,15,,,,,,space,2.308848200000284,None,None,3,0.7304251999994449,0.25730710000061663,None,0,0,0,0,,,,,1,0,1,0,,,,,15,0,15,0,1154.8427347000006,,,,,,,,,,,,,,,,,,,,,,,,,,,,,,,,,,,,,,,,,,,,,,,,,,,,,,,,,,Spaghetti,3.1431,1154.8278616000007,1154.8284103000005,1154.8285192000003,1154.8427347000006,1157.9926070000001,1157.9767941,1157.9805590000005,1157.9926070000001,1157.9926070000001,1157.9926070000001,1157.9926070000001,1159.9924457000006,1159.9924457000006,1159.9924457000006,1159.9924457000006,1159.9770875000004,3,0.7304251999994449,0.25730710000061663,None,,,,,,,,,,,,,,,,,,,,,9210,1,2025-07-05_13h22.03.154,sm,2024.2.4,59.98141775679449,2025-07-05 13h22.43.478004 +0200,
16,0,16,,,,,,space,2.308848200000284,None,None,3,1.2398266000000149,0.23457030000008672,None,0,0,0,0,,,,,1,0,1,0,,,,,16,0,16,0,1159.9924457000006,,,,,,,,,,,,,,,,,,,,,,,,,,,,,,,,,,,,,,,,,,,,,,,,,,,,,,,,,,Shampoo,3.3819,1159.9776084000005,1159.9782670000004,1159.9783796000002,1159.9924457000006,1163.3755191,1163.3601864000002,1163.3645116000007,1163.3755191,1163.3755191,1163.3755191,1163.3755191,1165.375599,1165.375599,1165.375599,1165.375599,1165.3600609000005,3,1.2398266000000149,0.23457030000008672,None,,,,,,,,,,,,,,,,,,,,,9210,1,2025-07-05_13h22.03.154,sm,2024.2.4,59.98141775679449,2025-07-05 13h22.43.478004 +0200,
17,0,17,,,,,,space,2.308848200000284,None,None,3,1.731917600000088,0.23013770000034128,None,0,0,0,0,,,,,1,0,1,0,,,,,17,0,17,0,1165.375599,,,,,,,,,,,,,,,,,,,,,,,,,,,,,,,,,,,,,,,,,,,,,,,,,,,,,,,,,,Ringe,4.524,1165.3605862000004,1165.3610930000004,1165.3611983,1165.375599,1169.9084385000006,1169.8931415000006,1169.8979322000005,1169.9084385000006,1169.9084385000006,1169.9084385000006,1169.9084385000006,1171.9088329000006,1171.9088329000006,1171.9088329000006,1171.9088329000006,1171.8929211000004,3,1.731917600000088,0.23013770000034128,None,,,,,,,,,,,,,,,,,,,,,9210,1,2025-07-05_13h22.03.154,sm,2024.2.4,59.98141775679449,2025-07-05 13h22.43.478004 +0200,
18,0,18,,,,,,space,2.308848200000284,None,None,3,1.7822158999997555,None,None,0,0,0,0,,,,,1,0,1,0,,,,,18,0,18,0,1171.9088329000006,,,,,,,,,,,,,,,,,,,,,,,,,,,,,,,,,,,,,,,,,,,,,,,,,,,,,,,,,,Gleis,2.0167,1171.8934474000007,1171.8939760000003,1171.8940873000001,1171.9088329000006,1173.9251955,1173.9094545000007,1173.9134831000001,1173.9251955,1173.9251955,1173.9251955,1173.9251955,1175.9250084000005,1175.9250084000005,1175.9250084000005,1175.9250084000005,1175.9094814,3,1.7822158999997555,None,None,,,,,,,,,,,,,,,,,,,,,9210,1,2025-07-05_13h22.03.154,sm,2024.2.4,59.98141775679449,2025-07-05 13h22.43.478004 +0200,
19,0,19,,,,,,space,2.308848200000284,None,None,3,1.0005205000006754,0.2667265000000043,None,0,0,0,0,,,,,1,0,1,0,,,,,19,0,19,0,1175.9250084000005,,,,,,,,,,,,,,,,,,,,,,,,,,,,,,,,,,,,,,,,,,,,,,,,,,,,,,,,,,Rot,3.0314,1175.9100017,1175.91086,1175.9109696000005,1175.9250084000005,1178.9579935000002,1178.9423737000006,1178.9458772000007,1178.9579935000002,1178.9579935000002,1178.9579935000002,1178.9579935000002,1180.9580099000004,1180.9580099000004,1180.9580099000004,1180.9580099000004,1180.9423355000008,3,1.0005205000006754,0.2667265000000043,None,,,,,,,,,,,,,,,,,,,,,9210,1,2025-07-05_13h22.03.154,sm,2024.2.4,59.98141775679449,2025-07-05 13h22.43.478004 +0200,
20,0,20,,,,,,space,2.308848200000284,None,None,3,0.8832272999998168,0.23635819999981322,None,0,0,0,0,,,,,1,0,1,0,,,,,20,0,20,0,1180.9580099000004,,,,,,,,,,,,,,,,,,,,,,,,,,,,,,,,,,,,,,,,,,,,,,,,,,,,,,,,,,Geschäft,3.3122,1180.9428623000003,1180.9433685000004,1180.9434752000006,1180.9580099000004,1184.2742558,1184.2586502000004,1184.2622074,1184.2742558,1184.2742558,1184.2742558,1184.2742558,1186.2744004000006,1186.2744004000006,1186.2744004000006,1186.2744004000006,1186.258691,3,0.8832272999998168,0.23635819999981322,None,,,,,,,,,,,,,,,,,,,,,9210,1,2025-07-05_13h22.03.154,sm,2024.2.4,59.98141775679449,2025-07-05 13h22.43.478004 +0200,
21,0,21,,,,,,space,2.308848200000284,None,None,3,0.78536239999994,0.2982190000002447,None,0,0,0,0,,,,,1,0,1,0,,,,,21,0,21,0,1186.2744004000006,,,,,,,,,,,,,,,,,,,,,,,,,,,,,,,,,,,,,,,,,,,,,,,,,,,,,,,,,,Foto,2.9657,1186.2592175,1186.2597180000002,1186.2598268000002,1186.2744004000006,1189.2415377000007,1189.2252700000008,1189.2285128000003,1189.2415377000007,1189.2415377000007,1189.2415377000007,1189.2415377000007,1191.2415978000008,1191.2415978000008,1191.2415978000008,1191.2415978000008,1191.2251192000003,3,0.78536239999994,0.2982190000002447,None,,,,,,,,,,,,,,,,,,,,,9210,1,2025-07-05_13h22.03.154,sm,2024.2.4,59.98141775679449,2025-07-05 13h22.43.478004 +0200,
22,0,22,,,,,,space,2.308848200000284,None,None,3,1.361516699999811,0.49670439999954397,None,0,0,0,0,,,,,1,0,1,0,,,,,22,0,22,0,1191.2415978000008,,,,,,,,,,,,,,,,,,,,,,,,,,,,,,,,,,,,,,,,,,,,,,,,,,,,,,,,,,Vergangenheit,3.3735,1191.2256377000003,1191.226283,1191.2263888000007,1191.2415978000008,1194.6234839000008,1194.6081423000005,1194.6119207000002,1194.6234839000008,1194.6234839000008,1194.6234839000008,1194.6234839000008,1196.6237086,1196.6237086,1196.6237086,1196.6237086,1196.6081777000009,3,1.361516699999811,0.49670439999954397,None,,,,,,,,,,,,,,,,,,,,,9210,1,2025-07-05_13h22.03.154,sm,2024.2.4,59.98141775679449,2025-07-05 13h22.43.478004 +0200,
23,0,23,,,,,,space,2.308848200000284,None,None,3,1.0929081999993286,0.31358040000031906,None,0,0,0,0,,,,,1,0,1,0,,,,,23,0,23,0,1196.6237086,,,,,,,,,,,,,,,,,,,,,,,,,,,,,,,,,,,,,,,,,,,,,,,,,,,,,,,,,,Nummer,2.7646,1196.6087031000006,1196.6092227000008,1196.6093302000008,1196.6237086,1199.3904249000007,1199.3744956,1199.3783018000004,1199.3904249000007,1199.3904249000007,1199.3904249000007,1199.3904249000007,1201.3901598000002,1201.3901598000002,1201.3901598000002,1201.3901598000002,1201.3746327000008,3,1.0929081999993286,0.31358040000031906,None,,,,,,,,,,,,,,,,,,,,,9210,1,2025-07-05_13h22.03.154,sm,2024.2.4,59.98141775679449,2025-07-05 13h22.43.478004 +0200,
24,0,24,,,,,,space,2.308848200000284,None,None,3,1.3183305000002292,0.2383719999997993,None,0,0,0,0,,,,,1,0,1,0,,,,,24,0,24,0,1201.3901598000002,,,,,,,,,,,,,,,,,,,,,,,,,,,,,,,,,,,,,,,,,,,,,,,,,,,,,,,,,,Fahrrad,3.5904,1201.3751574000007,1201.3756710000007,1201.3757781000004,1201.3901598000002,1204.9898933000004,1204.9741395,1204.9787573000003,1204.9898933000004,1204.9898933000004,1204.9898933000004,1204.9898933000004,1206.9898143,1206.9898143,1206.9898143,1206.9898143,1206.9742057000003,3,1.3183305000002292,0.2383719999997993,None,,,,,,,,,,,,,,,,,,,,,9210,1,2025-07-05_13h22.03.154,sm,2024.2.4,59.98141775679449,2025-07-05 13h22.43.478004 +0200,
25,0,25,,,,,,space,2.308848200000284,None,None,3,1.2601009999998496,0.29494960000010906,None,0,0,0,0,,,,,1,0,1,0,,,,,25,0,25,0,1206.9898143,,,,,,,,,,,,,,,,,,,,,,,,,,,,,,,,,,,,,,,,,,,,,,,,,,,,,,,,,,Sumpf,2.3908,1206.9747290000005,1206.9754935,1206.9755999000008,1206.9898143,1209.3897424000006,1209.3743867000003,1209.3785484,1209.3897424000006,1209.3897424000006,1209.3897424000006,1209.3897424000006,1211.3901146000007,1211.3901146000007,1211.3901146000007,1211.3901146000007,1211.3740371000004,3,1.2601009999998496,0.29494960000010906,None,,,,,,,,,,,,,,,,,,,,,9210,1,2025-07-05_13h22.03.154,sm,2024.2.4,59.98141775679449,2025-07-05 13h22.43.478004 +0200,
26,0,26,,,,,,space,2.308848200000284,None,None,3,1.4396143000003576,0.19383119999929477,None,0,0,0,0,,,,,1,0,1,0,,,,,26,0,26,0,1211.3901146000007,,,,,,,,,,,,,,,,,,,,,,,,,,,,,,,,,,,,,,,,,,,,,,,,,,,,,,,,,,Kante,2.7162,1211.3745652000007,1211.3751418000002,1211.37525,1211.3901146000007,1214.1061817,1214.0907756000006,1214.0947964000006,1214.1061817,1214.1061817,1214.1061817,1214.1061817,1216.1066452000005,1216.1066452000005,1216.1066452000005,1216.1066452000005,1216.0904182000004,3,1.4396143000003576,0.19383119999929477,None,,,,,,,,,,,,,,,,,,,,,9210,1,2025-07-05_13h22.03.154,sm,2024.2.4,59.98141775679449,2025-07-05 13h22.43.478004 +0200,
27,0,27,,,,,,space,2.308848200000284,None,None,2,1.0743122000003495,0.2018365999992966,None,0,0,0,0,,,,,1,0,1,0,,,,,27,0,27,0,1216.1066452000005,,,,,,,,,,,,,,,,,,,,,,,,,,,,,,,,,,,,,,,,,,,,,,,,,,,,,,,,,,Eltern,2.2036,1216.0909498,1216.0914853000004,1216.0915907000008,1216.1066452000005,1218.3229209,1218.3073013000003,1218.3114030000006,1218.3229209,1218.3229209,1218.3229209,1218.3229209,1220.3224997000007,1220.3224997000007,1220.3224997000007,1220.3224997000007,1220.3066992000004,2,1.0743122000003495,0.2018365999992966,None,,,,,,,,,,,,,,,,,,,,,9210,1,2025-07-05_13h22.03.154,sm,2024.2.4,59.98141775679449,2025-07-05 13h22.43.478004 +0200,
28,0,28,,,,,,space,2.308848200000284,None,None,3,1.345943599999373,0.19703019999997196,None,0,0,0,0,,,,,1,0,1,0,,,,,28,0,28,0,1220.3224997000007,,,,,,,,,,,,,,,,,,,,,,,,,,,,,,,,,,,,,,,,,,,,,,,,,,,,,,,,,,Feier,2.4637,1220.3072229000009,1220.3077404000005,1220.3078481000002,1220.3224997000007,1222.7888644000004,1222.7732273000001,1222.7774268000003,1222.7888644000004,1222.7888644000004,1222.7888644000004,1222.7888644000004,1224.7889165000006,1224.7889165000006,1224.7889165000006,1224.7889165000006,1224.7735579,3,1.345943599999373,0.19703019999997196,None,,,,,,,,,,,,,,,,,,,,,9210,1,2025-07-05_13h22.03.154,sm,2024.2.4,59.98141775679449,2025-07-05 13h22.43.478004 +0200,
29,0,29,,,,,,space,2.308848200000284,None,None,2,1.594861999999921,0.2004694000006566,None,0,0,0,0,,,,,1,0,1,0,,,,,29,0,29,0,1224.7889165000006,,,,,,,,,,,,,,,,,,,,,,,,,,,,,,,,,,,,,,,,,,,,,,,,,,,,,,,,,,Vampir,4.5641,1224.7741061000006,1224.7747041000002,1224.7748175000006,1224.7889165000006,1229.3549562000007,1229.3398883,1229.3436214000003,1229.3549562000007,1229.3549562000007,1229.3549562000007,1229.3549562000007,1231.3553954000008,1231.3553954000008,1231.3553954000008,1231.3553954000008,1231.3394814000003,2,1.594861999999921,0.2004694000006566,None,,,,,,,,,,,,,,,,,,,,,9210,1,2025-07-05_13h22.03.154,sm,2024.2.4,59.98141775679449,2025-07-05 13h22.43.478004 +0200,
30,0,30,,,,,,space,2.308848200000284,None,None,3,1.3487821999997323,0.2326559000002817,None,0,0,0,0,,,,,1,0,1,0,,,,,30,0,30,0,1231.3553954000008,,,,,,,,,,,,,,,,,,,,,,,,,,,,,,,,,,,,,,,,,,,,,,,,,,,,,,,,,,Rebe,2.7823,1231.3400070000007,1231.3405309,1231.3406381000004,1231.3553954000008,1234.1381804000002,1234.1230475000002,1234.1267221000007,1234.1381804000002,1234.1381804000002,1234.1381804000002,1234.1381804000002,1236.1384081000006,1236.1384081000006,1236.1384081000006,1236.1384081000006,1236.1225847000005,3,1.3487821999997323,0.2326559000002817,None,,,,,,,,,,,,,,,,,,,,,9210,1,2025-07-05_13h22.03.154,sm,2024.2.4,59.98141775679449,2025-07-05 13h22.43.478004 +0200,
31,0,31,,,,,,space,2.308848200000284,None,None,3,0.9768777999997837,0.23851290000038716,None,0,0,0,0,,,,,1,0,1,0,,,,,31,0,31,0,1236.1384081000006,,,,,,,,,,,,,,,,,,,,,,,,,,,,,,,,,,,,,,,,,,,,,,,,,,,,,,,,,,Fuß,2.8207,1236.1231096000001,1236.1237606000004,1236.1238715000009,1236.1384081000006,1238.9711956,1238.9555712000001,1238.9608022000002,1238.9711956,1238.9711956,1238.9711956,1238.9711956,1240.9715194,1240.9715194,1240.9715194,1240.9715194,1240.9561176000007,3,0.9768777999997837,0.23851290000038716,None,,,,,,,,,,,,,,,,,,,,,9210,1,2025-07-05_13h22.03.154,sm,2024.2.4,59.98141775679449,2025-07-05 13h22.43.478004 +0200,
32,0,32,,,,,,space,2.308848200000284,None,None,3,0.9095203999995647,0.2566271000005145,None,0,0,0,0,,,,,1,0,1,0,,,,,32,0,32,0,1240.9715194,,,,,,,,,,,,,,,,,,,,,,,,,,,,,,,,,,,,,,,,,,,,,,,,,,,,,,,,,,Essen,2.3147,1240.9566533000007,1240.9573415000004,1240.9574547000002,1240.9715194,1243.2877617000004,1243.2718756000004,1243.2753748000005,1243.2877617000004,1243.2877617000004,1243.2877617000004,1243.2877617000004,1245.2876566000004,1245.2876566000004,1245.2876566000004,1245.2876566000004,1245.2720123000008,3,0.9095203999995647,0.2566271000005145,None,,,,,,,,,,,,,,,,,,,,,9210,1,2025-07-05_13h22.03.154,sm,2024.2.4,59.98141775679449,2025-07-05 13h22.43.478004 +0200,
33,0,33,,,,,,space,2.308848200000284,None,None,3,1.010187799999585,0.2828693999999814,None,0,0,0,0,,,,,1,0,1,0,,,,,33,0,33,0,1245.2876566000004,,,,,,,,,,,,,,,,,,,,,,,,,,,,,,,,,,,,,,,,,,,,,,,,,,,,,,,,,,Keller,2.7072,1245.2725388000008,1245.2730567000008,1245.2731639000003,1245.2876566000004,1248.0039907,1247.9885924,1247.9924685000005,1248.0039907,1248.0039907,1248.0039907,1248.0039907,1250.0040239,1250.0040239,1250.0040239,1250.0040239,1249.9882729,3,1.010187799999585,0.2828693999999814,None,,,,,,,,,,,,,,,,,,,,,9210,1,2025-07-05_13h22.03.154,sm,2024.2.4,59.98141775679449,2025-07-05 13h22.43.478004 +0200,
34,0,34,,,,,,space,2.308848200000284,None,None,3,1.4661827999998422,0.2284296000007089,None,0,0,0,0,,,,,1,0,1,0,,,,,34,0,34,0,1250.0040239,,,,,,,,,,,,,,,,,,,,,,,,,,,,,,,,,,,,,,,,,,,,,,,,,,,,,,,,,,Schnee,2.3335,1249.9887421000003,1249.9892300000001,1249.9893309000008,1250.0040239,1252.3372404000002,1252.3217664000003,1252.3258924000002,1252.3372404000002,1252.3372404000002,1252.3372404000002,1252.3372404000002,1254.3372142000007,1254.3372142000007,1254.3372142000007,1254.3372142000007,1254.3215855000008,3,1.4661827999998422,0.2284296000007089,None,,,,,,,,,,,,,,,,,,,,,9210,1,2025-07-05_13h22.03.154,sm,2024.2.4,59.98141775679449,2025-07-05 13h22.43.478004 +0200,
35,0,35,,,,,,space,2.308848200000284,None,None,3,0.8849228999997649,0.23438650000025518,None,0,0,0,0,,,,,1,0,1,0,,,,,35,0,35,0,1254.3372142000007,,,,,,,,,,,,,,,,,,,,,,,,,,,,,,,,,,,,,,,,,,,,,,,,,,,,,,,,,,Tisch,2.4423,1254.3221034000007,1254.3227633000006,1254.3228716000003,1254.3372142000007,1256.7868728000003,1256.7713421000008,1256.7747477000003,1256.7868728000003,1256.7868728000003,1256.7868728000003,1256.7868728000003,1258.7869018000001,1258.7869018000001,1258.7869018000001,1258.7869018000001,1258.7713240000003,3,0.8849228999997649,0.23438650000025518,None,,,,,,,,,,,,,,,,,,,,,9210,1,2025-07-05_13h22.03.154,sm,2024.2.4,59.98141775679449,2025-07-05 13h22.43.478004 +0200,
36,0,36,,,,,,space,2.308848200000284,None,None,3,1.2013723999998547,0.2098734000001059,None,0,0,0,0,,,,,1,0,1,0,,,,,36,0,36,0,1258.7869018000001,,,,,,,,,,,,,,,,,,,,,,,,,,,,,,,,,,,,,,,,,,,,,,,,,,,,,,,,,,Kapitel,2.8816,1258.7718490000007,1258.7725154,1258.7726232000005,1258.7869018000001,1261.6700219000004,1261.6544562000008,1261.6587639000008,1261.6700219000004,1261.6700219000004,1261.6700219000004,1261.6700219000004,1263.6699359000004,1263.6699359000004,1263.6699359000004,1263.6699359000004,1263.6548579,3,1.2013723999998547,0.2098734000001059,None,,,,,,,,,,,,,,,,,,,,,9210,1,2025-07-05_13h22.03.154,sm,2024.2.4,59.98141775679449,2025-07-05 13h22.43.478004 +0200,
37,0,37,,,,,,space,2.308848200000284,None,None,3,0.913582199999837,0.2300265000003492,None,0,0,0,0,,,,,1,0,1,0,,,,,37,0,37,0,1263.6699359000004,,,,,,,,,,,,,,,,,,,,,,,,,,,,,,,,,,,,,,,,,,,,,,,,,,,,,,,,,,Atem,4.0159,1263.6553811000003,1263.6560271000008,1263.6561340000007,1263.6699359000004,1267.6862788000008,1267.6704509,1267.6734572000005,1267.6862788000008,1267.6862788000008,1267.6862788000008,1267.6862788000008,1269.6865550000002,1269.6865550000002,1269.6865550000002,1269.6865550000002,1269.6707512000003,3,0.913582199999837,0.2300265000003492,None,,,,,,,,,,,,,,,,,,,,,9210,1,2025-07-05_13h22.03.154,sm,2024.2.4,59.98141775679449,2025-07-05 13h22.43.478004 +0200,
38,0,38,,,,,,space,2.308848200000284,None,None,3,1.4405662000008306,0.2453336999997191,None,0,0,0,0,,,,,1,0,1,0,,,,,38,0,38,0,1269.6865550000002,,,,,,,,,,,,,,,,,,,,,,,,,,,,,,,,,,,,,,,,,,,,,,,,,,,,,,,,,,Erbe,4.2763,1269.6712785,1269.6718015000006,1269.6719089000007,1269.6865550000002,1273.9692831000002,1273.9536871,1273.9575587000008,1273.9692831000002,1273.9692831000002,1273.9692831000002,1273.9692831000002,1275.9691907000006,1275.9691907000006,1275.9691907000006,1275.9691907000006,1275.9540442000007,3,1.4405662000008306,0.2453336999997191,None,,,,,,,,,,,,,,,,,,,,,9210,1,2025-07-05_13h22.03.154,sm,2024.2.4,59.98141775679449,2025-07-05 13h22.43.478004 +0200,
39,0,39,,,,,,space,2.308848200000284,None,None,2,1.324083900000005,0.27619659999982105,None,0,0,0,0,,,,,1,0,1,0,,,,,39,0,39,0,1275.9691907000006,,,,,,,,,,,,,,,,,,,,,,,,,,,,,,,,,,,,,,,,,,,,,,,,,,,,,,,,,,Tischler,2.8166,1275.9545655000002,1275.9552170000006,1275.9553254000002,1275.9691907000006,1278.7856702000008,1278.7700090000008,1278.7738624000003,1278.7856702000008,1278.7856702000008,1278.7856702000008,1278.7856702000008,1280.7857505000002,1280.7857505000002,1280.7857505000002,1280.7857505000002,1280.770042,2,1.324083900000005,0.27619659999982105,None,,,,,,,,,,,,,,,,,,,,,9210,1,2025-07-05_13h22.03.154,sm,2024.2.4,59.98141775679449,2025-07-05 13h22.43.478004 +0200,
40,0,40,,,,,,space,2.308848200000284,None,None,3,0.9569240999999238,0.25022160000025906,None,0,0,0,0,,,,,1,0,1,0,,,,,40,0,40,0,1280.7857505000002,,,,,,,,,,,,,,,,,,,,,,,,,,,,,,,,,,,,,,,,,,,,,,,,,,,,,,,,,,Trennung,4.9421,1280.7705718000007,1280.7710915000007,1280.7712000000001,1280.7857505000002,1285.7351723000002,1285.7194304000004,1285.7229511000005,1285.7351723000002,1285.7351723000002,1285.7351723000002,1285.7351723000002,1287.7357309000008,1287.7357309000008,1287.7357309000008,1287.7357309000008,1287.7196798000004,3,0.9569240999999238,0.25022160000025906,None,,,,,,,,,,,,,,,,,,,,,9210,1,2025-07-05_13h22.03.154,sm,2024.2.4,59.98141775679449,2025-07-05 13h22.43.478004 +0200,
41,0,41,,,,,,space,2.308848200000284,None,None,3,1.5169625999997152,None,None,0,0,0,0,,,,,1,0,1,0,,,,,41,0,41,0,1287.7357309000008,,,,,,,,,,,,,,,,,,,,,,,,,,,,,,,,,,,,,,,,,,,,,,,,,,,,,,,,,,Ozean,2.7383,1287.7202064000003,1287.7207112000006,1287.7208179000008,1287.7357309000008,1290.4849674000006,1290.4693221000007,1290.4730194000003,1290.4849674000006,1290.4849674000006,1290.4849674000006,1290.4849674000006,1292.4850265000005,1292.4850265000005,1292.4850265000005,1292.4850265000005,1292.4695607000003,3,1.5169625999997152,None,None,,,,,,,,,,,,,,,,,,,,,9210,1,2025-07-05_13h22.03.154,sm,2024.2.4,59.98141775679449,2025-07-05 13h22.43.478004 +0200,
42,0,42,,,,,,space,2.308848200000284,None,None,3,0.7050807999994504,0.26785300000028656,None,0,0,0,0,,,,,1,0,1,0,,,,,42,0,42,0,1292.4850265000005,,,,,,,,,,,,,,,,,,,,,,,,,,,,,,,,,,,,,,,,,,,,,,,,,,,,,,,,,,Farbe,2.3384,1292.4700853000004,1292.4706493000003,1292.4707561000005,1292.4850265000005,1294.8346741000005,1294.8191107000002,1294.8228722000003,1294.8346741000005,1294.8346741000005,1294.8346741000005,1294.8346741000005,1296.8346276000002,1296.8346276000002,1296.8346276000002,1296.8346276000002,1296.8191248000003,3,0.7050807999994504,0.26785300000028656,None,,,,,,,,,,,,,,,,,,,,,9210,1,2025-07-05_13h22.03.154,sm,2024.2.4,59.98141775679449,2025-07-05 13h22.43.478004 +0200,
43,0,43,,,,,,space,2.308848200000284,None,None,3,1.1173713999996835,0.26735220000045956,None,0,0,0,0,,,,,1,0,1,0,,,,,43,0,43,0,1296.8346276000002,,,,,,,,,,,,,,,,,,,,,,,,,,,,,,,,,,,,,,,,,,,,,,,,,,,,,,,,,,Finger,2.6612,1296.8196559000007,1296.8201750000007,1296.8202833000005,1296.8346276000002,1299.5008771000003,1299.4853727,1299.4888437,1299.5008771000003,1299.5008771000003,1299.5008771000003,1299.5008771000003,1301.5012933000007,1301.5012933000007,1301.5012933000007,1301.5012933000007,1301.4860004000002,3,1.1173713999996835,0.26735220000045956,None,,,,,,,,,,,,,,,,,,,,,9210,1,2025-07-05_13h22.03.154,sm,2024.2.4,59.98141775679449,2025-07-05 13h22.43.478004 +0200,
44,0,44,,,,,,space,2.308848200000284,None,None,3,1.0320591999998214,0.28120080000007874,None,0,0,0,0,,,,,1,0,1,0,,,,,44,0,44,0,1301.5012933000007,,,,,,,,,,,,,,,,,,,,,,,,,,,,,,,,,,,,,,,,,,,,,,,,,,,,,,,,,,Feuer,2.4576,1301.4865505000007,1301.4871668000005,1301.4873285000003,1301.5012933000007,1303.9675476000002,1303.9525645000003,1303.9562742000007,1303.9675476000002,1303.9675476000002,1303.9675476000002,1303.9675476000002,1305.9675055000007,1305.9675055000007,1305.9675055000007,1305.9675055000007,1305.9522885000006,3,1.0320591999998214,0.28120080000007874,None,,,,,,,,,,,,,,,,,,,,,9210,1,2025-07-05_13h22.03.154,sm,2024.2.4,59.98141775679449,2025-07-05 13h22.43.478004 +0200,
45,0,45,,,,,,space,2.308848200000284,None,None,3,1.234541800000443,0.31800600000042323,None,0,0,0,0,,,,,1,0,1,0,,,,,45,0,45,0,1305.9675055000007,,,,,,,,,,,,,,,,,,,,,,,,,,,,,,,,,,,,,,,,,,,,,,,,,,,,,,,,,,Juwel,2.1177,1305.9528107000006,1305.9533329000005,1305.9534416000006,1305.9675055000007,1308.1005865000006,1308.0852619000007,1308.0927264000002,1308.1005865000006,1308.1005865000006,1308.1005865000006,1308.1005865000006,1310.1009454000005,1310.1009454000005,1310.1009454000005,1310.1009454000005,1310.0850068,3,1.234541800000443,0.31800600000042323,None,,,,,,,,,,,,,,,,,,,,,9210,1,2025-07-05_13h22.03.154,sm,2024.2.4,59.98141775679449,2025-07-05 13h22.43.478004 +0200,
46,0,46,,,,,,space,2.308848200000284,None,None,3,1.1829795000003287,0.2652539999999135,None,0,0,0,0,,,,,1,0,1,0,,,,,46,0,46,0,1310.1009454000005,,,,,,,,,,,,,,,,,,,,,,,,,,,,,,,,,,,,,,,,,,,,,,,,,,,,,,,,,,Augen,2.2125,1310.0854983000008,1310.0859963000003,1310.0860970000003,1310.1009454000005,1312.3170769000008,1312.3013981000004,1312.3049423000002,1312.3170769000008,1312.3170769000008,1312.3170769000008,1312.3170769000008,1314.3175735000004,1314.3175735000004,1314.3175735000004,1314.3175735000004,1314.3015215000005,3,1.1829795000003287,0.2652539999999135,None,,,,,,,,,,,,,,,,,,,,,9210,1,2025-07-05_13h22.03.154,sm,2024.2.4,59.98141775679449,2025-07-05 13h22.43.478004 +0200,
47,0,47,,,,,,space,2.308848200000284,None,None,3,1.641438200000266,0.26526339999963966,None,0,0,0,0,,,,,1,0,1,0,,,,,47,0,47,0,1314.3175735000004,,,,,,,,,,,,,,,,,,,,,,,,,,,,,,,,,,,,,,,,,,,,,,,,,,,,,,,,,,Trocken,4.0524,1314.3020447000008,1314.3026939000001,1314.3027978,1314.3175735000004,1318.3834117000006,1318.3676580000001,1318.3711442000003,1318.3834117000006,1318.3834117000006,1318.3834117000006,1318.3834117000006,1320.3838250000008,1320.3838250000008,1320.3838250000008,1320.3838250000008,1320.3680068000003,3,1.641438200000266,0.26526339999963966,None,,,,,,,,,,,,,,,,,,,,,9210,1,2025-07-05_13h22.03.154,sm,2024.2.4,59.98141775679449,2025-07-05 13h22.43.478004 +0200,
48,0,48,,,,,,space,2.308848200000284,None,None,3,1.344960500000525,0.23275740000008227,None,0,0,0,0,,,,,1,0,1,0,,,,,48,0,48,0,1320.3838250000008,,,,,,,,,,,,,,,,,,,,,,,,,,,,,,,,,,,,,,,,,,,,,,,,,,,,,,,,,,Urlaub,3.6403,1320.3685349000007,1320.3690489,1320.3691580000004,1320.3838250000008,1324.0340132000001,1324.0178434000009,1324.0223477,1324.0340132000001,1324.0340132000001,1324.0340132000001,1324.0340132000001,1326.0329883000004,1326.0329883000004,1326.0329883000004,1326.0329883000004,1326.0175239,3,1.344960500000525,0.23275740000008227,None,,,,,,,,,,,,,,,,,,,,,9210,1,2025-07-05_13h22.03.154,sm,2024.2.4,59.98141775679449,2025-07-05 13h22.43.478004 +0200,
49,0,49,,,,,,space,2.308848200000284,None,None,3,1.6131945000006453,0.24234729999989213,None,0,0,0,0,,,,,1,0,1,0,,,,,49,0,49,0,1326.0329883000004,,,,,,,,,,,,,,,,,,,,,,,,,,,,,,,,,,,,,,,,,,,,,,,,,,,,,,,,,,Bildung,3.0376,1326.0180889000003,1326.0186127000006,1326.0187209000005,1326.0329883000004,1329.0831666000004,1329.0674177,1329.0715677000007,1329.0831666000004,1329.0831666000004,1329.0831666000004,1329.0831666000004,1331.0828940000001,1331.0828940000001,1331.0828940000001,1331.0828940000001,1331.0671776000008,3,1.6131945000006453,0.24234729999989213,None,,,,,,,,,,,,,,,,,,,,,9210,1,2025-07-05_13h22.03.154,sm,2024.2.4,59.98141775679449,2025-07-05 13h22.43.478004 +0200,
50,0,50,,,,,,space,2.308848200000284,None,None,3,1.637901499999316,0.24629730000015115,None,0,0,0,0,,,,,1,0,1,0,,,,,50,0,50,0,1331.0828940000001,,,,,,,,,,,,,,,,,,,,,,,,,,,,,,,,,,,,,,,,,,,,,,,,,,,,,,,,,,Bad,3.1528,1331.0677034,1331.0682085000008,1331.0683152000001,1331.0828940000001,1334.2491445000005,1334.2334757000008,1334.2364743000007,1334.2491445000005,1334.2491445000005,1334.2491445000005,1334.2491445000005,1336.2491592000006,1336.2491592000006,1336.2491592000006,1336.2491592000006,1336.2335129000003,3,1.637901499999316,0.24629730000015115,None,,,,,,,,,,,,,,,,,,,,,9210,1,2025-07-05_13h22.03.154,sm,2024.2.4,59.98141775679449,2025-07-05 13h22.43.478004 +0200,
51,0,51,,,,,,space,2.308848200000284,None,None,3,1.65551989999949,0.22650900000007823,None,0,0,0,0,,,,,1,0,1,0,,,,,51,0,51,0,1336.2491592000006,,,,,,,,,,,,,,,,,,,,,,,,,,,,,,,,,,,,,,,,,,,,,,,,,,,,,,,,,,Service,2.5195,1336.2340488,1336.2346273000003,1336.2347337,1336.2491592000006,1338.782298,1338.7666816,1338.7714242000002,1338.782298,1338.782298,1338.782298,1338.782298,1340.7823035000001,1340.7823035000001,1340.7823035000001,1340.7823035000001,1340.7667983000001,3,1.65551989999949,0.22650900000007823,None,,,,,,,,,,,,,,,,,,,,,9210,1,2025-07-05_13h22.03.154,sm,2024.2.4,59.98141775679449,2025-07-05 13h22.43.478004 +0200,
52,0,52,,,,,,space,2.308848200000284,None,None,3,1.0798387999993793,0.23178980000011506,None,0,0,0,0,,,,,1,0,1,0,,,,,52,0,52,0,1340.7823035000001,,,,,,,,,,,,,,,,,,,,,,,,,,,,,,,,,,,,,,,,,,,,,,,,,,,,,,,,,,Sitzgurt,3.3206,1340.7673207000007,1340.7678671000003,1340.7679738000006,1340.7823035000001,1344.1154058000002,1344.0995678000008,1344.1034501000004,1344.1154058000002,1344.1154058000002,1344.1154058000002,1344.1154058000002,1346.1152517,1346.1152517,1346.1152517,1346.1152517,1346.0998004000003,3,1.0798387999993793,0.23178980000011506,None,,,,,,,,,,,,,,,,,,,,,9210,1,2025-07-05_13h22.03.154,sm,2024.2.4,59.98141775679449,2025-07-05 13h22.43.478004 +0200,
53,0,53,,,,,,space,2.308848200000284,None,None,3,1.0268099999993865,0.2527036000001317,None,0,0,0,0,,,,,1,0,1,0,,,,,53,0,53,0,1346.1152517,,,,,,,,,,,,,,,,,,,,,,,,,,,,,,,,,,,,,,,,,,,,,,,,,,,,,,,,,,Rasen,3.4769,1346.1003302000008,1346.1009027,1346.1010136000004,1346.1152517,1349.5983118000004,1349.5831566000006,1349.5873324000004,1349.5983118000004,1349.5983118000004,1349.5983118000004,1349.5983118000004,1351.598387,1351.598387,1351.598387,1351.598387,1351.5828648000006,3,1.0268099999993865,0.2527036000001317,None,,,,,,,,,,,,,,,,,,,,,9210,1,2025-07-05_13h22.03.154,sm,2024.2.4,59.98141775679449,2025-07-05 13h22.43.478004 +0200,
54,0,54,,,,,,space,2.308848200000284,None,None,3,1.1097964999999022,0.2518376000007265,None,0,0,0,0,,,,,1,0,1,0,,,,,54,0,54,0,1351.598387,,,,,,,,,,,,,,,,,,,,,,,,,,,,,,,,,,,,,,,,,,,,,,,,,,,,,,,,,,Blätter,3.5116,1351.5833898,1351.5839159000006,1351.5840258000007,1351.598387,1355.1146231000002,1355.0990289000001,1355.1025660000005,1355.1146231000002,1355.1146231000002,1355.1146231000002,1355.1146231000002,1357.1146386,1357.1146386,1357.1146386,1357.1146386,1357.0990246000001,3,1.1097964999999022,0.2518376000007265,None,,,,,,,,,,,,,,,,,,,,,9210,1,2025-07-05_13h22.03.154,sm,2024.2.4,59.98141775679449,2025-07-05 13h22.43.478004 +0200,
55,0,55,,,,,,space,2.308848200000284,None,None,3,0.8157830999998623,0.3040210000008301,None,0,0,0,0,,,,,1,0,1,0,,,,,55,0,55,0,1357.1146386,,,,,,,,,,,,,,,,,,,,,,,,,,,,,,,,,,,,,,,,,,,,,,,,,,,,,,,,,,Gewürz,2.0819,1357.0995491000003,1357.1000835000004,1357.1001912000002,1357.1146386,1359.1976438000002,1359.1821521000002,1359.1861497,1359.1976438000002,1359.1976438000002,1359.1976438000002,1359.1976438000002,1361.1977691000002,1361.1977691000002,1361.1977691000002,1361.1977691000002,1361.1822552000003,3,0.8157830999998623,0.3040210000008301,None,,,,,,,,,,,,,,,,,,,,,9210,1,2025-07-05_13h22.03.154,sm,2024.2.4,59.98141775679449,2025-07-05 13h22.43.478004 +0200,
56,0,56,,,,,,space,2.308848200000284,None,None,3,1.62896499999988,0.24928360000012617,None,0,0,0,0,,,,,1,0,1,0,,,,,56,0,56,0,1361.1977691000002,,,,,,,,,,,,,,,,,,,,,,,,,,,,,,,,,,,,,,,,,,,,,,,,,,,,,,,,,,Bürste,2.4828,1361.1827805000003,1361.1832967,1361.1834047000002,1361.1977691000002,1363.6808368000002,1363.6653897000006,1363.6695292000004,1363.6808368000002,1363.6808368000002,1363.6808368000002,1363.6808368000002,1365.6810108,1365.6810108,1365.6810108,1365.6810108,1365.6657971000004,3,1.62896499999988,0.24928360000012617,None,,,,,,,,,,,,,,,,,,,,,9210,1,2025-07-05_13h22.03.154,sm,2024.2.4,59.98141775679449,2025-07-05 13h22.43.478004 +0200,
57,0,57,,,,,,space,2.308848200000284,None,None,3,0.9501882000004116,0.31624339999962103,None,0,0,0,0,,,,,1,0,1,0,,,,,57,0,57,0,1365.6810108,,,,,,,,,,,,,,,,,,,,,,,,,,,,,,,,,,,,,,,,,,,,,,,,,,,,,,,,,,Zeitung,2.8995,1365.6663188000002,1365.6668285000005,1365.6669363,1365.6810108,1368.5806681000004,1368.5648459000004,1368.5684824,1368.5806681000004,1368.5806681000004,1368.5806681000004,1368.5806681000004,1370.5808847000008,1370.5808847000008,1370.5808847000008,1370.5808847000008,1370.5647390000004,3,0.9501882000004116,0.31624339999962103,None,,,,,,,,,,,,,,,,,,,,,9210,1,2025-07-05_13h22.03.154,sm,2024.2.4,59.98141775679449,2025-07-05 13h22.43.478004 +0200,
58,0,58,,,,,,space,2.308848200000284,None,None,3,1.7892699000003631,None,None,0,0,0,0,,,,,1,0,1,0,,,,,58,0,58,0,1370.5808847000008,,,,,,,,,,,,,,,,,,,,,,,,,,,,,,,,,,,,,,,,,,,,,,,,,,,,,,,,,,Sendung,2.8906,1370.5651968000002,1370.5657626000002,1370.5658581000007,1370.5808847000008,1373.4803583000003,1373.4646924000008,1373.4696708000001,1373.4803583000003,1373.4803583000003,1373.4803583000003,1373.4803583000003,1375.4803466000003,1375.4803466000003,1375.4803466000003,1375.4803466000003,1375.4647713000004,3,1.7892699000003631,None,None,,,,,,,,,,,,,,,,,,,,,9210,1,2025-07-05_13h22.03.154,sm,2024.2.4,59.98141775679449,2025-07-05 13h22.43.478004 +0200,
59,0,59,,,,,,space,2.308848200000284,None,None,3,0.8678649999992558,0.24934190000021772,None,0,0,0,0,,,,,1,0,1,0,,,,,59,0,59,0,1375.4803466000003,,,,,,,,,,,,,,,,,,,,,,,,,,,,,,,,,,,,,,,,,,,,,,,,,,,,,,,,,,Mappe,2.8777,1375.4652974,1375.4659835000002,1375.4660905,1375.4803466000003,1378.3630594000006,1378.3478125000001,1378.3514738000003,1378.3630594000006,1378.3630594000006,1378.3630594000006,1378.3630594000006,1380.3637494000004,1380.3637494000004,1380.3637494000004,1380.3637494000004,1380.3480063000006,3,0.8678649999992558,0.24934190000021772,None,,,,,,,,,,,,,,,,,,,,,9210,1,2025-07-05_13h22.03.154,sm,2024.2.4,59.98141775679449,2025-07-05 13h22.43.478004 +0200,
60,0,60,,,,,,space,2.308848200000284,None,None,3,1.3804560999997193,0.4158446000001277,None,0,0,0,0,,,,,1,0,1,0,,,,,60,0,60,0,1380.3637494000004,,,,,,,,,,,,,,,,,,,,,,,,,,,,,,,,,,,,,,,,,,,,,,,,,,,,,,,,,,Geschmack,4.3532,1380.3485634000008,1380.3490691000006,1380.3491778000007,1380.3637494000004,1384.7298319000001,1384.7144634000006,1384.7187371,1384.7298319000001,1384.7298319000001,1384.7298319000001,1384.7298319000001,1386.7296958000006,1386.7296958000006,1386.7296958000006,1386.7296958000006,1386.7139857000002,3,1.3804560999997193,0.4158446000001277,None,,,,,,,,,,,,,,,,,,,,,9210,1,2025-07-05_13h22.03.154,sm,2024.2.4,59.98141775679449,2025-07-05 13h22.43.478004 +0200,
61,0,61,,,,,,space,2.308848200000284,None,None,3,1.0125655000001643,0.2385783999998239,None,0,0,0,0,,,,,1,0,1,0,,,,,61,0,61,0,1386.7296958000006,,,,,,,,,,,,,,,,,,,,,,,,,,,,,,,,,,,,,,,,,,,,,,,,,,,,,,,,,,Beine,2.2712,1386.7145114000004,1386.7150185,1386.7151280000007,1386.7296958000006,1389.0127902000004,1388.9977631000002,1389.0010964000003,1389.0127902000004,1389.0127902000004,1389.0127902000004,1389.0127902000004,1391.0127434000005,1391.0127434000005,1391.0127434000005,1391.0127434000005,1390.9971699000007,3,1.0125655000001643,0.2385783999998239,None,,,,,,,,,,,,,,,,,,,,,9210,1,2025-07-05_13h22.03.154,sm,2024.2.4,59.98141775679449,2025-07-05 13h22.43.478004 +0200,
62,0,62,,,,,,space,2.308848200000284,None,None,2,0.7987053999995624,0.2201113000000987,None,0,0,0,0,,,,,1,0,1,0,,,,,62,0,62,0,1391.0127434000005,,,,,,,,,,,,,,,,,,,,,,,,,,,,,,,,,,,,,,,,,,,,,,,,,,,,,,,,,,Leute,3.0263,1390.9976858,1390.9983739000008,1390.9984785000006,1391.0127434000005,1394.0458100000005,1394.0304610000003,1394.0343693000004,1394.0458100000005,1394.0458100000005,1394.0458100000005,1394.0458100000005,1396.0457594000009,1396.0457594000009,1396.0457594000009,1396.0457594000009,1396.0302637000004,2,0.7987053999995624,0.2201113000000987,None,,,,,,,,,,,,,,,,,,,,,9210,1,2025-07-05_13h22.03.154,sm,2024.2.4,59.98141775679449,2025-07-05 13h22.43.478004 +0200,
63,0,63,,,,,,space,2.308848200000284,None,None,3,0.9690701999998055,0.2417451000001165,None,0,0,0,0,,,,,1,0,1,0,,,,,63,0,63,0,1396.0457594000009,,,,,,,,,,,,,,,,,,,,,,,,,,,,,,,,,,,,,,,,,,,,,,,,,,,,,,,,,,Statue,2.0732,1396.0307778000006,1396.0312916000003,1396.0314033000004,1396.0457594000009,1398.1288623,1398.1133937000004,1398.1173653000005,1398.1288623,1398.1288623,1398.1288623,1398.1288623,1400.1290086000008,1400.1290086000008,1400.1290086000008,1400.1290086000008,1400.1133241000007,3,0.9690701999998055,0.2417451000001165,None,,,,,,,,,,,,,,,,,,,,,9210,1,2025-07-05_13h22.03.154,sm,2024.2.4,59.98141775679449,2025-07-05 13h22.43.478004 +0200,
64,0,64,,,,,,space,2.308848200000284,None,None,2,0.8840777000004891,0.23538619999999355,None,0,0,0,0,,,,,1,0,1,0,,,,,64,0,64,0,1400.1290086000008,,,,,,,,,,,,,,,,,,,,,,,,,,,,,,,,,,,,,,,,,,,,,,,,,,,,,,,,,,Fliegen,2.3814,1400.1138481000007,1400.1143580000007,1400.1144645000004,1400.1290086000008,1402.5121486000007,1402.4962693000007,1402.5003508,1402.5121486000007,1402.5121486000007,1402.5121486000007,1402.5121486000007,1404.5119030000005,1404.5119030000005,1404.5119030000005,1404.5119030000005,1404.4964760000003,2,0.8840777000004891,0.23538619999999355,None,,,,,,,,,,,,,,,,,,,,,9210,1,2025-07-05_13h22.03.154,sm,2024.2.4,59.98141775679449,2025-07-05 13h22.43.478004 +0200,
