thisN,thisTrialN,thisRepN,Cue,Target,Mediator1,Mediator2,iti,scanner_ready_press.keys,scanner_ready_press.rt,scanner_ready_press.duration,skip_trigger.keys,living_nonliving.keys,living_nonliving.rt,living_nonliving.duration,end_mapping.keys,blocks.thisRepN,blocks.thisTrialN,blocks.thisN,blocks.thisIndex,load_and_shuffle.thisRepN,load_and_shuffle.thisTrialN,load_and_shuffle.thisN,load_and_shuffle.thisIndex,runs.thisRepN,runs.thisTrialN,runs.thisN,runs.thisIndex,iti_loading_loop.thisRepN,iti_loading_loop.thisTrialN,iti_loading_loop.thisN,iti_loading_loop.thisIndex,semantic_mapping_run.thisRepN,semantic_mapping_run.thisTrialN,semantic_mapping_run.thisN,semantic_mapping_run.thisIndex,thisRow.t,notes,welcome.started,welcome_text.started,key_resp__welcome.started,welcome.stopped,key_resp__welcome.keys,key_resp__welcome.rt,key_resp__welcome.duration,scout.started,scout_text.started,key_resp.started,scout.stopped,key_resp.keys,key_resp.rt,key_resp.duration,instructions_semantic_mapping1.started,sm_instructions1_text.started,sm_instructions1_key.started,instructions_semantic_mapping1.stopped,sm_instructions1_key.keys,sm_instructions1_key.rt,sm_instructions1_key.duration,instructions_semantic_mapping2.started,sm_instructions2_text.started,sm_instructions2_key.started,instructions_semantic_mapping2.stopped,sm_instructions2_key.keys,sm_instructions2_key.rt,sm_instructions2_key.duration,reset_run.started,reset_run.stopped,shuffle_items.started,shuffle_items.stopped,set_up_runs.started,set_up_runs.stopped,load_iti.started,load_iti.stopped,prep_scanner.started,scanner_ready_press.started,ready_set_text.started,prep_scanner.stopped,runs.scanner_ready_press.keys,runs.scanner_ready_press.rt,runs.scanner_ready_press.duration,wait_for_trigger.started,starting_soon.started,skip_trigger.started,wait_for_trigger.stopped,runs.skip_trigger.keys,blank.started,begin_end_run_cross.started,sound_1.started,sound_1.stopped,sound_2.started,sound_2.stopped,begin_end_run_cross.stopped,blank.stopped,CurrentItem,CurrentITI,set_up_trial.started,set_up_trial.stopped,sm_iti.started,iti_cross.started,iti_cross.stopped,sm_iti.stopped,item.started,living_nonliving.started,end_mapping.started,living_nonliving_text.started,semantic_map_item.started,living_nonliving.stopped,end_mapping.stopped,living_nonliving_text.stopped,semantic_map_item.stopped,item.stopped,semantic_mapping_run.living_nonliving.keys,semantic_mapping_run.living_nonliving.rt,semantic_mapping_run.living_nonliving.duration,semantic_mapping_run.end_mapping.keys,fieldmap.started,fieldmap.stopped,runs.fm_key.keys,task_break.started,feeback_text.started,task_break_text.started,task_break_resp.started,feeback_text.stopped,task_break.stopped,runs.task_break_resp.keys,runs.task_break_resp.rt,runs.task_break_resp.duration,fm_text.started,fm_key.started,runs.fm_key.rt,runs.fm_key.duration,thanks.started,thanks_text.started,thanks_text.stopped,thanks.stopped,PID,MRI,date,expName,psychopyVersion,frameRate,expStart,
,,,,,,,,,,,,,,,,,,,,,,,,,,,,,,,,,,,,,,0.00373800000124902,0.009053200001289952,0.009053200001289952,155.6133862000006,space,155.5989310999994,None,,,,,,,,,,,,,,,,,,,,,,,,,,,,,,,,,,,,,,,,,,,,,,,,,,,,,,,,,,,,,,,,,,,,,,,,,,,,,,,,,,,,,,,,,,,,7228,1,2025-10-31_12h07.02.383,sm,2024.2.4,59.91116372651712,2025-10-31 12h07.14.319014 +0100,
,,,,,,,,,,,,,,,,,,,,,,,,,,,,,,,,,,,,,,,,,,,,,155.61351380000087,155.6283695000002,155.6283695000002,215.5764820000004,space,59.93207790000088,None,,,,,,,,,,,,,,,,,,,,,,,,,,,,,,,,,,,,,,,,,,,,,,,,,,,,,,,,,,,,,,,,,,,,,,,,,,,,,,,,,,,,,7228,1,2025-10-31_12h07.02.383,sm,2024.2.4,59.91116372651712,2025-10-31 12h07.14.319014 +0100,
,,,,,,,,,,,,,,,,,,,,,,,,,,,,,,,,,,,,,,,,,,,,,,,,,,,,215.57659700000113,215.59360410000045,215.59360410000045,226.31087110000044,2,10.71256110000104,None,,,,,,,,,,,,,,,,,,,,,,,,,,,,,,,,,,,,,,,,,,,,,,,,,,,,,,,,,,,,,,,,,,,,,,,,,,,,,,7228,1,2025-10-31_12h07.02.383,sm,2024.2.4,59.91116372651712,2025-10-31 12h07.14.319014 +0100,
,,,,,,,,,,,,,,,,,,,,,,,,,,,,,,,,,,,,,,,,,,,,,,,,,,,,,,,,,,,226.31098870000096,226.32584680000036,226.32584680000036,236.17705620000015,2,9.834159400001226,None,,,,,,,,,,,,,,,,,,,,,,,,,,,,,,,,,,,,,,,,,,,,,,,,,,,,,,,,,,,,,,,,,,,,,,,7228,1,2025-10-31_12h07.02.383,sm,2024.2.4,59.91116372651712,2025-10-31 12h07.14.319014 +0100,
0,0,0,Garten,Zwerg,Blumen,Gemüse,3.5834,space,4.552015299999766,None,None,3,1.5426294000008056,0.2684950000002573,None,0,0,0,0,0,79,79,33,0,0,0,0,0,79,79,68,0,0,0,0,299.5052187000001,,,,,,,,,,,,,,,,,,,,,,,,,,,,,,236.1779779999997,236.17858870000055,236.2435882000009,236.243852900001,236.2483613000004,236.24863040000128,236.27793070000007,236.2781167000012,236.28474930000084,236.2890008000013,236.2890008000013,240.86029710000003,space,4.552015299999766,None,240.8604524000002,240.87520630000108,240.87520630000108,287.488774200001,None,287.49797690000014,287.50560589999986,287.50402706666705,288.71495719999984,297.4885275666677,298.4951402000006,299.5052187000001,299.4893333,Sand,3.5834,299.49082610000005,299.4914273000013,299.4949555000003,299.5052187000001,303.08821999999964,303.0725452000006,303.0763697000002,303.08821999999964,303.08821999999964,303.08821999999964,303.08821999999964,305.08807870000055,305.08807870000055,305.08807870000055,305.08807870000055,305.0724609000008,3,1.5426294000008056,0.2684950000002573,None,,,,,,,,,,,,,,,,,,,,,7228,1,2025-10-31_12h07.02.383,sm,2024.2.4,59.91116372651712,2025-10-31 12h07.14.319014 +0100,
1,0,1,,,,,,space,4.552015299999766,None,None,3,1.0525168999993184,0.21044280000023718,None,0,0,0,0,,,,,0,0,0,0,,,,,1,0,1,0,305.08807870000055,,,,,,,,,,,,,,,,,,,,,,,,,,,,,,,,,,,,,,,,,,,,,,,,,,,,,,,,,,Tube,2.2914,305.0729831999997,305.0736377000012,305.0737413000006,305.08807870000055,307.38787310000043,307.37222330000077,307.3756222000011,307.38787310000043,307.38787310000043,307.38787310000043,307.38787310000043,309.38785559999997,309.38785559999997,309.38785559999997,309.38785559999997,309.3723542000007,3,1.0525168999993184,0.21044280000023718,None,,,,,,,,,,,,,,,,,,,,,7228,1,2025-10-31_12h07.02.383,sm,2024.2.4,59.91116372651712,2025-10-31 12h07.14.319014 +0100,
2,0,2,,,,,,space,4.552015299999766,None,None,3,1.0526112000006833,0.2145340999995824,None,0,0,0,0,,,,,0,0,0,0,,,,,2,0,2,0,309.38785559999997,,,,,,,,,,,,,,,,,,,,,,,,,,,,,,,,,,,,,,,,,,,,,,,,,,,,,,,,,,Album,3.0768,309.37287220000144,309.37338699999964,309.37349280000126,309.38785559999997,312.47096240000064,312.4552719000003,312.4603261000011,312.47096240000064,312.47096240000064,312.47096240000064,312.47096240000064,314.4708378000014,314.4708378000014,314.4708378000014,314.4708378000014,314.45522990000063,3,1.0526112000006833,0.2145340999995824,None,,,,,,,,,,,,,,,,,,,,,7228,1,2025-10-31_12h07.02.383,sm,2024.2.4,59.91116372651712,2025-10-31 12h07.14.319014 +0100,
3,0,3,,,,,,space,4.552015299999766,None,None,3,0.7970133000017086,0.2646513999989111,None,0,0,0,0,,,,,0,0,0,0,,,,,3,0,3,0,314.4708378000014,,,,,,,,,,,,,,,,,,,,,,,,,,,,,,,,,,,,,,,,,,,,,,,,,,,,,,,,,,Spaghetti,2.2676,314.4557467000013,314.45626190000075,314.45636639999975,314.4708378000014,316.7374823000009,316.72178220000023,316.72630070000014,316.7374823000009,316.7374823000009,316.7374823000009,316.7374823000009,318.73728550000124,318.73728550000124,318.73728550000124,318.73728550000124,318.7217314999998,3,0.7970133000017086,0.2646513999989111,None,,,,,,,,,,,,,,,,,,,,,7228,1,2025-10-31_12h07.02.383,sm,2024.2.4,59.91116372651712,2025-10-31 12h07.14.319014 +0100,
4,0,4,,,,,,space,4.552015299999766,None,None,3,0.9137148999998317,0.19000380000034056,None,0,0,0,0,,,,,0,0,0,0,,,,,4,0,4,0,318.73728550000124,,,,,,,,,,,,,,,,,,,,,,,,,,,,,,,,,,,,,,,,,,,,,,,,,,,,,,,,,,Weihnachten,2.6164,318.7222429000012,318.7228960000011,318.72300200000063,318.73728550000124,321.3536021,321.33808670000144,321.3424900000009,321.3536021,321.3536021,321.3536021,321.3536021,323.35372389999975,323.35372389999975,323.35372389999975,323.35372389999975,323.3380737000007,3,0.9137148999998317,0.19000380000034056,None,,,,,,,,,,,,,,,,,,,,,7228,1,2025-10-31_12h07.02.383,sm,2024.2.4,59.91116372651712,2025-10-31 12h07.14.319014 +0100,
5,0,5,,,,,,space,4.552015299999766,None,None,2,0.7802036000011867,0.19611949999853096,None,0,0,0,0,,,,,0,0,0,0,,,,,5,0,5,0,323.35372389999975,,,,,,,,,,,,,,,,,,,,,,,,,,,,,,,,,,,,,,,,,,,,,,,,,,,,,,,,,,Hase,3.8625,323.33859680000023,323.33912469999996,323.33923030000005,323.35372389999975,327.21980559999975,327.2041403000003,327.20923930000026,327.21980559999975,327.21980559999975,327.21980559999975,327.21980559999975,329.2201065999998,329.2201065999998,329.2201065999998,329.2201065999998,329.2045197000007,2,0.7802036000011867,0.19611949999853096,None,,,,,,,,,,,,,,,,,,,,,7228,1,2025-10-31_12h07.02.383,sm,2024.2.4,59.91116372651712,2025-10-31 12h07.14.319014 +0100,
6,0,6,,,,,,space,4.552015299999766,None,None,3,0.7387997999994695,0.2733934000007139,None,0,0,0,0,,,,,0,0,0,0,,,,,6,0,6,0,329.2201065999998,,,,,,,,,,,,,,,,,,,,,,,,,,,,,,,,,,,,,,,,,,,,,,,,,,,,,,,,,,Essen,2.018,329.2050245999999,329.20552680000037,329.2056327999999,329.2201065999998,331.2531092999998,331.2376519999998,331.2414716000003,331.2531092999998,331.2531092999998,331.2531092999998,331.2531092999998,333.25317630000063,333.25317630000063,333.25317630000063,333.25317630000063,333.2374682000009,3,0.7387997999994695,0.2733934000007139,None,,,,,,,,,,,,,,,,,,,,,7228,1,2025-10-31_12h07.02.383,sm,2024.2.4,59.91116372651712,2025-10-31 12h07.14.319014 +0100,
7,0,7,,,,,,space,4.552015299999766,None,None,3,0.7116345000013098,0.21339769999940472,None,0,0,0,0,,,,,0,0,0,0,,,,,7,0,7,0,333.25317630000063,,,,,,,,,,,,,,,,,,,,,,,,,,,,,,,,,,,,,,,,,,,,,,,,,,,,,,,,,,Zigarette,2.995,333.23803150000094,333.23855130000084,333.2386555000012,333.25317630000063,336.2525714000003,336.2373079000008,336.2433164000013,336.2525714000003,336.2525714000003,336.2525714000003,336.2525714000003,338.25275320000037,338.25275320000037,338.25275320000037,338.25275320000037,338.2372766999997,3,0.7116345000013098,0.21339769999940472,None,,,,,,,,,,,,,,,,,,,,,7228,1,2025-10-31_12h07.02.383,sm,2024.2.4,59.91116372651712,2025-10-31 12h07.14.319014 +0100,
8,0,8,,,,,,space,4.552015299999766,None,None,3,0.7184522999996261,0.17251910000049975,None,0,0,0,0,,,,,0,0,0,0,,,,,8,0,8,0,338.25275320000037,,,,,,,,,,,,,,,,,,,,,,,,,,,,,,,,,,,,,,,,,,,,,,,,,,,,,,,,,,Raum,5.0207,338.2377902999997,338.2383153999999,338.2384202000012,338.25275320000037,343.286511100001,343.26996959999997,343.27366150000125,343.286511100001,343.286511100001,343.286511100001,343.286511100001,345.28583609999987,345.28583609999987,345.28583609999987,345.28583609999987,345.27030170000035,3,0.7184522999996261,0.17251910000049975,None,,,,,,,,,,,,,,,,,,,,,7228,1,2025-10-31_12h07.02.383,sm,2024.2.4,59.91116372651712,2025-10-31 12h07.14.319014 +0100,
9,0,9,,,,,,space,4.552015299999766,None,None,3,0.6791830999991362,0.2699243999995815,None,0,0,0,0,,,,,0,0,0,0,,,,,9,0,9,0,345.28583609999987,,,,,,,,,,,,,,,,,,,,,,,,,,,,,,,,,,,,,,,,,,,,,,,,,,,,,,,,,,Kino,2.4461,345.2708123000011,345.27155700000003,345.2716614000001,345.28583609999987,347.7352542999997,347.7197491000006,347.7251840000008,347.7352542999997,347.7352542999997,347.7352542999997,347.7352542999997,349.73558570000023,349.73558570000023,349.73558570000023,349.73558570000023,349.720187500001,3,0.6791830999991362,0.2699243999995815,None,,,,,,,,,,,,,,,,,,,,,7228,1,2025-10-31_12h07.02.383,sm,2024.2.4,59.91116372651712,2025-10-31 12h07.14.319014 +0100,
10,0,10,,,,,,space,4.552015299999766,None,None,3,1.1336845999994694,0.19239509999897564,None,0,0,0,0,,,,,0,0,0,0,,,,,10,0,10,0,349.73558570000023,,,,,,,,,,,,,,,,,,,,,,,,,,,,,,,,,,,,,,,,,,,,,,,,,,,,,,,,,,Kerzen,2.0864,349.7206917000003,349.7213346000008,349.7214409999997,349.73558570000023,351.83524770000076,351.8198276000003,351.8239102000007,351.83524770000076,351.83524770000076,351.83524770000076,351.83524770000076,353.8354992000004,353.8354992000004,353.8354992000004,353.8354992000004,353.81963180000093,3,1.1336845999994694,0.19239509999897564,None,,,,,,,,,,,,,,,,,,,,,7228,1,2025-10-31_12h07.02.383,sm,2024.2.4,59.91116372651712,2025-10-31 12h07.14.319014 +0100,
11,0,11,,,,,,space,4.552015299999766,None,None,3,0.9592898999999306,0.23374949999924866,None,0,0,0,0,,,,,0,0,0,0,,,,,11,0,11,0,353.8354992000004,,,,,,,,,,,,,,,,,,,,,,,,,,,,,,,,,,,,,,,,,,,,,,,,,,,,,,,,,,Ausbruch,2.0472,353.82017030000134,353.82067840000127,353.82078700000056,353.8354992000004,355.8850983000011,355.86931879999975,355.8729987000006,355.8850983000011,355.8850983000011,355.8850983000011,355.8850983000011,357.8849784000013,357.8849784000013,357.8849784000013,357.8849784000013,357.8697482000007,3,0.9592898999999306,0.23374949999924866,None,,,,,,,,,,,,,,,,,,,,,7228,1,2025-10-31_12h07.02.383,sm,2024.2.4,59.91116372651712,2025-10-31 12h07.14.319014 +0100,
12,0,12,,,,,,space,4.552015299999766,None,None,3,1.3117517000009684,0.21279619999950228,None,0,0,0,0,,,,,0,0,0,0,,,,,12,0,12,0,357.8849784000013,,,,,,,,,,,,,,,,,,,,,,,,,,,,,,,,,,,,,,,,,,,,,,,,,,,,,,,,,,Poesie,2.0636,357.8702572000002,357.8708416999998,357.8709472999999,357.8849784000013,359.9513834999998,359.9359067000005,359.94200770000134,359.9513834999998,359.9513834999998,359.9513834999998,359.9513834999998,361.95151950000036,361.95151950000036,361.95151950000036,361.95151950000036,361.93595060000007,3,1.3117517000009684,0.21279619999950228,None,,,,,,,,,,,,,,,,,,,,,7228,1,2025-10-31_12h07.02.383,sm,2024.2.4,59.91116372651712,2025-10-31 12h07.14.319014 +0100,
13,0,13,,,,,,space,4.552015299999766,None,None,3,1.4452469999996538,0.2061479000003601,None,0,0,0,0,,,,,0,0,0,0,,,,,13,0,13,0,361.95151950000036,,,,,,,,,,,,,,,,,,,,,,,,,,,,,,,,,,,,,,,,,,,,,,,,,,,,,,,,,,Zeigen,3.0237,361.9364592000002,361.93710400000055,361.93720870000107,361.95151950000036,364.9844119999998,364.96904390000054,364.9727300000013,364.9844119999998,364.9844119999998,364.9844119999998,364.9844119999998,366.9843180000007,366.9843180000007,366.9843180000007,366.9843180000007,366.96911790000013,3,1.4452469999996538,0.2061479000003601,None,,,,,,,,,,,,,,,,,,,,,7228,1,2025-10-31_12h07.02.383,sm,2024.2.4,59.91116372651712,2025-10-31 12h07.14.319014 +0100,
14,0,14,,,,,,space,4.552015299999766,None,None,2,0.7027187999992748,0.13024480000058247,None,0,0,0,0,,,,,0,0,0,0,,,,,14,0,14,0,366.9843180000007,,,,,,,,,,,,,,,,,,,,,,,,,,,,,,,,,,,,,,,,,,,,,,,,,,,,,,,,,,Lachen,3.2699,366.96963030000006,366.9701554000003,366.9702632000008,366.9843180000007,370.26739910000106,370.2517048999998,370.2564386000013,370.26739910000106,370.26739910000106,370.26739910000106,370.26739910000106,372.2675350999998,372.2675350999998,372.2675350999998,372.2675350999998,372.2520891000004,2,0.7027187999992748,0.13024480000058247,None,,,,,,,,,,,,,,,,,,,,,7228,1,2025-10-31_12h07.02.383,sm,2024.2.4,59.91116372651712,2025-10-31 12h07.14.319014 +0100,
15,0,15,,,,,,space,4.552015299999766,None,None,3,0.8096107999990636,0.24527170000146725,None,0,0,0,0,,,,,0,0,0,0,,,,,15,0,15,0,372.2675350999998,,,,,,,,,,,,,,,,,,,,,,,,,,,,,,,,,,,,,,,,,,,,,,,,,,,,,,,,,,Schnorchel,2.437,372.2525979000002,372.25324490000094,372.2533491000013,372.2675350999998,374.71728430000076,374.7015596000001,374.7057824000003,374.71728430000076,374.71728430000076,374.71728430000076,374.71728430000076,376.71743179999976,376.71743179999976,376.71743179999976,376.71743179999976,376.7016223999999,3,0.8096107999990636,0.24527170000146725,None,,,,,,,,,,,,,,,,,,,,,7228,1,2025-10-31_12h07.02.383,sm,2024.2.4,59.91116372651712,2025-10-31 12h07.14.319014 +0100,
16,0,16,,,,,,space,4.552015299999766,None,None,2,0.7733958000007988,0.21500279999963823,None,0,0,0,0,,,,,0,0,0,0,,,,,16,0,16,0,376.71743179999976,,,,,,,,,,,,,,,,,,,,,,,,,,,,,,,,,,,,,,,,,,,,,,,,,,,,,,,,,,Schwester,2.0526,376.70213610000064,376.70265350000045,376.70276280000144,376.71743179999976,378.78328330000113,378.76818679999997,378.7715253000006,378.78328330000113,378.78328330000113,378.78328330000113,378.78328330000113,380.7838296000009,380.7838296000009,380.7838296000009,380.7838296000009,380.7680943000014,2,0.7733958000007988,0.21500279999963823,None,,,,,,,,,,,,,,,,,,,,,7228,1,2025-10-31_12h07.02.383,sm,2024.2.4,59.91116372651712,2025-10-31 12h07.14.319014 +0100,
17,0,17,,,,,,space,4.552015299999766,None,None,3,0.6452141000008851,0.15764339999986987,None,0,0,0,0,,,,,0,0,0,0,,,,,17,0,17,0,380.7838296000009,,,,,,,,,,,,,,,,,,,,,,,,,,,,,,,,,,,,,,,,,,,,,,,,,,,,,,,,,,Bücher,3.1482,380.7686117000012,380.7691270000014,380.7692310000002,380.7838296000009,383.93339130000095,383.9175042000006,383.9209642000005,383.93339130000095,383.93339130000095,383.93339130000095,383.93339130000095,385.93331560000115,385.93331560000115,385.93331560000115,385.93331560000115,385.91798390000076,3,0.6452141000008851,0.15764339999986987,None,,,,,,,,,,,,,,,,,,,,,7228,1,2025-10-31_12h07.02.383,sm,2024.2.4,59.91116372651712,2025-10-31 12h07.14.319014 +0100,
18,0,18,,,,,,space,4.552015299999766,None,None,2,1.4582688999998936,0.12755570000081207,None,0,0,0,0,,,,,0,0,0,0,,,,,18,0,18,0,385.93331560000115,,,,,,,,,,,,,,,,,,,,,,,,,,,,,,,,,,,,,,,,,,,,,,,,,,,,,,,,,,Beine,2.152,385.9184944000008,385.9190182000002,385.91912310000043,385.93331560000115,388.0998055,388.0841304000005,388.0877434000013,388.0998055,388.0998055,388.0998055,388.0998055,390.1002927999998,390.1002927999998,390.1002927999998,390.1002927999998,390.08420769999975,2,1.4582688999998936,0.12755570000081207,None,,,,,,,,,,,,,,,,,,,,,7228,1,2025-10-31_12h07.02.383,sm,2024.2.4,59.91116372651712,2025-10-31 12h07.14.319014 +0100,
19,0,19,,,,,,space,4.552015299999766,None,None,2,0.7515914999985398,0.1081136000011611,None,0,0,0,0,,,,,0,0,0,0,,,,,19,0,19,0,390.1002927999998,,,,,,,,,,,,,,,,,,,,,,,,,,,,,,,,,,,,,,,,,,,,,,,,,,,,,,,,,,Besucher,3.4735,390.08471889999964,390.08537530000103,390.0854814000013,390.1002927999998,393.5828476000006,393.56722360000094,393.5715274000013,393.5828476000006,393.5828476000006,393.5828476000006,393.5828476000006,395.58279890000085,395.58279890000085,395.58279890000085,395.58279890000085,395.5675772000013,2,0.7515914999985398,0.1081136000011611,None,,,,,,,,,,,,,,,,,,,,,7228,1,2025-10-31_12h07.02.383,sm,2024.2.4,59.91116372651712,2025-10-31 12h07.14.319014 +0100,
20,0,20,,,,,,space,4.552015299999766,None,None,3,0.6776267000004736,0.1542076999994606,None,0,0,0,0,,,,,0,0,0,0,,,,,20,0,20,0,395.58279890000085,,,,,,,,,,,,,,,,,,,,,,,,,,,,,,,,,,,,,,,,,,,,,,,,,,,,,,,,,,Bus,2.1263,395.56808600000113,395.5687596000007,395.5688680000003,395.58279890000085,397.71573910000006,397.70078339999964,397.70607480000035,397.71573910000006,397.71573910000006,397.71573910000006,397.71573910000006,399.7159345,399.7159345,399.7159345,399.7159345,399.7003409000008,3,0.6776267000004736,0.1542076999994606,None,,,,,,,,,,,,,,,,,,,,,7228,1,2025-10-31_12h07.02.383,sm,2024.2.4,59.91116372651712,2025-10-31 12h07.14.319014 +0100,
21,0,21,,,,,,space,4.552015299999766,None,None,3,0.6932158999989042,0.16158630000063567,None,0,0,0,0,,,,,0,0,0,0,,,,,21,0,21,0,399.7159345,,,,,,,,,,,,,,,,,,,,,,,,,,,,,,,,,,,,,,,,,,,,,,,,,,,,,,,,,,Juwel,2.904,399.7008437000004,399.7014940000008,399.70159779999994,399.7159345,402.6322899000006,402.6166811000003,402.6231865999998,402.6322899000006,402.6322899000006,402.6322899000006,402.6322899000006,404.63241089999974,404.63241089999974,404.63241089999974,404.63241089999974,404.6165970000002,3,0.6932158999989042,0.16158630000063567,None,,,,,,,,,,,,,,,,,,,,,7228,1,2025-10-31_12h07.02.383,sm,2024.2.4,59.91116372651712,2025-10-31 12h07.14.319014 +0100,
22,0,22,,,,,,space,4.552015299999766,None,None,3,0.5985178999999334,0.17184219999944617,None,0,0,0,0,,,,,0,0,0,0,,,,,22,0,22,0,404.63241089999974,,,,,,,,,,,,,,,,,,,,,,,,,,,,,,,,,,,,,,,,,,,,,,,,,,,,,,,,,,Beutel,4.1532,404.6170824000001,404.6175748000005,404.61767789999976,404.63241089999974,408.7987391000006,408.78279620000103,408.78636280000137,408.7987391000006,408.7987391000006,408.7987391000006,408.7987391000006,410.79901659999996,410.79901659999996,410.79901659999996,410.79901659999996,410.7831298000001,3,0.5985178999999334,0.17184219999944617,None,,,,,,,,,,,,,,,,,,,,,7228,1,2025-10-31_12h07.02.383,sm,2024.2.4,59.91116372651712,2025-10-31 12h07.14.319014 +0100,
23,0,23,,,,,,space,4.552015299999766,None,None,3,0.6409879999991972,0.18555390000074112,None,0,0,0,0,,,,,0,0,0,0,,,,,23,0,23,0,410.79901659999996,,,,,,,,,,,,,,,,,,,,,,,,,,,,,,,,,,,,,,,,,,,,,,,,,,,,,,,,,,Zeitung,2.4415,410.7836378000011,410.7841841999998,410.7842880999997,410.79901659999996,413.2485273000002,413.2325756000009,413.23602670000037,413.2485273000002,413.2485273000002,413.2485273000002,413.2485273000002,415.2482725000009,415.2482725000009,415.2482725000009,415.2482725000009,415.23302409999997,3,0.6409879999991972,0.18555390000074112,None,,,,,,,,,,,,,,,,,,,,,7228,1,2025-10-31_12h07.02.383,sm,2024.2.4,59.91116372651712,2025-10-31 12h07.14.319014 +0100,
24,0,24,,,,,,space,4.552015299999766,None,None,3,0.6121923999999126,0.18087269999887212,None,0,0,0,0,,,,,0,0,0,0,,,,,24,0,24,0,415.2482725000009,,,,,,,,,,,,,,,,,,,,,,,,,,,,,,,,,,,,,,,,,,,,,,,,,,,,,,,,,,Kante,3.2439,415.2335359000008,415.2340510000013,415.2341550000001,415.2482725000009,418.4980377000011,418.4823051000003,418.485826600001,418.4980377000011,418.4980377000011,418.4980377000011,418.4980377000011,420.4980475000011,420.4980475000011,420.4980475000011,420.4980475000011,420.48262930000055,3,0.6121923999999126,0.18087269999887212,None,,,,,,,,,,,,,,,,,,,,,7228,1,2025-10-31_12h07.02.383,sm,2024.2.4,59.91116372651712,2025-10-31 12h07.14.319014 +0100,
25,0,25,,,,,,space,4.552015299999766,None,None,3,0.5949540000001434,0.1815623999991658,None,0,0,0,0,,,,,0,0,0,0,,,,,25,0,25,0,420.4980475000011,,,,,,,,,,,,,,,,,,,,,,,,,,,,,,,,,,,,,,,,,,,,,,,,,,,,,,,,,,Dusche,3.448,420.4831415999997,420.4838165000001,420.4839222999999,420.4980475000011,423.9475918999997,423.9321250000012,423.93594380000104,423.9475918999997,423.9475918999997,423.9475918999997,423.9475918999997,425.947907400001,425.947907400001,425.947907400001,425.947907400001,425.93227579999984,3,0.5949540000001434,0.1815623999991658,None,,,,,,,,,,,,,,,,,,,,,7228,1,2025-10-31_12h07.02.383,sm,2024.2.4,59.91116372651712,2025-10-31 12h07.14.319014 +0100,
26,0,26,,,,,,space,4.552015299999766,None,None,3,0.8303323000000091,0.22611899999901652,None,0,0,0,0,,,,,0,0,0,0,,,,,26,0,26,0,425.947907400001,,,,,,,,,,,,,,,,,,,,,,,,,,,,,,,,,,,,,,,,,,,,,,,,,,,,,,,,,,Strand,4.1314,425.93278790000113,425.9333192000013,425.9334260000014,425.947907400001,430.08090190000075,430.06504400000085,430.0696287999999,430.08090190000075,430.08090190000075,430.08090190000075,430.08090190000075,432.0806977000011,432.0806977000011,432.0806977000011,432.0806977000011,432.06548850000036,3,0.8303323000000091,0.22611899999901652,None,,,,,,,,,,,,,,,,,,,,,7228,1,2025-10-31_12h07.02.383,sm,2024.2.4,59.91116372651712,2025-10-31 12h07.14.319014 +0100,
27,0,27,,,,,,space,4.552015299999766,None,None,2,0.5597945999998046,0.15208519999941927,None,0,0,0,0,,,,,0,0,0,0,,,,,27,0,27,0,432.0806977000011,,,,,,,,,,,,,,,,,,,,,,,,,,,,,,,,,,,,,,,,,,,,,,,,,,,,,,,,,,Gesicht,3.6403,432.0660069000005,432.06654210000124,432.06665150000117,432.0806977000011,435.73032820000117,435.71504520000053,435.71916450000026,435.73032820000117,435.73032820000117,435.73032820000117,435.73032820000117,437.7304973999999,437.7304973999999,437.7304973999999,437.7304973999999,437.71517010000025,2,0.5597945999998046,0.15208519999941927,None,,,,,,,,,,,,,,,,,,,,,7228,1,2025-10-31_12h07.02.383,sm,2024.2.4,59.91116372651712,2025-10-31 12h07.14.319014 +0100,
28,0,28,,,,,,space,4.552015299999766,None,None,2,0.6712659000004351,0.17722760000106064,None,0,0,0,0,,,,,0,0,0,0,,,,,28,0,28,0,437.7304973999999,,,,,,,,,,,,,,,,,,,,,,,,,,,,,,,,,,,,,,,,,,,,,,,,,,,,,,,,,,Leute,2.3212,437.7156818000003,437.7163599000014,437.71646730000066,437.7304973999999,440.0638168000005,440.0477853000011,440.0510871000006,440.0638168000005,440.0638168000005,440.0638168000005,440.0638168000005,442.0635801999997,442.0635801999997,442.0635801999997,442.0635801999997,442.04802670000026,2,0.6712659000004351,0.17722760000106064,None,,,,,,,,,,,,,,,,,,,,,7228,1,2025-10-31_12h07.02.383,sm,2024.2.4,59.91116372651712,2025-10-31 12h07.14.319014 +0100,
29,0,29,,,,,,space,4.552015299999766,None,None,3,1.012844299999415,0.2003695000003063,None,0,0,0,0,,,,,0,0,0,0,,,,,29,0,29,0,442.0635801999997,,,,,,,,,,,,,,,,,,,,,,,,,,,,,,,,,,,,,,,,,,,,,,,,,,,,,,,,,,Ball,2.245,442.04854909999995,442.04905860000144,442.04916220000086,442.0635801999997,444.3132158999997,444.29764969999997,444.30129599999964,444.3132158999997,444.3132158999997,444.3132158999997,444.3132158999997,446.3132545999997,446.3132545999997,446.3132545999997,446.3132545999997,446.29771900000014,3,1.012844299999415,0.2003695000003063,None,,,,,,,,,,,,,,,,,,,,,7228,1,2025-10-31_12h07.02.383,sm,2024.2.4,59.91116372651712,2025-10-31 12h07.14.319014 +0100,
30,0,30,,,,,,space,4.552015299999766,None,None,3,1.0382116000000678,0.16853619999892544,None,0,0,0,0,,,,,0,0,0,0,,,,,30,0,30,0,446.3132545999997,,,,,,,,,,,,,,,,,,,,,,,,,,,,,,,,,,,,,,,,,,,,,,,,,,,,,,,,,,Salz,3.2332,446.2982286000006,446.2988739000011,446.2989770000004,446.3132545999997,449.54609260000143,449.5306188000013,449.5339261000008,449.54609260000143,449.54609260000143,449.54609260000143,449.54609260000143,451.54628330000014,451.54628330000014,451.54628330000014,451.54628330000014,451.5306935000008,3,1.0382116000000678,0.16853619999892544,None,,,,,,,,,,,,,,,,,,,,,7228,1,2025-10-31_12h07.02.383,sm,2024.2.4,59.91116372651712,2025-10-31 12h07.14.319014 +0100,
31,0,31,,,,,,space,4.552015299999766,None,None,3,0.7883737000011024,0.20212679999895045,None,0,0,0,0,,,,,0,0,0,0,,,,,31,0,31,0,451.54628330000014,,,,,,,,,,,,,,,,,,,,,,,,,,,,,,,,,,,,,,,,,,,,,,,,,,,,,,,,,,Bluse,2.2541,451.5311978000009,451.5317175,451.53182300000117,451.54628330000014,453.8124955000003,453.79742270000133,453.8014084000006,453.8124955000003,453.8124955000003,453.8124955000003,453.8124955000003,455.8126590000011,455.8126590000011,455.8126590000011,455.8126590000011,455.79729419999967,3,0.7883737000011024,0.20212679999895045,None,,,,,,,,,,,,,,,,,,,,,7228,1,2025-10-31_12h07.02.383,sm,2024.2.4,59.91116372651712,2025-10-31 12h07.14.319014 +0100,
32,0,32,,,,,,space,4.552015299999766,None,None,3,1.1598730000005162,0.17052139999941573,None,0,0,0,0,,,,,0,0,0,0,,,,,32,0,32,0,455.8126590000011,,,,,,,,,,,,,,,,,,,,,,,,,,,,,,,,,,,,,,,,,,,,,,,,,,,,,,,,,,Schlamm,2.9079,455.79780480000045,455.79832610000085,455.7984322000011,455.8126590000011,458.72918430000027,458.71336020000126,458.7171653000005,458.72918430000027,458.72918430000027,458.72918430000027,458.72918430000027,460.7290229000009,460.7290229000009,460.7290229000009,460.7290229000009,460.7136541,3,1.1598730000005162,0.17052139999941573,None,,,,,,,,,,,,,,,,,,,,,7228,1,2025-10-31_12h07.02.383,sm,2024.2.4,59.91116372651712,2025-10-31 12h07.14.319014 +0100,
33,0,33,,,,,,space,4.552015299999766,None,None,3,0.7845292000001791,0.19685129999925266,None,0,0,0,0,,,,,0,0,0,0,,,,,33,0,33,0,460.7290229000009,,,,,,,,,,,,,,,,,,,,,,,,,,,,,,,,,,,,,,,,,,,,,,,,,,,,,,,,,,Papier,2.5814,460.7141784000014,460.7147127999997,460.7148237000001,460.7290229000009,463.31229090000124,463.29666610000095,463.3015051000002,463.31229090000124,463.31229090000124,463.31229090000124,463.31229090000124,465.3121422000004,465.3121422000004,465.3121422000004,465.3121422000004,465.2965939000005,3,0.7845292000001791,0.19685129999925266,None,,,,,,,,,,,,,,,,,,,,,7228,1,2025-10-31_12h07.02.383,sm,2024.2.4,59.91116372651712,2025-10-31 12h07.14.319014 +0100,
34,0,34,,,,,,space,4.552015299999766,None,None,3,0.9071294000004855,0.18576310000025842,None,0,0,0,0,,,,,0,0,0,0,,,,,34,0,34,0,465.3121422000004,,,,,,,,,,,,,,,,,,,,,,,,,,,,,,,,,,,,,,,,,,,,,,,,,,,,,,,,,,Feld,4.4926,465.2971072,465.29779210000015,465.2978985000009,465.3121422000004,469.81250480000017,469.7961505000003,469.8026709000005,469.81250480000017,469.81250480000017,469.81250480000017,469.81250480000017,471.8117316000007,471.8117316000007,471.8117316000007,471.8117316000007,471.7961825000002,3,0.9071294000004855,0.18576310000025842,None,,,,,,,,,,,,,,,,,,,,,7228,1,2025-10-31_12h07.02.383,sm,2024.2.4,59.91116372651712,2025-10-31 12h07.14.319014 +0100,
35,0,35,,,,,,space,4.552015299999766,None,None,2,0.8856799000004685,0.1579863999995723,None,0,0,0,0,,,,,0,0,0,0,,,,,35,0,35,0,471.8117316000007,,,,,,,,,,,,,,,,,,,,,,,,,,,,,,,,,,,,,,,,,,,,,,,,,,,,,,,,,,Turnerin,3.1501,471.7966945999997,471.7972838000005,471.7973920000004,471.8117316000007,474.9614821000014,474.94605180000144,474.9502310000007,474.9614821000014,474.9614821000014,474.9614821000014,474.9614821000014,476.96145530000103,476.96145530000103,476.96145530000103,476.96145530000103,476.9459747000001,2,0.8856799000004685,0.1579863999995723,None,,,,,,,,,,,,,,,,,,,,,7228,1,2025-10-31_12h07.02.383,sm,2024.2.4,59.91116372651712,2025-10-31 12h07.14.319014 +0100,
36,0,36,,,,,,space,4.552015299999766,None,None,3,1.660310199999003,0.2291376000011951,None,0,0,0,0,,,,,0,0,0,0,,,,,36,0,36,0,476.96145530000103,,,,,,,,,,,,,,,,,,,,,,,,,,,,,,,,,,,,,,,,,,,,,,,,,,,,,,,,,,Angriff,2.4578,476.94649200000094,476.9472297000011,476.9473340000004,476.96145530000103,479.4279051000012,479.41250180000134,479.4165625000005,479.4279051000012,479.4279051000012,479.4279051000012,479.4279051000012,481.4279344000006,481.4279344000006,481.4279344000006,481.4279344000006,481.4122711,3,1.660310199999003,0.2291376000011951,None,,,,,,,,,,,,,,,,,,,,,7228,1,2025-10-31_12h07.02.383,sm,2024.2.4,59.91116372651712,2025-10-31 12h07.14.319014 +0100,
37,0,37,,,,,,space,4.552015299999766,None,None,2,1.2397154999998747,0.16752310000083526,None,0,0,0,0,,,,,0,0,0,0,,,,,37,0,37,0,481.4279344000006,,,,,,,,,,,,,,,,,,,,,,,,,,,,,,,,,,,,,,,,,,,,,,,,,,,,,,,,,,Herbst,2.9334,481.41278390000116,481.41328760000033,481.4133930000007,481.4279344000006,484.3609439000011,484.34539340000083,484.34919210000044,484.3609439000011,484.3609439000011,484.3609439000011,484.3609439000011,486.3609279000011,486.3609279000011,486.3609279000011,486.3609279000011,486.34531570000036,2,1.2397154999998747,0.16752310000083526,None,,,,,,,,,,,,,,,,,,,,,7228,1,2025-10-31_12h07.02.383,sm,2024.2.4,59.91116372651712,2025-10-31 12h07.14.319014 +0100,
38,0,38,,,,,,space,4.552015299999766,None,None,2,0.632005700001173,0.1405481999991025,None,0,0,0,0,,,,,0,0,0,0,,,,,38,0,38,0,486.3609279000011,,,,,,,,,,,,,,,,,,,,,,,,,,,,,,,,,,,,,,,,,,,,,,,,,,,,,,,,,,Elephant,2.9261,486.3458294000011,486.34647640000003,486.34658000000127,486.3609279000011,489.29396330000054,489.2784640000009,489.28256859999965,489.29396330000054,489.29396330000054,489.29396330000054,489.29396330000054,491.294035500001,491.294035500001,491.294035500001,491.294035500001,491.2785125999999,2,0.632005700001173,0.1405481999991025,None,,,,,,,,,,,,,,,,,,,,,7228,1,2025-10-31_12h07.02.383,sm,2024.2.4,59.91116372651712,2025-10-31 12h07.14.319014 +0100,
39,0,39,,,,,,space,4.552015299999766,None,None,3,0.9140352000013081,0.19749099999899045,None,0,0,0,0,,,,,0,0,0,0,,,,,39,0,39,0,491.294035500001,,,,,,,,,,,,,,,,,,,,,,,,,,,,,,,,,,,,,,,,,,,,,,,,,,,,,,,,,,Zapfen,4.4105,491.2790268000008,491.27964000000065,491.27974520000134,491.294035500001,495.71020130000034,495.69455820000076,495.6986427000011,495.71020130000034,495.71020130000034,495.71020130000034,495.71020130000034,497.71064860000115,497.71064860000115,497.71064860000115,497.71064860000115,497.6946989999997,3,0.9140352000013081,0.19749099999899045,None,,,,,,,,,,,,,,,,,,,,,7228,1,2025-10-31_12h07.02.383,sm,2024.2.4,59.91116372651712,2025-10-31 12h07.14.319014 +0100,
40,0,40,,,,,,space,4.552015299999766,None,None,2,0.7323412000005192,0.13866459999917424,None,0,0,0,0,,,,,0,0,0,0,,,,,40,0,40,0,497.71064860000115,,,,,,,,,,,,,,,,,,,,,,,,,,,,,,,,,,,,,,,,,,,,,,,,,,,,,,,,,,Liebe,2.1871,497.69521130000066,497.6957087999999,497.6958126999998,497.71064860000115,499.90997570000036,499.8945569000007,499.89851850000014,499.90997570000036,499.90997570000036,499.90997570000036,499.90997570000036,501.9101552000011,501.9101552000011,501.9101552000011,501.9101552000011,501.8945392000005,2,0.7323412000005192,0.13866459999917424,None,,,,,,,,,,,,,,,,,,,,,7228,1,2025-10-31_12h07.02.383,sm,2024.2.4,59.91116372651712,2025-10-31 12h07.14.319014 +0100,
41,0,41,,,,,,space,4.552015299999766,None,None,2,1.138747399998465,0.15789200000108394,None,0,0,0,0,,,,,0,0,0,0,,,,,41,0,41,0,501.9101552000011,,,,,,,,,,,,,,,,,,,,,,,,,,,,,,,,,,,,,,,,,,,,,,,,,,,,,,,,,,Sprache,5.5529,501.89505029999964,501.8956586000004,501.8957628999997,501.9101552000011,507.4762236000006,507.4607453000008,507.46493550000014,507.4762236000006,507.4762236000006,507.4762236000006,507.4762236000006,509.476621400001,509.476621400001,509.476621400001,509.476621400001,509.46065590000035,2,1.138747399998465,0.15789200000108394,None,,,,,,,,,,,,,,,,,,,,,7228,1,2025-10-31_12h07.02.383,sm,2024.2.4,59.91116372651712,2025-10-31 12h07.14.319014 +0100,
42,0,42,,,,,,space,4.552015299999766,None,None,3,1.1479046999993443,0.2673419000002468,None,0,0,0,0,,,,,0,0,0,0,,,,,42,0,42,0,509.476621400001,,,,,,,,,,,,,,,,,,,,,,,,,,,,,,,,,,,,,,,,,,,,,,,,,,,,,,,,,,Knöchel,4.8628,509.46116820000134,509.4618265000008,509.46193250000033,509.476621400001,514.3423225000006,514.3267660000001,514.3306903000012,514.3423225000006,514.3423225000006,514.3423225000006,514.3423225000006,516.3425083000002,516.3425083000002,516.3425083000002,516.3425083000002,516.3271092000014,3,1.1479046999993443,0.2673419000002468,None,,,,,,,,,,,,,,,,,,,,,7228,1,2025-10-31_12h07.02.383,sm,2024.2.4,59.91116372651712,2025-10-31 12h07.14.319014 +0100,
43,0,43,,,,,,space,4.552015299999766,None,None,2,0.9588867999991635,0.18948789999922155,None,0,0,0,0,,,,,0,0,0,0,,,,,43,0,43,0,516.3425083000002,,,,,,,,,,,,,,,,,,,,,,,,,,,,,,,,,,,,,,,,,,,,,,,,,,,,,,,,,,Tischler,2.3955,516.3276647000002,516.3281853999997,516.3282907000012,516.3425083000002,518.7421939000014,518.7266740000014,518.730996100001,518.7421939000014,518.7421939000014,518.7421939000014,518.7421939000014,520.7424303999996,520.7424303999996,520.7424303999996,520.7424303999996,520.7266655000003,2,0.9588867999991635,0.18948789999922155,None,,,,,,,,,,,,,,,,,,,,,7228,1,2025-10-31_12h07.02.383,sm,2024.2.4,59.91116372651712,2025-10-31 12h07.14.319014 +0100,
44,0,44,,,,,,space,4.552015299999766,None,None,3,1.1087105999995401,0.2080405000015162,None,0,0,0,0,,,,,0,0,0,0,,,,,44,0,44,0,520.7424303999996,,,,,,,,,,,,,,,,,,,,,,,,,,,,,,,,,,,,,,,,,,,,,,,,,,,,,,,,,,Vampir,3.9204,520.7271810000002,520.7276977000001,520.7278027000011,520.7424303999996,524.6754153000002,524.6598410000006,524.6637815000013,524.6754153000002,524.6754153000002,524.6754153000002,524.6754153000002,526.6752966000004,526.6752966000004,526.6752966000004,526.6752966000004,526.6600140999999,3,1.1087105999995401,0.2080405000015162,None,,,,,,,,,,,,,,,,,,,,,7228,1,2025-10-31_12h07.02.383,sm,2024.2.4,59.91116372651712,2025-10-31 12h07.14.319014 +0100,
45,0,45,,,,,,space,4.552015299999766,None,None,2,1.8508961999996245,None,None,0,0,0,0,,,,,0,0,0,0,,,,,45,0,45,0,526.6752966000004,,,,,,,,,,,,,,,,,,,,,,,,,,,,,,,,,,,,,,,,,,,,,,,,,,,,,,,,,,Party,3.4984,526.6605194000003,526.6611623000008,526.6612681000006,526.6752966000004,530.1751813999999,530.1594507000009,530.1663163000012,530.1751813999999,530.1751813999999,530.1751813999999,530.1751813999999,532.1747016999998,532.1747016999998,532.1747016999998,532.1747016999998,532.1592773000011,2,1.8508961999996245,None,None,,,,,,,,,,,,,,,,,,,,,7228,1,2025-10-31_12h07.02.383,sm,2024.2.4,59.91116372651712,2025-10-31 12h07.14.319014 +0100,
46,0,46,,,,,,space,4.552015299999766,None,None,2,1.135780299999169,0.13663500000075146,None,0,0,0,0,,,,,0,0,0,0,,,,,46,0,46,0,532.1747016999998,,,,,,,,,,,,,,,,,,,,,,,,,,,,,,,,,,,,,,,,,,,,,,,,,,,,,,,,,,Musik,2.674,532.1597891000001,532.1605699000011,532.1606733999997,532.1747016999998,534.8580609,534.8426478000001,534.8467947000008,534.8580609,534.8580609,534.8580609,534.8580609,536.8582364000013,536.8582364000013,536.8582364000013,536.8582364000013,536.8425316000012,2,1.135780299999169,0.13663500000075146,None,,,,,,,,,,,,,,,,,,,,,7228,1,2025-10-31_12h07.02.383,sm,2024.2.4,59.91116372651712,2025-10-31 12h07.14.319014 +0100,
47,0,47,,,,,,space,4.552015299999766,None,None,3,0.9549642000001768,0.2158300999999483,None,0,0,0,0,,,,,0,0,0,0,,,,,47,0,47,0,536.8582364000013,,,,,,,,,,,,,,,,,,,,,,,,,,,,,,,,,,,,,,,,,,,,,,,,,,,,,,,,,,Geheimnis,3.2288,536.8430414000013,536.8435636000013,536.8436760000004,536.8582364000013,540.091045000001,540.075307000001,540.0789010999997,540.091045000001,540.091045000001,540.091045000001,540.091045000001,542.0910601000014,542.0910601000014,542.0910601000014,542.0910601000014,542.0755647000005,3,0.9549642000001768,0.2158300999999483,None,,,,,,,,,,,,,,,,,,,,,7228,1,2025-10-31_12h07.02.383,sm,2024.2.4,59.91116372651712,2025-10-31 12h07.14.319014 +0100,
48,0,48,,,,,,space,4.552015299999766,None,None,3,0.7945022999992943,0.19849080000130925,None,0,0,0,0,,,,,0,0,0,0,,,,,48,0,48,0,542.0910601000014,,,,,,,,,,,,,,,,,,,,,,,,,,,,,,,,,,,,,,,,,,,,,,,,,,,,,,,,,,Monument,2.1988,542.0761201000005,542.0767995000006,542.0769581000004,542.0910601000014,544.2909173999997,544.2756672000014,544.2798586000008,544.2909173999997,544.2909173999997,544.2909173999997,544.2909173999997,546.2910191999999,546.2910191999999,546.2910191999999,546.2910191999999,546.275265100001,3,0.7945022999992943,0.19849080000130925,None,,,,,,,,,,,,,,,,,,,,,7228,1,2025-10-31_12h07.02.383,sm,2024.2.4,59.91116372651712,2025-10-31 12h07.14.319014 +0100,
49,0,49,,,,,,space,4.552015299999766,None,None,3,1.0006078999995225,0.2257895999991888,None,0,0,0,0,,,,,0,0,0,0,,,,,49,0,49,0,546.2910191999999,,,,,,,,,,,,,,,,,,,,,,,,,,,,,,,,,,,,,,,,,,,,,,,,,,,,,,,,,,Sicherheit,3.2289,546.2757842999999,546.2762975000005,546.2764027000012,546.2910191999999,549.5235619000014,549.5081097000002,549.5118825999998,549.5235619000014,549.5235619000014,549.5235619000014,549.5235619000014,551.5238421000013,551.5238421000013,551.5238421000013,551.5238421000013,551.5082973000008,3,1.0006078999995225,0.2257895999991888,None,,,,,,,,,,,,,,,,,,,,,7228,1,2025-10-31_12h07.02.383,sm,2024.2.4,59.91116372651712,2025-10-31 12h07.14.319014 +0100,
50,0,50,,,,,,space,4.552015299999766,None,None,3,0.8445044999989477,0.20240849999936472,None,0,0,0,0,,,,,0,0,0,0,,,,,50,0,50,0,551.5238421000013,,,,,,,,,,,,,,,,,,,,,,,,,,,,,,,,,,,,,,,,,,,,,,,,,,,,,,,,,,Vergangenheit,2.7442,551.5088047999998,551.5093661999999,551.5094702000006,551.5238421000013,554.2734703000006,554.2578032000001,554.261814200001,554.2734703000006,554.2734703000006,554.2734703000006,554.2734703000006,556.2738313000009,556.2738313000009,556.2738313000009,556.2738313000009,556.257943300001,3,0.8445044999989477,0.20240849999936472,None,,,,,,,,,,,,,,,,,,,,,7228,1,2025-10-31_12h07.02.383,sm,2024.2.4,59.91116372651712,2025-10-31 12h07.14.319014 +0100,
51,0,51,,,,,,space,4.552015299999766,None,None,3,0.7763842000003933,0.19111329999941518,None,0,0,0,0,,,,,0,0,0,0,,,,,51,0,51,0,556.2738313000009,,,,,,,,,,,,,,,,,,,,,,,,,,,,,,,,,,,,,,,,,,,,,,,,,,,,,,,,,,Teleskop,3.9195,556.2584672000012,556.2592103000006,556.2593152999998,556.2738313000009,560.2065653999998,560.1907824999998,560.1946708000014,560.2065653999998,560.2065653999998,560.2065653999998,560.2065653999998,562.2065760000005,562.2065760000005,562.2065760000005,562.2065760000005,562.1911324000012,3,0.7763842000003933,0.19111329999941518,None,,,,,,,,,,,,,,,,,,,,,7228,1,2025-10-31_12h07.02.383,sm,2024.2.4,59.91116372651712,2025-10-31 12h07.14.319014 +0100,
52,0,52,,,,,,space,4.552015299999766,None,None,3,1.1439395000015793,0.19150799999988521,None,0,0,0,0,,,,,0,0,0,0,,,,,52,0,52,0,562.2065760000005,,,,,,,,,,,,,,,,,,,,,,,,,,,,,,,,,,,,,,,,,,,,,,,,,,,,,,,,,,Anhänger,2.2593,562.1916426000007,562.1921598000008,562.1922644000006,562.2065760000005,564.4731991000008,564.4576321000004,564.4628592999998,564.4731991000008,564.4731991000008,564.4731991000008,564.4731991000008,566.4729353000002,566.4729353000002,566.4729353000002,566.4729353000002,566.4574238000005,3,1.1439395000015793,0.19150799999988521,None,,,,,,,,,,,,,,,,,,,,,7228,1,2025-10-31_12h07.02.383,sm,2024.2.4,59.91116372651712,2025-10-31 12h07.14.319014 +0100,
53,0,53,,,,,,space,4.552015299999766,None,None,3,0.6821675000010146,0.20240019999982906,None,0,0,0,0,,,,,0,0,0,0,,,,,53,0,53,0,566.4729353000002,,,,,,,,,,,,,,,,,,,,,,,,,,,,,,,,,,,,,,,,,,,,,,,,,,,,,,,,,,Tasse,3.1239,566.4579059000007,566.4585378000011,566.4586362999999,566.4729353000002,569.6060397000001,569.5903686000001,569.5943806000014,569.6060397000001,569.6060397000001,569.6060397000001,569.6060397000001,571.6064764000002,571.6064764000002,571.6064764000002,571.6064764000002,571.5903638,3,0.6821675000010146,0.20240019999982906,None,,,,,,,,,,,,,,,,,,,,,7228,1,2025-10-31_12h07.02.383,sm,2024.2.4,59.91116372651712,2025-10-31 12h07.14.319014 +0100,
54,0,54,,,,,,space,4.552015299999766,None,None,3,1.1133766999992076,0.19810050000160118,None,0,0,0,0,,,,,0,0,0,0,,,,,54,0,54,0,571.6064764000002,,,,,,,,,,,,,,,,,,,,,,,,,,,,,,,,,,,,,,,,,,,,,,,,,,,,,,,,,,Tür,2.3175,571.5908724000001,571.5915189000007,571.5916243000011,571.6064764000002,573.9392803999999,573.9235215000008,573.9272200000014,573.9392803999999,573.9392803999999,573.9392803999999,573.9392803999999,575.9391518000011,575.9391518000011,575.9391518000011,575.9391518000011,575.923253500001,3,1.1133766999992076,0.19810050000160118,None,,,,,,,,,,,,,,,,,,,,,7228,1,2025-10-31_12h07.02.383,sm,2024.2.4,59.91116372651712,2025-10-31 12h07.14.319014 +0100,
55,0,55,,,,,,space,4.552015299999766,None,None,3,1.0750731999996788,0.20004309999967518,None,0,0,0,0,,,,,0,0,0,0,,,,,55,0,55,0,575.9391518000011,,,,,,,,,,,,,,,,,,,,,,,,,,,,,,,,,,,,,,,,,,,,,,,,,,,,,,,,,,Hilfe,3.5822,575.9237352,575.9242328,575.9243318999997,575.9391518000011,579.5220638999999,579.5069006000012,579.5108407000007,579.5220638999999,579.5220638999999,579.5220638999999,579.5220638999999,581.522312000001,581.522312000001,581.522312000001,581.522312000001,581.5066611000002,3,1.0750731999996788,0.20004309999967518,None,,,,,,,,,,,,,,,,,,,,,7228,1,2025-10-31_12h07.02.383,sm,2024.2.4,59.91116372651712,2025-10-31 12h07.14.319014 +0100,
56,0,56,,,,,,space,4.552015299999766,None,None,3,0.6911602999989555,0.205875500001639,None,0,0,0,0,,,,,0,0,0,0,,,,,56,0,56,0,581.522312000001,,,,,,,,,,,,,,,,,,,,,,,,,,,,,,,,,,,,,,,,,,,,,,,,,,,,,,,,,,Rot,3.7214,581.5071734000012,581.5076867000007,581.5077985999997,581.522312000001,585.2551029000006,585.239469600001,585.2427705000009,585.2551029000006,585.2551029000006,585.2551029000006,585.2551029000006,587.2550749000002,587.2550749000002,587.2550749000002,587.2550749000002,587.2394543999999,3,0.6911602999989555,0.205875500001639,None,,,,,,,,,,,,,,,,,,,,,7228,1,2025-10-31_12h07.02.383,sm,2024.2.4,59.91116372651712,2025-10-31 12h07.14.319014 +0100,
57,0,57,,,,,,space,4.552015299999766,None,None,2,1.3692974999994476,0.11872609999954875,None,0,0,0,0,,,,,0,0,0,0,,,,,57,0,57,0,587.2550749000002,,,,,,,,,,,,,,,,,,,,,,,,,,,,,,,,,,,,,,,,,,,,,,,,,,,,,,,,,,Bart,2.9813,587.2399636999999,587.2405612000002,587.2406664999999,587.2550749000002,590.2381990000013,590.2227921000012,590.2263499000001,590.2381990000013,590.2381990000013,590.2381990000013,590.2381990000013,592.2384155,592.2384155,592.2384155,592.2384155,592.2224352000012,2,1.3692974999994476,0.11872609999954875,None,,,,,,,,,,,,,,,,,,,,,7228,1,2025-10-31_12h07.02.383,sm,2024.2.4,59.91116372651712,2025-10-31 12h07.14.319014 +0100,
58,0,58,,,,,,space,4.552015299999766,None,None,3,0.8957629000015004,0.23395009999876493,None,0,0,0,0,,,,,0,0,0,0,,,,,58,0,58,0,592.2384155,,,,,,,,,,,,,,,,,,,,,,,,,,,,,,,,,,,,,,,,,,,,,,,,,,,,,,,,,,Wahrheit,2.1036,592.2229464000011,592.2234612000011,592.2235668000012,592.2384155,594.3548860999999,594.3390336000011,594.3431901000004,594.3548860999999,594.3548860999999,594.3548860999999,594.3548860999999,596.3547048,596.3547048,596.3547048,596.3547048,596.3391922999999,3,0.8957629000015004,0.23395009999876493,None,,,,,,,,,,,,,,,,,,,,,7228,1,2025-10-31_12h07.02.383,sm,2024.2.4,59.91116372651712,2025-10-31 12h07.14.319014 +0100,
59,0,59,,,,,,space,4.552015299999766,None,None,2,1.2496879999998782,0.13762599999972736,None,0,0,0,0,,,,,0,0,0,0,,,,,59,0,59,0,596.3547048,,,,,,,,,,,,,,,,,,,,,,,,,,,,,,,,,,,,,,,,,,,,,,,,,,,,,,,,,,Pflege,2.9843,596.3397041000007,596.3402437000004,596.3403495000002,596.3547048,599.3549316000008,599.3386819000007,599.3444127000002,599.3549316000008,599.3549316000008,599.3549316000008,599.3549316000008,601.3542687000008,601.3542687000008,601.3542687000008,601.3542687000008,601.3388157999998,2,1.2496879999998782,0.13762599999972736,None,,,,,,,,,,,,,,,,,,,,,7228,1,2025-10-31_12h07.02.383,sm,2024.2.4,59.91116372651712,2025-10-31 12h07.14.319014 +0100,
60,0,60,,,,,,space,4.552015299999766,None,None,2,1.0207682000000204,0.17789680000169028,None,0,0,0,0,,,,,0,0,0,0,,,,,60,0,60,0,601.3542687000008,,,,,,,,,,,,,,,,,,,,,,,,,,,,,,,,,,,,,,,,,,,,,,,,,,,,,,,,,,Gemüse,2.2488,601.3393246000014,601.3398816999998,601.3399901000012,601.3542687000008,603.6040247000001,603.5882175000006,603.592145300001,603.6040247000001,603.6040247000001,603.6040247000001,603.6040247000001,605.6040181999997,605.6040181999997,605.6040181999997,605.6040181999997,605.5884650999997,2,1.0207682000000204,0.17789680000169028,None,,,,,,,,,,,,,,,,,,,,,7228,1,2025-10-31_12h07.02.383,sm,2024.2.4,59.91116372651712,2025-10-31 12h07.14.319014 +0100,
61,0,61,,,,,,space,4.552015299999766,None,None,3,0.6666881999990437,0.22189299999990908,None,0,0,0,0,,,,,0,0,0,0,,,,,61,0,61,0,605.6040181999997,,,,,,,,,,,,,,,,,,,,,,,,,,,,,,,,,,,,,,,,,,,,,,,,,,,,,,,,,,Geschäft,2.8656,605.5889745000004,605.5894955000003,605.5896063,605.6040181999997,608.4704473000002,608.4548833000008,608.4588689000011,608.4704473000002,608.4704473000002,608.4704473000002,608.4704473000002,610.4703982999999,610.4703982999999,610.4703982999999,610.4703982999999,610.454799000001,3,0.6666881999990437,0.22189299999990908,None,,,,,,,,,,,,,,,,,,,,,7228,1,2025-10-31_12h07.02.383,sm,2024.2.4,59.91116372651712,2025-10-31 12h07.14.319014 +0100,
62,0,62,,,,,,space,4.552015299999766,None,None,2,0.6169900999993843,0.12438529999963066,None,0,0,0,0,,,,,0,0,0,0,,,,,62,0,62,0,610.4703982999999,,,,,,,,,,,,,,,,,,,,,,,,,,,,,,,,,,,,,,,,,,,,,,,,,,,,,,,,,,Student,3.1155,610.4553164000008,610.4558156000003,610.4559210000007,610.4703982999999,613.5867484999999,613.5711895000004,613.5748024000004,613.5867484999999,613.5867484999999,613.5867484999999,613.5867484999999,615.5869070999997,615.5869070999997,615.5869070999997,615.5869070999997,615.5714980000012,2,0.6169900999993843,0.12438529999963066,None,,,,,,,,,,,,,,,,,,,,,7228,1,2025-10-31_12h07.02.383,sm,2024.2.4,59.91116372651712,2025-10-31 12h07.14.319014 +0100,
63,0,63,,,,,,space,4.552015299999766,None,None,2,0.5659166000004916,0.1846826000000874,None,0,0,0,0,,,,,0,0,0,0,,,,,63,0,63,0,615.5869070999997,,,,,,,,,,,,,,,,,,,,,,,,,,,,,,,,,,,,,,,,,,,,,,,,,,,,,,,,,,Kopf,3.1652,615.5720158000004,615.5726654999999,615.5727709000003,615.5869070999997,618.7529399000014,618.7377342,618.741050300001,618.7529399000014,618.7529399000014,618.7529399000014,618.7529399000014,620.7531196,620.7531196,620.7531196,620.7531196,620.7376899999999,2,0.5659166000004916,0.1846826000000874,None,,,,,,,,,,,,,,,,,,,,,7228,1,2025-10-31_12h07.02.383,sm,2024.2.4,59.91116372651712,2025-10-31 12h07.14.319014 +0100,
64,0,64,,,,,,space,4.552015299999766,None,None,3,0.9023219999999128,0.20985800000016752,None,0,0,0,0,,,,,0,0,0,0,,,,,64,0,64,0,620.7531196,,,,,,,,,,,,,,,,,,,,,,,,,,,,,,,,,,,,,,,,,,,,,,,,,,,,,,,,,,Winter,2.4875,620.7381968000009,620.7388738999998,620.7389810000004,620.7531196,623.2529832,623.2371124000001,623.2408664000013,623.2529832,623.2529832,623.2529832,623.2529832,625.253033500001,625.253033500001,625.253033500001,625.253033500001,625.2374211000006,3,0.9023219999999128,0.20985800000016752,None,,,,,,,,,,,,,,,,,,,,,7228,1,2025-10-31_12h07.02.383,sm,2024.2.4,59.91116372651712,2025-10-31 12h07.14.319014 +0100,
65,0,65,,,,,,space,4.552015299999766,None,None,3,0.8064639999993233,0.18191169999954582,None,0,0,0,0,,,,,0,0,0,0,,,,,65,0,65,0,625.253033500001,,,,,,,,,,,,,,,,,,,,,,,,,,,,,,,,,,,,,,,,,,,,,,,,,,,,,,,,,,Loch,2.7758,625.2379293000013,625.2385848000013,625.2386884000007,625.253033500001,628.0361255000007,628.0203056000009,628.0236463000001,628.0361255000007,628.0361255000007,628.0361255000007,628.0361255000007,630.0359269,630.0359269,630.0359269,630.0359269,630.0204403000007,3,0.8064639999993233,0.18191169999954582,None,,,,,,,,,,,,,,,,,,,,,7228,1,2025-10-31_12h07.02.383,sm,2024.2.4,59.91116372651712,2025-10-31 12h07.14.319014 +0100,
66,0,66,,,,,,space,4.552015299999766,None,None,3,1.1060430999987148,0.20576299999993353,None,0,0,0,0,,,,,0,0,0,0,,,,,66,0,66,0,630.0359269,,,,,,,,,,,,,,,,,,,,,,,,,,,,,,,,,,,,,,,,,,,,,,,,,,,,,,,,,,Saft,3.1855,630.0209566000012,630.021481400001,630.0215863000012,630.0359269,633.2356610000006,633.2198148000007,633.2235384000014,633.2356610000006,633.2356610000006,633.2356610000006,633.2356610000006,635.2355487000004,635.2355487000004,635.2355487000004,635.2355487000004,635.2200095999997,3,1.1060430999987148,0.20576299999993353,None,,,,,,,,,,,,,,,,,,,,,7228,1,2025-10-31_12h07.02.383,sm,2024.2.4,59.91116372651712,2025-10-31 12h07.14.319014 +0100,
67,0,67,,,,,,space,4.552015299999766,None,None,3,0.6940548999991734,0.20105050000165647,None,0,0,0,0,,,,,0,0,0,0,,,,,67,0,67,0,635.2355487000004,,,,,,,,,,,,,,,,,,,,,,,,,,,,,,,,,,,,,,,,,,,,,,,,,,,,,,,,,,Hügel,4.5772,635.2205195000006,635.2211733000004,635.2212786,635.2355487000004,639.8183874000006,639.8029705999998,639.806870800001,639.8183874000006,639.8183874000006,639.8183874000006,639.8183874000006,641.8185111000003,641.8185111000003,641.8185111000003,641.8185111000003,641.8032194000007,3,0.6940548999991734,0.20105050000165647,None,,,,,,,,,,,,,,,,,,,,,7228,1,2025-10-31_12h07.02.383,sm,2024.2.4,59.91116372651712,2025-10-31 12h07.14.319014 +0100,
68,0,68,,,,,,space,4.552015299999766,None,None,2,1.3227672000011808,0.15630779999992228,None,0,0,0,0,,,,,0,0,0,0,,,,,68,0,68,0,641.8185111000003,,,,,,,,,,,,,,,,,,,,,,,,,,,,,,,,,,,,,,,,,,,,,,,,,,,,,,,,,,Haare,2.0902,641.8037325000005,641.8043126000011,641.8044158000012,641.8185111000003,643.9192605999997,643.9027407000012,643.906693500001,643.9192605999997,643.9192605999997,643.9192605999997,643.9192605999997,645.9183455000002,645.9183455000002,645.9183455000002,645.9183455000002,645.9029858000013,2,1.3227672000011808,0.15630779999992228,None,,,,,,,,,,,,,,,,,,,,,7228,1,2025-10-31_12h07.02.383,sm,2024.2.4,59.91116372651712,2025-10-31 12h07.14.319014 +0100,
69,0,69,,,,,,space,4.552015299999766,None,None,3,0.5961057000004075,0.16620520000105898,None,0,0,0,0,,,,,0,0,0,0,,,,,69,0,69,0,645.9183455000002,,,,,,,,,,,,,,,,,,,,,,,,,,,,,,,,,,,,,,,,,,,,,,,,,,,,,,,,,,Brief,2.4397,645.9034988000003,645.9040069000002,645.9041116999997,645.9183455000002,648.3686624000002,648.3522590000011,648.3557115000003,648.3686624000002,648.3686624000002,648.3686624000002,648.3686624000002,650.3682967000004,650.3682967000004,650.3682967000004,650.3682967000004,650.3524572000006,3,0.5961057000004075,0.16620520000105898,None,,,,,,,,,,,,,,,,,,,,,7228,1,2025-10-31_12h07.02.383,sm,2024.2.4,59.91116372651712,2025-10-31 12h07.14.319014 +0100,
70,0,70,,,,,,space,4.552015299999766,None,None,3,1.091605300000083,0.3211350000001403,None,0,0,0,0,,,,,0,0,0,0,,,,,70,0,70,0,650.3682967000004,,,,,,,,,,,,,,,,,,,,,,,,,,,,,,,,,,,,,,,,,,,,,,,,,,,,,,,,,,Farbe,3.5467,650.352963700001,650.353602000001,650.3537074000014,650.3682967000004,653.9177739000006,653.9021502000014,653.9061758999997,653.9177739000006,653.9177739000006,653.9177739000006,653.9177739000006,655.9179709,655.9179709,655.9179709,655.9179709,655.9023128999997,3,1.091605300000083,0.3211350000001403,None,,,,,,,,,,,,,,,,,,,,,7228,1,2025-10-31_12h07.02.383,sm,2024.2.4,59.91116372651712,2025-10-31 12h07.14.319014 +0100,
71,0,71,,,,,,space,4.552015299999766,None,None,2,0.8433813999999984,0.15793440000015835,None,0,0,0,0,,,,,0,0,0,0,,,,,71,0,71,0,655.9179709,,,,,,,,,,,,,,,,,,,,,,,,,,,,,,,,,,,,,,,,,,,,,,,,,,,,,,,,,,Schulter,2.2431,655.9028347000003,655.9033577999999,655.9034659000008,655.9179709,658.1674080000012,658.1522713000013,658.1561755000002,658.1674080000012,658.1674080000012,658.1674080000012,658.1674080000012,660.1675703000001,660.1675703000001,660.1675703000001,660.1675703000001,660.1520505000008,2,0.8433813999999984,0.15793440000015835,None,,,,,,,,,,,,,,,,,,,,,7228,1,2025-10-31_12h07.02.383,sm,2024.2.4,59.91116372651712,2025-10-31 12h07.14.319014 +0100,
72,0,72,,,,,,space,4.552015299999766,None,None,3,0.6821528000000399,0.20915989999957674,None,0,0,0,0,,,,,0,0,0,0,,,,,72,0,72,0,660.1675703000001,,,,,,,,,,,,,,,,,,,,,,,,,,,,,,,,,,,,,,,,,,,,,,,,,,,,,,,,,,Dachboden,2.6078,660.1525503000012,660.153103300001,660.1532112000004,660.1675703000001,662.7839443000012,662.7683152999998,662.773162200001,662.7839443000012,662.7839443000012,662.7839443000012,662.7839443000012,664.7838824999999,664.7838824999999,664.7838824999999,664.7838824999999,664.7687079000007,3,0.6821528000000399,0.20915989999957674,None,,,,,,,,,,,,,,,,,,,,,7228,1,2025-10-31_12h07.02.383,sm,2024.2.4,59.91116372651712,2025-10-31 12h07.14.319014 +0100,
73,0,73,,,,,,space,4.552015299999766,None,None,3,0.658459700000094,0.21413289999873086,None,0,0,0,0,,,,,0,0,0,0,,,,,73,0,73,0,664.7838824999999,,,,,,,,,,,,,,,,,,,,,,,,,,,,,,,,,,,,,,,,,,,,,,,,,,,,,,,,,,Waschbecken,2.4504,664.7692313000007,664.7697446000002,664.7698529000008,664.7838824999999,667.2335797000014,667.2186247999998,667.2230397000003,667.2335797000014,667.2335797000014,667.2335797000014,667.2335797000014,669.2337373000009,669.2337373000009,669.2337373000009,669.2337373000009,669.2180692000002,3,0.658459700000094,0.21413289999873086,None,,,,,,,,,,,,,,,,,,,,,7228,1,2025-10-31_12h07.02.383,sm,2024.2.4,59.91116372651712,2025-10-31 12h07.14.319014 +0100,
74,0,74,,,,,,space,4.552015299999766,None,None,3,0.5931543000006059,0.20488939999995637,None,0,0,0,0,,,,,0,0,0,0,,,,,74,0,74,0,669.2337373000009,,,,,,,,,,,,,,,,,,,,,,,,,,,,,,,,,,,,,,,,,,,,,,,,,,,,,,,,,,Telefon,2.1837,669.2185891000008,669.2192283000004,669.2193330000009,669.2337373000009,671.4168726999997,671.4014058000012,671.4057145000006,671.4168726999997,671.4168726999997,671.4168726999997,671.4168726999997,673.4168060000011,673.4168060000011,673.4168060000011,673.4168060000011,673.4010808000003,3,0.5931543000006059,0.20488939999995637,None,,,,,,,,,,,,,,,,,,,,,7228,1,2025-10-31_12h07.02.383,sm,2024.2.4,59.91116372651712,2025-10-31 12h07.14.319014 +0100,
75,0,75,,,,,,space,4.552015299999766,None,None,2,0.832810600000812,0.1449598999988666,None,0,0,0,0,,,,,0,0,0,0,,,,,75,0,75,0,673.4168060000011,,,,,,,,,,,,,,,,,,,,,,,,,,,,,,,,,,,,,,,,,,,,,,,,,,,,,,,,,,Anwalt,2.9981,673.4015911000006,673.402172600001,673.402277000001,673.4168060000011,676.4166561000002,676.4010190000008,676.405058100001,676.4166561000002,676.4166561000002,676.4166561000002,676.4166561000002,678.4164789000006,678.4164789000006,678.4164789000006,678.4164789000006,678.4010620999998,2,0.832810600000812,0.1449598999988666,None,,,,,,,,,,,,,,,,,,,,,7228,1,2025-10-31_12h07.02.383,sm,2024.2.4,59.91116372651712,2025-10-31 12h07.14.319014 +0100,
76,0,76,,,,,,space,4.552015299999766,None,None,3,0.9838767999990523,0.21151860000099987,None,0,0,0,0,,,,,0,0,0,0,,,,,76,0,76,0,678.4164789000006,,,,,,,,,,,,,,,,,,,,,,,,,,,,,,,,,,,,,,,,,,,,,,,,,,,,,,,,,,Zucker,4.5924,678.4015755,678.4021542999999,678.4022581000008,678.4164789000006,683.0159512000009,683.0003072,683.0038920000006,683.0159512000009,683.0159512000009,683.0159512000009,683.0159512000009,685.016310500001,685.016310500001,685.016310500001,685.016310500001,685.0011200000008,3,0.9838767999990523,0.21151860000099987,None,,,,,,,,,,,,,,,,,,,,,7228,1,2025-10-31_12h07.02.383,sm,2024.2.4,59.91116372651712,2025-10-31 12h07.14.319014 +0100,
77,0,77,,,,,,space,4.552015299999766,None,None,2,1.486269099999845,0.17356090000066615,None,0,0,0,0,,,,,0,0,0,0,,,,,77,0,77,0,685.016310500001,,,,,,,,,,,,,,,,,,,,,,,,,,,,,,,,,,,,,,,,,,,,,,,,,,,,,,,,,,Fuß,3.6937,685.0016527999996,685.0021986000011,685.0023063000008,685.016310500001,688.7157007000005,688.7000420000004,688.7036633999996,688.7157007000005,688.7157007000005,688.7157007000005,688.7157007000005,690.7157053999999,690.7157053999999,690.7157053999999,690.7157053999999,690.7001258,2,1.486269099999845,0.17356090000066615,None,,,,,,,,,,,,,,,,,,,,,7228,1,2025-10-31_12h07.02.383,sm,2024.2.4,59.91116372651712,2025-10-31 12h07.14.319014 +0100,
78,0,78,,,,,,space,4.552015299999766,None,None,2,0.654537899999923,0.13665430000037304,None,0,0,0,0,,,,,0,0,0,0,,,,,78,0,78,0,690.7157053999999,,,,,,,,,,,,,,,,,,,,,,,,,,,,,,,,,,,,,,,,,,,,,,,,,,,,,,,,,,Augen,2.6307,690.7006371000007,690.7011514000005,690.7012567000002,690.7157053999999,693.3487765999998,693.3331911000005,693.3380792999997,693.3487765999998,693.3487765999998,693.3487765999998,693.3487765999998,695.3488237000001,695.3488237000001,695.3488237000001,695.3488237000001,695.3336095000013,2,0.654537899999923,0.13665430000037304,None,,,,,,,,,,,,,,,,,,,,,7228,1,2025-10-31_12h07.02.383,sm,2024.2.4,59.91116372651712,2025-10-31 12h07.14.319014 +0100,
79,0,79,,,,,,space,4.552015299999766,None,None,3,0.6197415000006004,0.1769220000005589,None,0,0,0,0,,,,,0,0,0,0,,,,,79,0,79,0,695.3488237000001,,,,,,,,,,,,,,,,,,,,,,,,,,,,,,,,,,,,,,,,,,,,,,,,,,,,,,,,,,Medaille,2.0041,695.3340877999999,695.3346748000004,695.3347779000014,695.3488237000001,697.3654070000011,697.3497760999999,697.3539582000012,697.3654070000011,697.3654070000011,697.3654070000011,697.3654070000011,699.3767150000003,699.3767150000003,699.3767150000003,699.3767150000003,699.3498834000002,3,0.6197415000006004,0.1769220000005589,None,,,,,,,,,,,,,,,,,,,,,7228,1,2025-10-31_12h07.02.383,sm,2024.2.4,59.91116372651712,2025-10-31 12h07.14.319014 +0100,
0,0,0,,,,,3.6937,space,2.2746007999994617,None,None,3,0.9564178000000538,0.2122949000004155,None,0,0,0,0,,,,,1,0,1,0,0,79,79,47,0,0,0,0,742.7626983999999,,,,,,,,,,,,,,,,,,,,,,,,,,,,,,,,,,,,716.3618901999998,716.3621359999997,716.3685024000006,716.3731451000003,716.3731451000003,718.6494837999999,space,2.2746007999994617,None,718.6496450000013,718.6642114000006,718.6642114000006,730.7482355000011,None,730.7554066000012,730.7631961000006,730.7635365666667,731.9648660000003,740.7633227666668,741.7643263000009,742.7626983999999,742.746997100001,Diamant,3.6937,742.7484108000008,742.7489984000003,742.7491083000004,742.7626983999999,746.4625078000008,746.4468431000005,746.4512133000007,746.4625078000008,746.4625078000008,746.4625078000008,746.4625078000008,748.4629362000014,748.4629362000014,748.4629362000014,748.4629362000014,748.4466418000011,3,0.9564178000000538,0.2122949000004155,None,711.3649364000012,711.3650128000008,None,711.3731497000008,711.3817496000011,715.3809996,715.3809996,715.3809996,716.3162244000014,2,0.9180037999994966,None,,,,,,,,,7228,1,2025-10-31_12h07.02.383,sm,2024.2.4,59.91116372651712,2025-10-31 12h07.14.319014 +0100,
1,0,1,,,,,,space,2.2746007999994617,None,None,3,0.6211395000009361,0.2119583000003331,None,0,0,0,0,,,,,1,0,1,0,,,,,1,0,1,0,748.4629362000014,,,,,,,,,,,,,,,,,,,,,,,,,,,,,,,,,,,,,,,,,,,,,,,,,,,,,,,,,,Schuh,2.0526,748.4471606000006,748.4477347000011,748.4478402000004,748.4629362000014,750.5288848,750.5135914000002,750.5175377000014,750.5288848,750.5288848,750.5288848,750.5288848,752.5289329000007,752.5289329000007,752.5289329000007,752.5289329000007,752.5133880000012,3,0.6211395000009361,0.2119583000003331,None,,,,,,,,,,,,,,,,,,,,,7228,1,2025-10-31_12h07.02.383,sm,2024.2.4,59.91116372651712,2025-10-31 12h07.14.319014 +0100,
2,0,2,,,,,,space,2.2746007999994617,None,None,2,0.7545480000007956,0.1607185999982903,None,0,0,0,0,,,,,1,0,1,0,,,,,2,0,2,0,752.5289329000007,,,,,,,,,,,,,,,,,,,,,,,,,,,,,,,,,,,,,,,,,,,,,,,,,,,,,,,,,,Fledermaus,3.0768,752.5138987000009,752.5145487999998,752.5146523000003,752.5289329000007,755.6116817000002,755.5962591000007,755.6006286000011,755.6116817000002,755.6116817000002,755.6116817000002,755.6116817000002,757.6118380000007,757.6118380000007,757.6118380000007,757.6118380000007,757.5964053000007,2,0.7545480000007956,0.1607185999982903,None,,,,,,,,,,,,,,,,,,,,,7228,1,2025-10-31_12h07.02.383,sm,2024.2.4,59.91116372651712,2025-10-31 12h07.14.319014 +0100,
3,0,3,,,,,,space,2.2746007999994617,None,None,3,0.6508277999982965,0.2897145000006276,None,0,0,0,0,,,,,1,0,1,0,,,,,3,0,3,0,757.6118380000007,,,,,,,,,,,,,,,,,,,,,,,,,,,,,,,,,,,,,,,,,,,,,,,,,,,,,,,,,,Center,2.6078,757.5969189000007,757.5974693999997,757.5975784000002,757.6118380000007,760.228008,760.2126778000002,760.2198242000013,760.228008,760.228008,760.228008,760.228008,762.2284181000014,762.2284181000014,762.2284181000014,762.2284181000014,762.2126555000013,3,0.6508277999982965,0.2897145000006276,None,,,,,,,,,,,,,,,,,,,,,7228,1,2025-10-31_12h07.02.383,sm,2024.2.4,59.91116372651712,2025-10-31 12h07.14.319014 +0100,
4,0,4,,,,,,space,2.2746007999994617,None,None,2,0.9692213999987871,0.15156340000066848,None,0,0,0,0,,,,,1,0,1,0,,,,,4,0,4,0,762.2284181000014,,,,,,,,,,,,,,,,,,,,,,,,,,,,,,,,,,,,,,,,,,,,,,,,,,,,,,,,,,Hai,2.1871,762.2131758000014,762.2136874999997,762.2137927000003,762.2284181000014,764.4279035,764.4123459000002,764.4157555000002,764.4279035,764.4279035,764.4279035,764.4279035,766.4281413999997,766.4281413999997,766.4281413999997,766.4281413999997,766.4125018000013,2,0.9692213999987871,0.15156340000066848,None,,,,,,,,,,,,,,,,,,,,,7228,1,2025-10-31_12h07.02.383,sm,2024.2.4,59.91116372651712,2025-10-31 12h07.14.319014 +0100,
5,0,5,,,,,,space,2.2746007999994617,None,None,3,0.6293355999987398,0.21540640000057465,None,0,0,0,0,,,,,1,0,1,0,,,,,5,0,5,0,766.4281413999997,,,,,,,,,,,,,,,,,,,,,,,,,,,,,,,,,,,,,,,,,,,,,,,,,,,,,,,,,,Bad,2.4415,766.4130132000009,766.4135886000004,766.4136943000012,766.4281413999997,768.8779477000007,768.8620651000001,768.8657046000008,768.8779477000007,768.8779477000007,768.8779477000007,768.8779477000007,770.8778246000002,770.8778246000002,770.8778246000002,770.8778246000002,770.8623564999998,3,0.6293355999987398,0.21540640000057465,None,,,,,,,,,,,,,,,,,,,,,7228,1,2025-10-31_12h07.02.383,sm,2024.2.4,59.91116372651712,2025-10-31 12h07.14.319014 +0100,
6,0,6,,,,,,space,2.2746007999994617,None,None,3,1.0243432999996003,0.2462668999996822,None,0,0,0,0,,,,,1,0,1,0,,,,,6,0,6,0,770.8778246000002,,,,,,,,,,,,,,,,,,,,,,,,,,,,,,,,,,,,,,,,,,,,,,,,,,,,,,,,,,Urlaub,2.4461,770.8628669999998,770.8635126000008,770.8636177000008,770.8778246000002,773.3275869000008,773.311864700001,773.3181026000002,773.3275869000008,773.3275869000008,773.3275869000008,773.3275869000008,775.3275845999997,775.3275845999997,775.3275845999997,775.3275845999997,775.3119280999999,3,1.0243432999996003,0.2462668999996822,None,,,,,,,,,,,,,,,,,,,,,7228,1,2025-10-31_12h07.02.383,sm,2024.2.4,59.91116372651712,2025-10-31 12h07.14.319014 +0100,
7,0,7,,,,,,space,2.2746007999994617,None,None,3,0.5317924999999377,0.24982379999892146,None,0,0,0,0,,,,,1,0,1,0,,,,,7,0,7,0,775.3275845999997,,,,,,,,,,,,,,,,,,,,,,,,,,,,,,,,,,,,,,,,,,,,,,,,,,,,,,,,,,Wein,2.995,775.3124538000011,775.3129581000012,775.3130629000007,775.3275845999997,778.3272675000007,778.3114856000011,778.3146499000013,778.3272675000007,778.3272675000007,778.3272675000007,778.3272675000007,780.3272703000002,780.3272703000002,780.3272703000002,780.3272703000002,780.3118532000008,3,0.5317924999999377,0.24982379999892146,None,,,,,,,,,,,,,,,,,,,,,7228,1,2025-10-31_12h07.02.383,sm,2024.2.4,59.91116372651712,2025-10-31 12h07.14.319014 +0100,
8,0,8,,,,,,space,2.2746007999994617,None,None,3,0.8744241999993392,0.19707930000004126,None,0,0,0,0,,,,,1,0,1,0,,,,,8,0,8,0,780.3272703000002,,,,,,,,,,,,,,,,,,,,,,,,,,,,,,,,,,,,,,,,,,,,,,,,,,,,,,,,,,Soße,2.1837,780.3123473000014,780.3131078000006,780.3132136000004,780.3272703000002,782.5107733000004,782.4947929999998,782.4983967999997,782.5107733000004,782.5107733000004,782.5107733000004,782.5107733000004,784.5103770000005,784.5103770000005,784.5103770000005,784.5103770000005,784.4949494000011,3,0.8744241999993392,0.19707930000004126,None,,,,,,,,,,,,,,,,,,,,,7228,1,2025-10-31_12h07.02.383,sm,2024.2.4,59.91116372651712,2025-10-31 12h07.14.319014 +0100,
9,0,9,,,,,,space,2.2746007999994617,None,None,2,1.3660121000011713,0.16464919999998529,None,0,0,0,0,,,,,1,0,1,0,,,,,9,0,9,0,784.5103770000005,,,,,,,,,,,,,,,,,,,,,,,,,,,,,,,,,,,,,,,,,,,,,,,,,,,,,,,,,,Frieden,2.0902,784.4954570999998,784.4959721000014,784.4960795000006,784.5103770000005,786.6100031000005,786.5944099000008,786.5993659000014,786.6100031000005,786.6100031000005,786.6100031000005,786.6100031000005,788.6100406000005,788.6100406000005,788.6100406000005,788.6100406000005,788.5945910999999,2,1.3660121000011713,0.16464919999998529,None,,,,,,,,,,,,,,,,,,,,,7228,1,2025-10-31_12h07.02.383,sm,2024.2.4,59.91116372651712,2025-10-31 12h07.14.319014 +0100,
10,0,10,,,,,,space,2.2746007999994617,None,None,2,0.718911100000696,0.16257079999923008,None,0,0,0,0,,,,,1,0,1,0,,,,,10,0,10,0,788.6100406000005,,,,,,,,,,,,,,,,,,,,,,,,,,,,,,,,,,,,,,,,,,,,,,,,,,,,,,,,,,Gruppe,2.3175,788.5951026000002,788.5956137000012,788.5957201000001,788.6100406000005,790.9267364000007,790.9108474000004,790.9148519000009,790.9267364000007,790.9267364000007,790.9267364000007,790.9267364000007,792.9265512000002,792.9265512000002,792.9265512000002,792.9265512000002,792.9109819000005,2,0.718911100000696,0.16257079999923008,None,,,,,,,,,,,,,,,,,,,,,7228,1,2025-10-31_12h07.02.383,sm,2024.2.4,59.91116372651712,2025-10-31 12h07.14.319014 +0100,
11,0,11,,,,,,space,2.2746007999994617,None,None,3,0.797054599999683,0.21842040000046836,None,0,0,0,0,,,,,1,0,1,0,,,,,11,0,11,0,792.9265512000002,,,,,,,,,,,,,,,,,,,,,,,,,,,,,,,,,,,,,,,,,,,,,,,,,,,,,,,,,,Fahrrad,2.4578,792.9114881000005,792.9121414000001,792.9122458000002,792.9265512000002,795.3931408000008,795.3775802,795.3821081000006,795.3931408000008,795.3931408000008,795.3931408000008,795.3931408000008,797.3929315000005,797.3929315000005,797.3929315000005,797.3929315000005,797.3773053000004,3,0.797054599999683,0.21842040000046836,None,,,,,,,,,,,,,,,,,,,,,7228,1,2025-10-31_12h07.02.383,sm,2024.2.4,59.91116372651712,2025-10-31 12h07.14.319014 +0100,
12,0,12,,,,,,space,2.2746007999994617,None,None,2,1.1835992000014812,0.16072199999871373,None,0,0,0,0,,,,,1,0,1,0,,,,,12,0,12,0,797.3929315000005,,,,,,,,,,,,,,,,,,,,,,,,,,,,,,,,,,,,,,,,,,,,,,,,,,,,,,,,,,Spaß,4.5772,797.3778194000006,797.3784769000013,797.3785808000011,797.3929315000005,801.9759273,801.9605368000011,801.9643508999998,801.9759273,801.9759273,801.9759273,801.9759273,803.9758418000001,803.9758418000001,803.9758418000001,803.9758418000001,803.9601659,2,1.1835992000014812,0.16072199999871373,None,,,,,,,,,,,,,,,,,,,,,7228,1,2025-10-31_12h07.02.383,sm,2024.2.4,59.91116372651712,2025-10-31 12h07.14.319014 +0100,
13,0,13,,,,,,space,2.2746007999994617,None,None,3,0.6850780000004306,0.27326739999989513,None,0,0,0,0,,,,,1,0,1,0,,,,,13,0,13,0,803.9758418000001,,,,,,,,,,,,,,,,,,,,,,,,,,,,,,,,,,,,,,,,,,,,,,,,,,,,,,,,,,Tal,2.8656,803.9606474000011,803.9611581999998,803.9612551000009,803.9758418000001,806.8421697000013,806.8265664999999,806.8297823000012,806.8421697000013,806.8421697000013,806.8421697000013,806.8421697000013,808.8422539000003,808.8422539000003,808.8422539000003,808.8422539000003,808.8267145000009,3,0.6850780000004306,0.27326739999989513,None,,,,,,,,,,,,,,,,,,,,,7228,1,2025-10-31_12h07.02.383,sm,2024.2.4,59.91116372651712,2025-10-31 12h07.14.319014 +0100,
14,0,14,,,,,,space,2.2746007999994617,None,None,3,0.8505533000006835,0.20982019999974,None,0,0,0,0,,,,,1,0,1,0,,,,,14,0,14,0,808.8422539000003,,,,,,,,,,,,,,,,,,,,,,,,,,,,,,,,,,,,,,,,,,,,,,,,,,,,,,,,,,Duft,2.9334,808.8272646000005,808.8277985000004,808.827904400001,808.8422539000003,811.7755222000014,811.7598405999997,811.7635537000006,811.7755222000014,811.7755222000014,811.7755222000014,811.7755222000014,813.7753800999999,813.7753800999999,813.7753800999999,813.7753800999999,813.7598091,3,0.8505533000006835,0.20982019999974,None,,,,,,,,,,,,,,,,,,,,,7228,1,2025-10-31_12h07.02.383,sm,2024.2.4,59.91116372651712,2025-10-31 12h07.14.319014 +0100,
15,0,15,,,,,,space,2.2746007999994617,None,None,3,1.224008600000161,0.2044737999985955,None,0,0,0,0,,,,,1,0,1,0,,,,,15,0,15,0,813.7753800999999,,,,,,,,,,,,,,,,,,,,,,,,,,,,,,,,,,,,,,,,,,,,,,,,,,,,,,,,,,Sterne,3.1239,813.7603219000011,813.7608173000008,813.7609203000011,813.7753800999999,816.9088649000005,816.8925882000003,816.8962429000003,816.9088649000005,816.9088649000005,816.9088649000005,816.9088649000005,818.9083010000013,818.9083010000013,818.9083010000013,818.9083010000013,818.8929595000009,3,1.224008600000161,0.2044737999985955,None,,,,,,,,,,,,,,,,,,,,,7228,1,2025-10-31_12h07.02.383,sm,2024.2.4,59.91116372651712,2025-10-31 12h07.14.319014 +0100,
16,0,16,,,,,,space,2.2746007999994617,None,None,2,1.0185429000011936,0.13401259999955073,None,0,0,0,0,,,,,1,0,1,0,,,,,16,0,16,0,818.9083010000013,,,,,,,,,,,,,,,,,,,,,,,,,,,,,,,,,,,,,,,,,,,,,,,,,,,,,,,,,,Koch,3.6403,818.8935031000001,818.8940172000002,818.8941235000002,818.9083010000013,822.5581877000004,822.5423987000013,822.5464874000008,822.5581877000004,822.5581877000004,822.5581877000004,822.5581877000004,824.5580863000014,824.5580863000014,824.5580863000014,824.5580863000014,824.5425317000008,2,1.0185429000011936,0.13401259999955073,None,,,,,,,,,,,,,,,,,,,,,7228,1,2025-10-31_12h07.02.383,sm,2024.2.4,59.91116372651712,2025-10-31 12h07.14.319014 +0100,
17,0,17,,,,,,space,2.2746007999994617,None,None,3,1.1388767000007647,0.17491769999833195,None,0,0,0,0,,,,,1,0,1,0,,,,,17,0,17,0,824.5580863000014,,,,,,,,,,,,,,,,,,,,,,,,,,,,,,,,,,,,,,,,,,,,,,,,,,,,,,,,,,Wind,2.9261,824.5430437000014,824.5435542000014,824.5436597000007,824.5580863000014,827.4910376000007,827.4755031000004,827.4792113000003,827.4910376000007,827.4910376000007,827.4910376000007,827.4910376000007,829.4914899000014,829.4914899000014,829.4914899000014,829.4914899000014,829.4758840000013,3,1.1388767000007647,0.17491769999833195,None,,,,,,,,,,,,,,,,,,,,,7228,1,2025-10-31_12h07.02.383,sm,2024.2.4,59.91116372651712,2025-10-31 12h07.14.319014 +0100,
18,0,18,,,,,,space,2.2746007999994617,None,None,2,1.3799465000010969,0.16658169999936945,None,0,0,0,0,,,,,1,0,1,0,,,,,18,0,18,0,829.4914899000014,,,,,,,,,,,,,,,,,,,,,,,,,,,,,,,,,,,,,,,,,,,,,,,,,,,,,,,,,,Wissen,3.1501,829.4764152999996,829.4769542000013,829.4770643000011,829.4914899000014,832.6408979999997,832.6252252000013,832.6292224000008,832.6408979999997,832.6408979999997,832.6408979999997,832.6408979999997,834.6408449999999,834.6408449999999,834.6408449999999,834.6408449999999,834.6250294000001,2,1.3799465000010969,0.16658169999936945,None,,,,,,,,,,,,,,,,,,,,,7228,1,2025-10-31_12h07.02.383,sm,2024.2.4,59.91116372651712,2025-10-31 12h07.14.319014 +0100,
19,0,19,,,,,,space,2.2746007999994617,None,None,3,0.9132403999992675,0.18311020000146527,None,0,0,0,0,,,,,1,0,1,0,,,,,19,0,19,0,834.6408449999999,,,,,,,,,,,,,,,,,,,,,,,,,,,,,,,,,,,,,,,,,,,,,,,,,,,,,,,,,,Tee,2.2914,834.6255063000008,834.6260798000003,834.6261783999998,834.6408449999999,836.9408011000014,836.9247903000014,836.9279179000005,836.9408011000014,836.9408011000014,836.9408011000014,836.9408011000014,838.9405382000004,838.9405382000004,838.9405382000004,838.9405382000004,838.9249443999997,3,0.9132403999992675,0.18311020000146527,None,,,,,,,,,,,,,,,,,,,,,7228,1,2025-10-31_12h07.02.383,sm,2024.2.4,59.91116372651712,2025-10-31 12h07.14.319014 +0100,
20,0,20,,,,,,space,2.2746007999994617,None,None,3,0.5900186999988364,0.2029115000004822,None,0,0,0,0,,,,,1,0,1,0,,,,,20,0,20,0,838.9405382000004,,,,,,,,,,,,,,,,,,,,,,,,,,,,,,,,,,,,,,,,,,,,,,,,,,,,,,,,,,Kamera,3.1855,838.9254606000013,838.9259750000001,838.9260828000006,838.9405382000004,842.1402914999999,842.1245474000007,842.1279740999998,842.1402914999999,842.1402914999999,842.1402914999999,842.1402914999999,844.1403473000009,844.1403473000009,844.1403473000009,844.1403473000009,844.1248078000008,3,0.5900186999988364,0.2029115000004822,None,,,,,,,,,,,,,,,,,,,,,7228,1,2025-10-31_12h07.02.383,sm,2024.2.4,59.91116372651712,2025-10-31 12h07.14.319014 +0100,
21,0,21,,,,,,space,2.2746007999994617,None,None,2,0.8097674000000552,0.16753659999994852,None,0,0,0,0,,,,,1,0,1,0,,,,,21,0,21,0,844.1403473000009,,,,,,,,,,,,,,,,,,,,,,,,,,,,,,,,,,,,,,,,,,,,,,,,,,,,,,,,,,Schaf,3.7214,844.1253225,844.1258280000002,844.1259347000014,844.1403473000009,847.8734359000009,847.8578954000004,847.8619835000009,847.8734359000009,847.8734359000009,847.8734359000009,847.8734359000009,849.8731419000014,849.8731419000014,849.8731419000014,849.8731419000014,849.8578163000002,2,0.8097674000000552,0.16753659999994852,None,,,,,,,,,,,,,,,,,,,,,7228,1,2025-10-31_12h07.02.383,sm,2024.2.4,59.91116372651712,2025-10-31 12h07.14.319014 +0100,
22,0,22,,,,,,space,2.2746007999994617,None,None,3,1.1845769999999902,0.21758709999994608,None,0,0,0,0,,,,,1,0,1,0,,,,,22,0,22,0,849.8731419000014,,,,,,,,,,,,,,,,,,,,,,,,,,,,,,,,,,,,,,,,,,,,,,,,,,,,,,,,,,Gegenwart,2.2431,849.8583316000004,849.8588536000007,849.8589577000002,849.8731419000014,852.1231966000014,852.1073441999997,852.1117188999997,852.1231966000014,852.1231966000014,852.1231966000014,852.1231966000014,854.1230135000005,854.1230135000005,854.1230135000005,854.1230135000005,854.1074286000003,3,1.1845769999999902,0.21758709999994608,None,,,,,,,,,,,,,,,,,,,,,7228,1,2025-10-31_12h07.02.383,sm,2024.2.4,59.91116372651712,2025-10-31 12h07.14.319014 +0100,
23,0,23,,,,,,space,2.2746007999994617,None,None,3,1.1299730999999156,0.19451020000087738,None,0,0,0,0,,,,,1,0,1,0,,,,,23,0,23,0,854.1230135000005,,,,,,,,,,,,,,,,,,,,,,,,,,,,,,,,,,,,,,,,,,,,,,,,,,,,,,,,,,Lokomotive,5.0207,854.1079798999999,854.1087629000012,854.1088970000001,854.1230135000005,859.1560074000008,859.1402661000011,859.1468796999998,859.1560074000008,859.1560074000008,859.1560074000008,859.1560074000008,861.1559991000013,861.1559991000013,861.1559991000013,861.1559991000013,861.1407213000002,3,1.1299730999999156,0.19451020000087738,None,,,,,,,,,,,,,,,,,,,,,7228,1,2025-10-31_12h07.02.383,sm,2024.2.4,59.91116372651712,2025-10-31 12h07.14.319014 +0100,
24,0,24,,,,,,space,2.2746007999994617,None,None,3,0.806901599999037,0.18156910000107018,None,0,0,0,0,,,,,1,0,1,0,,,,,24,0,24,0,861.1559991000013,,,,,,,,,,,,,,,,,,,,,,,,,,,,,,,,,,,,,,,,,,,,,,,,,,,,,,,,,,Chips,2.904,861.1412349000002,861.1417625000013,861.1418678000009,861.1559991000013,864.0721126999997,864.0567091000012,864.0608170000014,864.0721126999997,864.0721126999997,864.0721126999997,864.0721126999997,866.0721129000012,866.0721129000012,866.0721129000012,866.0721129000012,866.0570093000006,3,0.806901599999037,0.18156910000107018,None,,,,,,,,,,,,,,,,,,,,,7228,1,2025-10-31_12h07.02.383,sm,2024.2.4,59.91116372651712,2025-10-31 12h07.14.319014 +0100,
25,0,25,,,,,,space,2.2746007999994617,None,None,3,0.6817401000007521,0.20898459999989427,None,0,0,0,0,,,,,1,0,1,0,,,,,25,0,25,0,866.0721129000012,,,,,,,,,,,,,,,,,,,,,,,,,,,,,,,,,,,,,,,,,,,,,,,,,,,,,,,,,,Auto,3.2439,866.0575268000011,866.0580499000007,866.0581555000008,866.0721129000012,869.3219589,869.3062476000014,869.3093874000006,869.3219589,869.3219589,869.3219589,869.3219589,871.3219675,871.3219675,871.3219675,871.3219675,871.3063379000014,3,0.6817401000007521,0.20898459999989427,None,,,,,,,,,,,,,,,,,,,,,7228,1,2025-10-31_12h07.02.383,sm,2024.2.4,59.91116372651712,2025-10-31 12h07.14.319014 +0100,
26,0,26,,,,,,space,2.2746007999994617,None,None,3,0.8087679999989632,0.2754261000009137,None,0,0,0,0,,,,,1,0,1,0,,,,,26,0,26,0,871.3219675,,,,,,,,,,,,,,,,,,,,,,,,,,,,,,,,,,,,,,,,,,,,,,,,,,,,,,,,,,Spülung,2.5814,871.3068456000001,871.3075156000014,871.3076254000007,871.3219675,873.9050580000003,873.8896796000008,873.8936778000007,873.9050580000003,873.9050580000003,873.9050580000003,873.9050580000003,875.9050666000003,875.9050666000003,875.9050666000003,875.9050666000003,875.8894439000014,3,0.8087679999989632,0.2754261000009137,None,,,,,,,,,,,,,,,,,,,,,7228,1,2025-10-31_12h07.02.383,sm,2024.2.4,59.91116372651712,2025-10-31 12h07.14.319014 +0100,
27,0,27,,,,,,space,2.2746007999994617,None,None,3,0.6382852000006096,0.22885189999942668,None,0,0,0,0,,,,,1,0,1,0,,,,,27,0,27,0,875.9050666000003,,,,,,,,,,,,,,,,,,,,,,,,,,,,,,,,,,,,,,,,,,,,,,,,,,,,,,,,,,Orange,3.0237,875.8899524000008,875.8904715999997,875.8905766000007,875.9050666000003,878.9379186000006,878.9223609000001,878.9286264000002,878.9379186000006,878.9379186000006,878.9379186000006,878.9379186000006,880.9381604999999,880.9381604999999,880.9381604999999,880.9381604999999,880.9226868000005,3,0.6382852000006096,0.22885189999942668,None,,,,,,,,,,,,,,,,,,,,,7228,1,2025-10-31_12h07.02.383,sm,2024.2.4,59.91116372651712,2025-10-31 12h07.14.319014 +0100,
28,0,28,,,,,,space,2.2746007999994617,None,None,2,0.7819956999992428,0.14093560000037542,None,0,0,0,0,,,,,1,0,1,0,,,,,28,0,28,0,880.9381604999999,,,,,,,,,,,,,,,,,,,,,,,,,,,,,,,,,,,,,,,,,,,,,,,,,,,,,,,,,,Löwe,2.674,880.9231957000011,880.9239286000011,880.9240336000003,880.9381604999999,883.621322500001,883.6055042999997,883.6092199000013,883.621322500001,883.621322500001,883.621322500001,883.621322500001,885.6212065,885.6212065,885.6212065,885.6212065,885.6056377000004,2,0.7819956999992428,0.14093560000037542,None,,,,,,,,,,,,,,,,,,,,,7228,1,2025-10-31_12h07.02.383,sm,2024.2.4,59.91116372651712,2025-10-31 12h07.14.319014 +0100,
29,0,29,,,,,,space,2.2746007999994617,None,None,3,1.0119870999988052,0.1292172000012215,None,0,0,0,0,,,,,1,0,1,0,,,,,29,0,29,0,885.6212065,,,,,,,,,,,,,,,,,,,,,,,,,,,,,,,,,,,,,,,,,,,,,,,,,,,,,,,,,,Schwung,3.1155,885.6061533000011,885.6066547999999,885.606757900001,885.6212065,888.7374202999999,888.7220632000008,888.7271314999998,888.7374202999999,888.7374202999999,888.7374202999999,888.7374202999999,890.7375561000008,890.7375561000008,890.7375561000008,890.7375561000008,890.7220753000001,3,1.0119870999988052,0.1292172000012215,None,,,,,,,,,,,,,,,,,,,,,7228,1,2025-10-31_12h07.02.383,sm,2024.2.4,59.91116372651712,2025-10-31 12h07.14.319014 +0100,
30,0,30,,,,,,space,2.2746007999994617,None,None,3,0.9448205999997299,0.17411539999920933,None,0,0,0,0,,,,,1,0,1,0,,,,,30,0,30,0,890.7375561000008,,,,,,,,,,,,,,,,,,,,,,,,,,,,,,,,,,,,,,,,,,,,,,,,,,,,,,,,,,Schleim,2.2541,890.7225884,890.7232406000003,890.7233429000007,890.7375561000008,893.0041798000002,892.9883691000014,892.9924886999997,893.0041798000002,893.0041798000002,893.0041798000002,893.0041798000002,895.0039832000002,895.0039832000002,895.0039832000002,895.0039832000002,894.9883784000012,3,0.9448205999997299,0.17411539999920933,None,,,,,,,,,,,,,,,,,,,,,7228,1,2025-10-31_12h07.02.383,sm,2024.2.4,59.91116372651712,2025-10-31 12h07.14.319014 +0100,
31,0,31,,,,,,space,2.2746007999994617,None,None,3,1.3003919000002497,0.2315083000012237,None,0,0,0,0,,,,,1,0,1,0,,,,,31,0,31,0,895.0039832000002,,,,,,,,,,,,,,,,,,,,,,,,,,,,,,,,,,,,,,,,,,,,,,,,,,,,,,,,,,Sturm,2.0472,894.9888910999998,894.9893962000006,894.9895030999996,895.0039832000002,897.0536776999998,897.0380559000005,897.0417180000004,897.0536776999998,897.0536776999998,897.0536776999998,897.0536776999998,899.0538159000007,899.0538159000007,899.0538159000007,899.0538159000007,899.0381307999996,3,1.3003919000002497,0.2315083000012237,None,,,,,,,,,,,,,,,,,,,,,7228,1,2025-10-31_12h07.02.383,sm,2024.2.4,59.91116372651712,2025-10-31 12h07.14.319014 +0100,
32,0,32,,,,,,space,2.2746007999994617,None,None,3,0.5828461000000971,0.2799085999995441,None,0,0,0,0,,,,,1,0,1,0,,,,,32,0,32,0,899.0538159000007,,,,,,,,,,,,,,,,,,,,,,,,,,,,,,,,,,,,,,,,,,,,,,,,,,,,,,,,,,Gewürz,2.0864,899.0386518000014,899.0393884000005,899.0394925,899.0538159000007,901.1535781000002,901.1379567000004,901.1422010000006,901.1535781000002,901.1535781000002,901.1535781000002,901.1535781000002,903.1537758000013,903.1537758000013,903.1537758000013,903.1537758000013,903.1378395000011,3,0.5828461000000971,0.2799085999995441,None,,,,,,,,,,,,,,,,,,,,,7228,1,2025-10-31_12h07.02.383,sm,2024.2.4,59.91116372651712,2025-10-31 12h07.14.319014 +0100,
33,0,33,,,,,,space,2.2746007999994617,None,None,2,1.1955101999992621,0.14161090000015975,None,0,0,0,0,,,,,1,0,1,0,,,,,33,0,33,0,903.1537758000013,,,,,,,,,,,,,,,,,,,,,,,,,,,,,,,,,,,,,,,,,,,,,,,,,,,,,,,,,,Fliegen,3.5822,903.1383560000013,903.1390064000007,903.1391125999999,903.1537758000013,906.7364961000003,906.7208744,906.7256132000002,906.7364961000003,906.7364961000003,906.7364961000003,906.7364961000003,908.7367050000012,908.7367050000012,908.7367050000012,908.7367050000012,908.7209966999999,2,1.1955101999992621,0.14161090000015975,None,,,,,,,,,,,,,,,,,,,,,7228,1,2025-10-31_12h07.02.383,sm,2024.2.4,59.91116372651712,2025-10-31 12h07.14.319014 +0100,
34,0,34,,,,,,space,2.2746007999994617,None,None,3,0.6682421999994403,0.198512999999366,None,0,0,0,0,,,,,1,0,1,0,,,,,34,0,34,0,908.7367050000012,,,,,,,,,,,,,,,,,,,,,,,,,,,,,,,,,,,,,,,,,,,,,,,,,,,,,,,,,,Zimmer,4.1314,908.7215116000007,908.7220370000014,908.722146600001,908.7367050000012,912.8698068000012,912.8540126999997,912.8582240000014,912.8698068000012,912.8698068000012,912.8698068000012,912.8698068000012,914.8695335000011,914.8695335000011,914.8695335000011,914.8695335000011,914.8538372000003,3,0.6682421999994403,0.198512999999366,None,,,,,,,,,,,,,,,,,,,,,7228,1,2025-10-31_12h07.02.383,sm,2024.2.4,59.91116372651712,2025-10-31 12h07.14.319014 +0100,
35,0,35,,,,,,space,2.2746007999994617,None,None,2,0.63195480000104,0.17663679999895976,None,0,0,0,0,,,,,1,0,1,0,,,,,35,0,35,0,914.8695335000011,,,,,,,,,,,,,,,,,,,,,,,,,,,,,,,,,,,,,,,,,,,,,,,,,,,,,,,,,,Autorin,2.152,914.8543499000007,914.8549984000001,914.8551027000012,914.8695335000011,917.0358059999999,917.0202589,917.0250348000009,917.0358059999999,917.0358059999999,917.0358059999999,917.0358059999999,919.036145,919.036145,919.036145,919.036145,919.0207021000006,2,0.63195480000104,0.17663679999895976,None,,,,,,,,,,,,,,,,,,,,,7228,1,2025-10-31_12h07.02.383,sm,2024.2.4,59.91116372651712,2025-10-31 12h07.14.319014 +0100,
36,0,36,,,,,,space,2.2746007999994617,None,None,3,0.733914200000072,0.18357359999936307,None,0,0,0,0,,,,,1,0,1,0,,,,,36,0,36,0,919.036145,,,,,,,,,,,,,,,,,,,,,,,,,,,,,,,,,,,,,,,,,,,,,,,,,,,,,,,,,,Platz,2.4875,919.0212592000007,919.0218050000003,919.0219142000005,919.036145,921.5357307000013,921.5198268000004,921.5230661000005,921.5357307000013,921.5357307000013,921.5357307000013,921.5357307000013,923.5355490000002,923.5355490000002,923.5355490000002,923.5355490000002,923.520055500001,3,0.733914200000072,0.18357359999936307,None,,,,,,,,,,,,,,,,,,,,,7228,1,2025-10-31_12h07.02.383,sm,2024.2.4,59.91116372651712,2025-10-31 12h07.14.319014 +0100,
37,0,37,,,,,,space,2.2746007999994617,None,None,2,0.6266789999990579,0.1431998999996722,None,0,0,0,0,,,,,1,0,1,0,,,,,37,0,37,0,923.5355490000002,,,,,,,,,,,,,,,,,,,,,,,,,,,,,,,,,,,,,,,,,,,,,,,,,,,,,,,,,,Vogel,2.9079,923.5205724000007,923.5210807000003,923.5211858000002,923.5355490000002,926.4517754999997,926.4362472000012,926.4396809999998,926.4517754999997,926.4517754999997,926.4517754999997,926.4517754999997,928.4519586000006,928.4519586000006,928.4519586000006,928.4519586000006,928.4367588000005,2,0.6266789999990579,0.1431998999996722,None,,,,,,,,,,,,,,,,,,,,,7228,1,2025-10-31_12h07.02.383,sm,2024.2.4,59.91116372651712,2025-10-31 12h07.14.319014 +0100,
38,0,38,,,,,,space,2.2746007999994617,None,None,3,0.6810728999989806,0.20839920000071288,None,0,0,0,0,,,,,1,0,1,0,,,,,38,0,38,0,928.4519586000006,,,,,,,,,,,,,,,,,,,,,,,,,,,,,,,,,,,,,,,,,,,,,,,,,,,,,,,,,,Gel,3.5834,928.4372632000013,928.4380208000002,928.4381252000003,928.4519586000006,932.0348789,932.0193682000008,932.0226651000012,932.0348789,932.0348789,932.0348789,932.0348789,934.0350324999999,934.0350324999999,934.0350324999999,934.0350324999999,934.0198109000012,3,0.6810728999989806,0.20839920000071288,None,,,,,,,,,,,,,,,,,,,,,7228,1,2025-10-31_12h07.02.383,sm,2024.2.4,59.91116372651712,2025-10-31 12h07.14.319014 +0100,
39,0,39,,,,,,space,2.2746007999994617,None,None,2,0.7475116000005073,0.17329640000025393,None,0,0,0,0,,,,,1,0,1,0,,,,,39,0,39,0,934.0350324999999,,,,,,,,,,,,,,,,,,,,,,,,,,,,,,,,,,,,,,,,,,,,,,,,,,,,,,,,,,Agent,5.5529,934.0203216999998,934.0208324000014,934.0209365999999,934.0350324999999,939.6010230000011,939.5854873999997,939.5890611000013,939.6010230000011,939.6010230000011,939.6010230000011,939.6010230000011,941.6013395000009,941.6013395000009,941.6013395000009,941.6013395000009,941.5858766000001,2,0.7475116000005073,0.17329640000025393,None,,,,,,,,,,,,,,,,,,,,,7228,1,2025-10-31_12h07.02.383,sm,2024.2.4,59.91116372651712,2025-10-31 12h07.14.319014 +0100,
40,0,40,,,,,,space,2.2746007999994617,None,None,3,1.6227844999993977,0.2510139000005438,None,0,0,0,0,,,,,1,0,1,0,,,,,40,0,40,0,941.6013395000009,,,,,,,,,,,,,,,,,,,,,,,,,,,,,,,,,,,,,,,,,,,,,,,,,,,,,,,,,,Gespräch,2.9843,941.5863839000012,941.5872205000014,941.5873951000012,941.6013395000009,944.6010105000005,944.5854023000011,944.5895737999999,944.6010105000005,944.6010105000005,944.6010105000005,944.6010105000005,946.6010294000007,946.6010294000007,946.6010294000007,946.6010294000007,946.5854364000006,3,1.6227844999993977,0.2510139000005438,None,,,,,,,,,,,,,,,,,,,,,7228,1,2025-10-31_12h07.02.383,sm,2024.2.4,59.91116372651712,2025-10-31 12h07.14.319014 +0100,
41,0,41,,,,,,space,2.2746007999994617,None,None,3,1.0501666000000114,0.22437669999999343,None,0,0,0,0,,,,,1,0,1,0,,,,,41,0,41,0,946.6010294000007,,,,,,,,,,,,,,,,,,,,,,,,,,,,,,,,,,,,,,,,,,,,,,,,,,,,,,,,,,Erbe,2.0636,946.5859541000009,946.5864837000008,946.5865892000002,946.6010294000007,948.6674756000011,948.6518233000006,948.6554479000006,948.6674756000011,948.6674756000011,948.6674756000011,948.6674756000011,950.6674153000004,950.6674153000004,950.6674153000004,950.6674153000004,950.6519678000004,3,1.0501666000000114,0.22437669999999343,None,,,,,,,,,,,,,,,,,,,,,7228,1,2025-10-31_12h07.02.383,sm,2024.2.4,59.91116372651712,2025-10-31 12h07.14.319014 +0100,
42,0,42,,,,,,space,2.2746007999994617,None,None,3,0.900468699999692,0.3314561999995931,None,0,0,0,0,,,,,1,0,1,0,,,,,42,0,42,0,950.6674153000004,,,,,,,,,,,,,,,,,,,,,,,,,,,,,,,,,,,,,,,,,,,,,,,,,,,,,,,,,,Rasen,2.1036,950.6524798999999,950.6530221000012,950.6531286000009,950.6674153000004,952.7840437000013,952.768343400001,952.7731469000009,952.7840437000013,952.7840437000013,952.7840437000013,952.7840437000013,954.7843387000012,954.7843387000012,954.7843387000012,954.7843387000012,954.7681646000001,3,0.900468699999692,0.3314561999995931,None,,,,,,,,,,,,,,,,,,,,,7228,1,2025-10-31_12h07.02.383,sm,2024.2.4,59.91116372651712,2025-10-31 12h07.14.319014 +0100,
43,0,43,,,,,,space,2.2746007999994617,None,None,2,1.1668358000006265,0.18169059999854653,None,0,0,0,0,,,,,1,0,1,0,,,,,43,0,43,0,954.7843387000012,,,,,,,,,,,,,,,,,,,,,,,,,,,,,,,,,,,,,,,,,,,,,,,,,,,,,,,,,,Ehe,2.0041,954.7686793000012,954.7693317000012,954.7694351000009,954.7843387000012,956.8003340000014,956.7846335000013,956.7883474999999,956.8003340000014,956.8003340000014,956.8003340000014,956.8003340000014,958.8002527999997,958.8002527999997,958.8002527999997,958.8002527999997,958.7851308000008,2,1.1668358000006265,0.18169059999854653,None,,,,,,,,,,,,,,,,,,,,,7228,1,2025-10-31_12h07.02.383,sm,2024.2.4,59.91116372651712,2025-10-31 12h07.14.319014 +0100,
44,0,44,,,,,,space,2.2746007999994617,None,None,3,1.0484777000001486,0.19213680000029854,None,0,0,0,0,,,,,1,0,1,0,,,,,44,0,44,0,958.8002527999997,,,,,,,,,,,,,,,,,,,,,,,,,,,,,,,,,,,,,,,,,,,,,,,,,,,,,,,,,,Beugen,3.448,958.7856465000004,958.7861565000003,958.7862615000013,958.8002527999997,962.2499368000008,962.2344303999998,962.2385109000006,962.2499368000008,962.2499368000008,962.2499368000008,962.2499368000008,964.2504305000002,964.2504305000002,964.2504305000002,964.2504305000002,964.2344716000007,3,1.0484777000001486,0.19213680000029854,None,,,,,,,,,,,,,,,,,,,,,7228,1,2025-10-31_12h07.02.383,sm,2024.2.4,59.91116372651712,2025-10-31 12h07.14.319014 +0100,
45,0,45,,,,,,space,2.2746007999994617,None,None,3,1.4452068000009604,0.18881709999914165,None,0,0,0,0,,,,,1,0,1,0,,,,,45,0,45,0,964.2504305000002,,,,,,,,,,,,,,,,,,,,,,,,,,,,,,,,,,,,,,,,,,,,,,,,,,,,,,,,,,Riechen,3.5467,964.2349789,964.2355633000006,964.2356681000001,964.2504305000002,967.7996917,967.7841040000003,967.788200500001,967.7996917,967.7996917,967.7996917,967.7996917,969.7997181999999,969.7997181999999,969.7997181999999,969.7997181999999,969.7840094000003,3,1.4452068000009604,0.18881709999914165,None,,,,,,,,,,,,,,,,,,,,,7228,1,2025-10-31_12h07.02.383,sm,2024.2.4,59.91116372651712,2025-10-31 12h07.14.319014 +0100,
46,0,46,,,,,,space,2.2746007999994617,None,None,3,0.6239260000002105,0.18234840000150143,None,0,0,0,0,,,,,1,0,1,0,,,,,46,0,46,0,969.7997181999999,,,,,,,,,,,,,,,,,,,,,,,,,,,,,,,,,,,,,,,,,,,,,,,,,,,,,,,,,,Büro,3.2288,969.7845229000013,969.7850347000003,969.7851382000008,969.7997181999999,973.0327892000005,973.0172395999998,973.0208767000004,973.0327892000005,973.0327892000005,973.0327892000005,973.0327892000005,975.0327052000011,975.0327052000011,975.0327052000011,975.0327052000011,975.0171934999998,3,0.6239260000002105,0.18234840000150143,None,,,,,,,,,,,,,,,,,,,,,7228,1,2025-10-31_12h07.02.383,sm,2024.2.4,59.91116372651712,2025-10-31 12h07.14.319014 +0100,
47,0,47,,,,,,space,2.2746007999994617,None,None,3,0.6988591000008455,0.19445640000049025,None,0,0,0,0,,,,,1,0,1,0,,,,,47,0,47,0,975.0327052000011,,,,,,,,,,,,,,,,,,,,,,,,,,,,,,,,,,,,,,,,,,,,,,,,,,,,,,,,,,Rauch,2.6164,975.0177112000001,975.0182306000006,975.0183338000006,975.0327052000011,977.6493220000011,977.6334287999998,977.6371653000006,977.6493220000011,977.6493220000011,977.6493220000011,977.6493220000011,979.6490224000008,979.6490224000008,979.6490224000008,979.6490224000008,979.6334652000005,3,0.6988591000008455,0.19445640000049025,None,,,,,,,,,,,,,,,,,,,,,7228,1,2025-10-31_12h07.02.383,sm,2024.2.4,59.91116372651712,2025-10-31 12h07.14.319014 +0100,
48,0,48,,,,,,space,2.2746007999994617,None,None,3,1.4060358999995515,0.28419709999980114,None,0,0,0,0,,,,,1,0,1,0,,,,,48,0,48,0,979.6490224000008,,,,,,,,,,,,,,,,,,,,,,,,,,,,,,,,,,,,,,,,,,,,,,,,,,,,,,,,,,Weinen,2.9813,979.6339845000002,979.6345517000009,979.6346583000013,979.6490224000008,982.6321752000003,982.6164406000007,982.6205636000013,982.6321752000003,982.6321752000003,982.6321752000003,982.6321752000003,984.6321688000007,984.6321688000007,984.6321688000007,984.6321688000007,984.6165591000008,3,1.4060358999995515,0.28419709999980114,None,,,,,,,,,,,,,,,,,,,,,7228,1,2025-10-31_12h07.02.383,sm,2024.2.4,59.91116372651712,2025-10-31 12h07.14.319014 +0100,
49,0,49,,,,,,space,2.2746007999994617,None,None,2,1.513918400001785,0.1667442999987543,None,0,0,0,0,,,,,1,0,1,0,,,,,49,0,49,0,984.6321688000007,,,,,,,,,,,,,,,,,,,,,,,,,,,,,,,,,,,,,,,,,,,,,,,,,,,,,,,,,,Blatt,2.245,984.6170714,984.6175754000014,984.6176804000006,984.6321688000007,986.8817653000006,986.8662476000009,986.8709193000013,986.8817653000006,986.8817653000006,986.8817653000006,986.8817653000006,988.8817338999997,988.8817338999997,988.8817338999997,988.8817338999997,988.8665225000004,2,1.513918400001785,0.1667442999987543,None,,,,,,,,,,,,,,,,,,,,,7228,1,2025-10-31_12h07.02.383,sm,2024.2.4,59.91116372651712,2025-10-31 12h07.14.319014 +0100,
50,0,50,,,,,,space,2.2746007999994617,None,None,2,0.9380313000001479,0.18655320000107167,None,0,0,0,0,,,,,1,0,1,0,,,,,50,0,50,0,988.8817338999997,,,,,,,,,,,,,,,,,,,,,,,,,,,,,,,,,,,,,,,,,,,,,,,,,,,,,,,,,,Hand,4.4105,988.8670306000004,988.8675481999999,988.8676530000012,988.8817338999997,993.298103000001,993.2825057000009,993.2862313000005,993.298103000001,993.298103000001,993.298103000001,993.298103000001,995.2982173,995.2982173,995.2982173,995.2982173,995.282931400001,2,0.9380313000001479,0.18655320000107167,None,,,,,,,,,,,,,,,,,,,,,7228,1,2025-10-31_12h07.02.383,sm,2024.2.4,59.91116372651712,2025-10-31 12h07.14.319014 +0100,
51,0,51,,,,,,space,2.2746007999994617,None,None,3,0.8248067999993509,0.21540470000036294,None,0,0,0,0,,,,,1,0,1,0,,,,,51,0,51,0,995.2982173,,,,,,,,,,,,,,,,,,,,,,,,,,,,,,,,,,,,,,,,,,,,,,,,,,,,,,,,,,Kunst,2.437,995.2834312000014,995.2841473000008,995.2842543000006,995.2982173,997.7479156999998,997.7324516000008,997.7364968000002,997.7479156999998,997.7479156999998,997.7479156999998,997.7479156999998,999.7479839000007,999.7479839000007,999.7479839000007,999.7479839000007,999.732434900001,3,0.8248067999993509,0.21540470000036294,None,,,,,,,,,,,,,,,,,,,,,7228,1,2025-10-31_12h07.02.383,sm,2024.2.4,59.91116372651712,2025-10-31 12h07.14.319014 +0100,
52,0,52,,,,,,space,2.2746007999994617,None,None,3,1.0138607999997475,0.1695502000002307,None,0,0,0,0,,,,,1,0,1,0,,,,,52,0,52,0,999.7479839000007,,,,,,,,,,,,,,,,,,,,,,,,,,,,,,,,,,,,,,,,,,,,,,,,,,,,,,,,,,Statue,4.4926,999.7329520000003,999.7334725000001,999.7335765000007,999.7479839000007,1004.2478267000006,1004.2316522000001,1004.2351489000011,1004.2478267000006,1004.2478267000006,1004.2478267000006,1004.2478267000006,1006.2475305999997,1006.2475305999997,1006.2475305999997,1006.2475305999997,1006.2320245999999,3,1.0138607999997475,0.1695502000002307,None,,,,,,,,,,,,,,,,,,,,,7228,1,2025-10-31_12h07.02.383,sm,2024.2.4,59.91116372651712,2025-10-31 12h07.14.319014 +0100,
53,0,53,,,,,,space,2.2746007999994617,None,None,3,0.5812347999999474,0.16960020000078657,None,0,0,0,0,,,,,1,0,1,0,,,,,53,0,53,0,1006.2475305999997,,,,,,,,,,,,,,,,,,,,,,,,,,,,,,,,,,,,,,,,,,,,,,,,,,,,,,,,,,Gabel,2.3212,1006.2325343000011,1006.2331725000004,1006.2332753999999,1006.2475305999997,1008.5805966999997,1008.5649700000013,1008.5687870000002,1008.5805966999997,1008.5805966999997,1008.5805966999997,1008.5805966999997,1010.580810200001,1010.580810200001,1010.580810200001,1010.580810200001,1010.5651679000002,3,0.5812347999999474,0.16960020000078657,None,,,,,,,,,,,,,,,,,,,,,7228,1,2025-10-31_12h07.02.383,sm,2024.2.4,59.91116372651712,2025-10-31 12h07.14.319014 +0100,
54,0,54,,,,,,space,2.2746007999994617,None,None,3,0.6483761000017694,0.20795609999913722,None,0,0,0,0,,,,,1,0,1,0,,,,,54,0,54,0,1010.580810200001,,,,,,,,,,,,,,,,,,,,,,,,,,,,,,,,,,,,,,,,,,,,,,,,,,,,,,,,,,Sendung,2.2676,1010.5656814000013,1010.5663304999998,1010.5664355000008,1010.580810200001,1012.8639249999997,1012.8482949000008,1012.8523566000003,1012.8639249999997,1012.8639249999997,1012.8639249999997,1012.8639249999997,1014.8637534000009,1014.8637534000009,1014.8637534000009,1014.8637534000009,1014.8480607000001,3,0.6483761000017694,0.20795609999913722,None,,,,,,,,,,,,,,,,,,,,,7228,1,2025-10-31_12h07.02.383,sm,2024.2.4,59.91116372651712,2025-10-31 12h07.14.319014 +0100,
55,0,55,,,,,,space,2.2746007999994617,None,None,2,0.8701084000003902,0.14631779999945138,None,0,0,0,0,,,,,1,0,1,0,,,,,55,0,55,0,1014.8637534000009,,,,,,,,,,,,,,,,,,,,,,,,,,,,,,,,,,,,,,,,,,,,,,,,,,,,,,,,,,Känguru,2.9981,1014.8485570000012,1014.8490766000014,1014.8491833000007,1014.8637534000009,1017.8636311000009,1017.8480914000011,1017.852222200001,1017.8636311000009,1017.8636311000009,1017.8636311000009,1017.8636311000009,1019.8634364000009,1019.8634364000009,1019.8634364000009,1019.8634364000009,1019.8479769000005,2,0.8701084000003902,0.14631779999945138,None,,,,,,,,,,,,,,,,,,,,,7228,1,2025-10-31_12h07.02.383,sm,2024.2.4,59.91116372651712,2025-10-31 12h07.14.319014 +0100,
56,0,56,,,,,,space,2.2746007999994617,None,None,3,0.9489890999993804,0.2165225000007922,None,0,0,0,0,,,,,1,0,1,0,,,,,56,0,56,0,1019.8634364000009,,,,,,,,,,,,,,,,,,,,,,,,,,,,,,,,,,,,,,,,,,,,,,,,,,,,,,,,,,Universität,3.2332,1019.8484903000008,1019.8491396000009,1019.849246400001,1019.8634364000009,1023.0962412999997,1023.0806407,1023.0859168000006,1023.0962412999997,1023.0962412999997,1023.0962412999997,1023.0962412999997,1025.0963837,1025.0963837,1025.0963837,1025.0963837,1025.0806651000003,3,0.9489890999993804,0.2165225000007922,None,,,,,,,,,,,,,,,,,,,,,7228,1,2025-10-31_12h07.02.383,sm,2024.2.4,59.91116372651712,2025-10-31 12h07.14.319014 +0100,
57,0,57,,,,,,space,2.2746007999994617,None,None,3,0.8361714999991818,0.21608200000082434,None,0,0,0,0,,,,,1,0,1,0,,,,,57,0,57,0,1025.0963837,,,,,,,,,,,,,,,,,,,,,,,,,,,,,,,,,,,,,,,,,,,,,,,,,,,,,,,,,,Ferien,2.4397,1025.0811789,1025.0818342000002,1025.081937500001,1025.0963837,1027.5462247000014,1027.5305475000005,1027.5350644999999,1027.5462247000014,1027.5462247000014,1027.5462247000014,1027.5462247000014,1029.5462149000014,1029.5462149000014,1029.5462149000014,1029.5462149000014,1029.5306133000013,3,0.8361714999991818,0.21608200000082434,None,,,,,,,,,,,,,,,,,,,,,7228,1,2025-10-31_12h07.02.383,sm,2024.2.4,59.91116372651712,2025-10-31 12h07.14.319014 +0100,
58,0,58,,,,,,space,2.2746007999994617,None,None,2,0.8561890000000858,0.15302090000113822,None,0,0,0,0,,,,,1,0,1,0,,,,,58,0,58,0,1029.5462149000014,,,,,,,,,,,,,,,,,,,,,,,,,,,,,,,,,,,,,,,,,,,,,,,,,,,,,,,,,,Mund,2.7442,1029.531121,1029.5317673999998,1029.5318708000013,1029.5462149000014,1032.2958976999998,1032.2802981000004,1032.2838737000002,1032.2958976999998,1032.2958976999998,1032.2958976999998,1032.2958976999998,1034.2959194000014,1034.2959194000014,1034.2959194000014,1034.2959194000014,1034.2806729000004,2,0.8561890000000858,0.15302090000113822,None,,,,,,,,,,,,,,,,,,,,,7228,1,2025-10-31_12h07.02.383,sm,2024.2.4,59.91116372651712,2025-10-31 12h07.14.319014 +0100,
59,0,59,,,,,,space,2.2746007999994617,None,None,3,0.6758456000006845,0.20451320000029227,None,0,0,0,0,,,,,1,0,1,0,,,,,59,0,59,0,1034.2959194000014,,,,,,,,,,,,,,,,,,,,,,,,,,,,,,,,,,,,,,,,,,,,,,,,,,,,,,,,,,Datei,2.2488,1034.2811895000013,1034.2816751999999,1034.2817813000001,1034.2959194000014,1036.5458366000003,1036.5300607000008,1036.5339132999998,1036.5458366000003,1036.5458366000003,1036.5458366000003,1036.5458366000003,1038.5455149999998,1038.5455149999998,1038.5455149999998,1038.5455149999998,1038.5300454999997,3,0.6758456000006845,0.20451320000029227,None,,,,,,,,,,,,,,,,,,,,,7228,1,2025-10-31_12h07.02.383,sm,2024.2.4,59.91116372651712,2025-10-31 12h07.14.319014 +0100,
60,0,60,,,,,,space,2.2746007999994617,None,None,3,0.7284579999995913,0.17310360000010405,None,0,0,0,0,,,,,1,0,1,0,,,,,60,0,60,0,1038.5455149999998,,,,,,,,,,,,,,,,,,,,,,,,,,,,,,,,,,,,,,,,,,,,,,,,,,,,,,,,,,Klinge,3.4735,1038.5305577,1038.5310666000005,1038.5311689999999,1038.5455149999998,1042.0286840000008,1042.012897300001,1042.0167035000013,1042.0286840000008,1042.0286840000008,1042.0286840000008,1042.0286840000008,1044.0288398000012,1044.0288398000012,1044.0288398000012,1044.0288398000012,1044.0132396999998,3,0.7284579999995913,0.17310360000010405,None,,,,,,,,,,,,,,,,,,,,,7228,1,2025-10-31_12h07.02.383,sm,2024.2.4,59.91116372651712,2025-10-31 12h07.14.319014 +0100,
61,0,61,,,,,,space,2.2746007999994617,None,None,3,0.9578161999997974,0.2177176999994117,None,0,0,0,0,,,,,1,0,1,0,,,,,61,0,61,0,1044.0288398000012,,,,,,,,,,,,,,,,,,,,,,,,,,,,,,,,,,,,,,,,,,,,,,,,,,,,,,,,,,Film,2.2593,1044.0137529000003,1044.0142772,1044.0143821000001,1044.0288398000012,1046.2949669999998,1046.279364,1046.283104,1046.2949669999998,1046.2949669999998,1046.2949669999998,1046.2949669999998,1048.2951895000006,1048.2951895000006,1048.2951895000006,1048.2951895000006,1048.279424100001,3,0.9578161999997974,0.2177176999994117,None,,,,,,,,,,,,,,,,,,,,,7228,1,2025-10-31_12h07.02.383,sm,2024.2.4,59.91116372651712,2025-10-31 12h07.14.319014 +0100,
62,0,62,,,,,,space,2.2746007999994617,None,None,3,0.5832760000012058,0.19842999999855238,None,0,0,0,0,,,,,1,0,1,0,,,,,62,0,62,0,1048.2951895000006,,,,,,,,,,,,,,,,,,,,,,,,,,,,,,,,,,,,,,,,,,,,,,,,,,,,,,,,,,Hammer,3.2699,1048.2799302000003,1048.2805837000014,1048.2806895000012,1048.2951895000006,1051.5782280000003,1051.562542400001,1051.5674993000011,1051.5782280000003,1051.5782280000003,1051.5782280000003,1051.5782280000003,1053.5782973000005,1053.5782973000005,1053.5782973000005,1053.5782973000005,1053.5626521000013,3,0.5832760000012058,0.19842999999855238,None,,,,,,,,,,,,,,,,,,,,,7228,1,2025-10-31_12h07.02.383,sm,2024.2.4,59.91116372651712,2025-10-31 12h07.14.319014 +0100,
