thisN,thisTrialN,thisRepN,Cue,Target,Mediator1,Mediator2,iti,scanner_ready_press.keys,scanner_ready_press.rt,scanner_ready_press.duration,skip_trigger.keys,living_nonliving.keys,living_nonliving.rt,living_nonliving.duration,end_mapping.keys,blocks.thisRepN,blocks.thisTrialN,blocks.thisN,blocks.thisIndex,load_and_shuffle.thisRepN,load_and_shuffle.thisTrialN,load_and_shuffle.thisN,load_and_shuffle.thisIndex,runs.thisRepN,runs.thisTrialN,runs.thisN,runs.thisIndex,iti_loading_loop.thisRepN,iti_loading_loop.thisTrialN,iti_loading_loop.thisN,iti_loading_loop.thisIndex,semantic_mapping_run.thisRepN,semantic_mapping_run.thisTrialN,semantic_mapping_run.thisN,semantic_mapping_run.thisIndex,thisRow.t,notes,welcome.started,welcome_text.started,key_resp__welcome.started,welcome.stopped,key_resp__welcome.keys,key_resp__welcome.rt,key_resp__welcome.duration,scout.started,scout_text.started,key_resp.started,scout.stopped,key_resp.keys,key_resp.rt,key_resp.duration,instructions_semantic_mapping1.started,sm_instructions1_text.started,sm_instructions1_key.started,instructions_semantic_mapping1.stopped,sm_instructions1_key.keys,sm_instructions1_key.rt,sm_instructions1_key.duration,instructions_semantic_mapping2.started,sm_instructions2_text.started,sm_instructions2_key.started,instructions_semantic_mapping2.stopped,sm_instructions2_key.keys,sm_instructions2_key.rt,sm_instructions2_key.duration,reset_run.started,reset_run.stopped,shuffle_items.started,shuffle_items.stopped,set_up_runs.started,set_up_runs.stopped,load_iti.started,load_iti.stopped,prep_scanner.started,scanner_ready_press.started,ready_set_text.started,prep_scanner.stopped,runs.scanner_ready_press.keys,runs.scanner_ready_press.rt,runs.scanner_ready_press.duration,wait_for_trigger.started,starting_soon.started,skip_trigger.started,wait_for_trigger.stopped,runs.skip_trigger.keys,blank.started,begin_end_run_cross.started,sound_1.started,sound_1.stopped,sound_2.started,sound_2.stopped,blank.stopped,CurrentItem,CurrentITI,set_up_trial.started,set_up_trial.stopped,sm_iti.started,iti_cross.started,iti_cross.stopped,sm_iti.stopped,item.started,living_nonliving.started,end_mapping.started,living_nonliving_text.started,semantic_map_item.started,living_nonliving.stopped,end_mapping.stopped,living_nonliving_text.stopped,semantic_map_item.stopped,item.stopped,semantic_mapping_run.living_nonliving.keys,semantic_mapping_run.living_nonliving.rt,semantic_mapping_run.living_nonliving.duration,semantic_mapping_run.end_mapping.keys,fieldmap.started,fieldmap.stopped,runs.fm_key.keys,task_break.started,feeback_text.started,task_break_text.started,task_break_resp.started,feeback_text.stopped,task_break.stopped,runs.task_break_resp.keys,runs.task_break_resp.rt,runs.task_break_resp.duration,begin_end_run_cross.stopped,fm_text.started,fm_key.started,runs.fm_key.rt,runs.fm_key.duration,thanks.started,thanks_text.started,thanks.stopped,PID,MRI,date,expName,psychopyVersion,frameRate,expStart,
,,,,,,,,,,,,,,,,,,,,,,,,,,,,,,,,,,,,,,0.003601899999921443,0.008946500000092783,0.008946500000092783,405.00687839999955,space,404.9886646999994,None,,,,,,,,,,,,,,,,,,,,,,,,,,,,,,,,,,,,,,,,,,,,,,,,,,,,,,,,,,,,,,,,,,,,,,,,,,,,,,,,,,,,,,,,,,,2264,1,2025-10-21_14h07.16.214,sm,2024.2.4,59.908041156967684,2025-10-21 14h07.33.777054 +0200,
,,,,,,,,,,,,,,,,,,,,,,,,,,,,,,,,,,,,,,,,,,,,,405.00702209999963,405.0150730999994,405.0150730999994,480.41243080000004,space,75.39068609999958,None,,,,,,,,,,,,,,,,,,,,,,,,,,,,,,,,,,,,,,,,,,,,,,,,,,,,,,,,,,,,,,,,,,,,,,,,,,,,,,,,,,,,2264,1,2025-10-21_14h07.16.214,sm,2024.2.4,59.908041156967684,2025-10-21 14h07.33.777054 +0200,
,,,,,,,,,,,,,,,,,,,,,,,,,,,,,,,,,,,,,,,,,,,,,,,,,,,,480.4125603000002,480.4293601999998,480.4293601999998,486.58090679999987,2,6.146880299999793,None,,,,,,,,,,,,,,,,,,,,,,,,,,,,,,,,,,,,,,,,,,,,,,,,,,,,,,,,,,,,,,,,,,,,,,,,,,,,,2264,1,2025-10-21_14h07.16.214,sm,2024.2.4,59.908041156967684,2025-10-21 14h07.33.777054 +0200,
,,,,,,,,,,,,,,,,,,,,,,,,,,,,,,,,,,,,,,,,,,,,,,,,,,,,,,,,,,,486.5810243999995,486.59557399999994,486.59557399999994,495.38055799999984,2,8.775954299999285,None,,,,,,,,,,,,,,,,,,,,,,,,,,,,,,,,,,,,,,,,,,,,,,,,,,,,,,,,,,,,,,,,,,,,,,2264,1,2025-10-21_14h07.16.214,sm,2024.2.4,59.908041156967684,2025-10-21 14h07.33.777054 +0200,
0,0,0,Schuh,Stiefel,Fuß,Schnürsenkel,3.0483,space,2.84786559999975,None,None,2,0.8341165000001638,0.1851896999996825,None,0,0,0,0,0,79,79,50,0,0,0,0,0,79,79,69,0,0,0,0,556.6746692999996,,,,,,,,,,,,,,,,,,,,,,,,,,,,,,495.38158099999964,495.3823956999995,495.4479688000001,495.4482367999999,495.45274419999987,495.45302360000005,495.4830673999995,495.4832945999997,495.4899012999995,495.4946841000001,495.4946841000001,498.3470404999998,space,2.84786559999975,None,498.34718879999946,498.3615178,498.3615178,544.6438405999997,None,544.6533290999996,544.6621526999998,544.6591518666667,545.8636552999997,554.6583638666664,555.6632288000001,556.6585806000003,Löwe,3.0483,556.6600060999999,556.6607874000001,556.6642208000003,556.6746692999996,559.7243391000002,559.7088637999996,559.7120838000001,559.7243391000002,559.7243391000002,559.7243391000002,559.7243391000002,561.7245848000002,561.7245848000002,561.7245848000002,561.7245848000002,561.7091097000002,2,0.8341165000001638,0.1851896999996825,None,,,,,,,,,,,,,,,,,,,,,2264,1,2025-10-21_14h07.16.214,sm,2024.2.4,59.908041156967684,2025-10-21 14h07.33.777054 +0200,
1,0,1,,,,,,space,2.84786559999975,None,None,3,0.7128579999998692,0.2061316999997871,None,0,0,0,0,,,,,0,0,0,0,,,,,1,0,1,0,561.7245848000002,,,,,,,,,,,,,,,,,,,,,,,,,,,,,,,,,,,,,,,,,,,,,,,,,,,,,,,,,Schloss,2.309,561.7096279999996,561.710129,561.7102374999995,561.7245848000002,564.0410016999995,564.0254955999999,564.0296823999997,564.0410016999995,564.0410016999995,564.0410016999995,564.0410016999995,566.0412209999995,566.0412209999995,566.0412209999995,566.0412209999995,566.0254359999999,3,0.7128579999998692,0.2061316999997871,None,,,,,,,,,,,,,,,,,,,,,2264,1,2025-10-21_14h07.16.214,sm,2024.2.4,59.908041156967684,2025-10-21 14h07.33.777054 +0200,
2,0,2,,,,,,space,2.84786559999975,None,None,2,0.6055664000004981,0.2290475999998307,None,0,0,0,0,,,,,0,0,0,0,,,,,2,0,2,0,566.0412209999995,,,,,,,,,,,,,,,,,,,,,,,,,,,,,,,,,,,,,,,,,,,,,,,,,,,,,,,,,Känguru,5.3544,566.0259481000003,566.0264777000002,566.0265889000002,566.0412209999995,571.4073596999997,571.3916629999994,571.3985292999996,571.4073596999997,571.4073596999997,571.4073596999997,571.4073596999997,573.4073620999998,573.4073620999998,573.4073620999998,573.4073620999998,573.3918217999999,2,0.6055664000004981,0.2290475999998307,None,,,,,,,,,,,,,,,,,,,,,2264,1,2025-10-21_14h07.16.214,sm,2024.2.4,59.908041156967684,2025-10-21 14h07.33.777054 +0200,
3,0,3,,,,,,space,2.84786559999975,None,None,3,0.6818270000003395,0.2713231999996424,None,0,0,0,0,,,,,0,0,0,0,,,,,3,0,3,0,573.4073620999998,,,,,,,,,,,,,,,,,,,,,,,,,,,,,,,,,,,,,,,,,,,,,,,,,,,,,,,,,Film,2.1198,573.3923237999998,573.3928423999996,573.3929450999995,573.4073620999998,575.540231,575.5249096999996,575.5305148999996,575.540231,575.540231,575.540231,575.540231,577.5404066000001,577.5404066000001,577.5404066000001,577.5404066000001,577.5251429,3,0.6818270000003395,0.2713231999996424,None,,,,,,,,,,,,,,,,,,,,,2264,1,2025-10-21_14h07.16.214,sm,2024.2.4,59.908041156967684,2025-10-21 14h07.33.777054 +0200,
4,0,4,,,,,,space,2.84786559999975,None,None,2,0.6843220000000656,0.1997326000000612,None,0,0,0,0,,,,,0,0,0,0,,,,,4,0,4,0,577.5404066000001,,,,,,,,,,,,,,,,,,,,,,,,,,,,,,,,,,,,,,,,,,,,,,,,,,,,,,,,,Vampir,2.1773,577.5256540999999,577.5262371999997,577.5263458999998,577.5404066000001,579.7235141000001,579.7079716999997,579.7121539999998,579.7235141000001,579.7235141000001,579.7235141000001,579.7235141000001,581.7236075999999,581.7236075999999,581.7236075999999,581.7236075999999,581.7076596999996,2,0.6843220000000656,0.1997326000000612,None,,,,,,,,,,,,,,,,,,,,,2264,1,2025-10-21_14h07.16.214,sm,2024.2.4,59.908041156967684,2025-10-21 14h07.33.777054 +0200,
5,0,5,,,,,,space,2.84786559999975,None,None,3,0.6134890000002997,0.23015789999953995,None,0,0,0,0,,,,,0,0,0,0,,,,,5,0,5,0,581.7236075999999,,,,,,,,,,,,,,,,,,,,,,,,,,,,,,,,,,,,,,,,,,,,,,,,,,,,,,,,,Brise,3.4871,581.7081068999996,581.7085798999997,581.7086719999998,581.7236075999999,585.2235294000002,585.2080267000001,585.2121644999997,585.2235294000002,585.2235294000002,585.2235294000002,585.2235294000002,587.2234342000002,587.2234342000002,587.2234342000002,587.2234342000002,587.2076814000002,3,0.6134890000002997,0.23015789999953995,None,,,,,,,,,,,,,,,,,,,,,2264,1,2025-10-21_14h07.16.214,sm,2024.2.4,59.908041156967684,2025-10-21 14h07.33.777054 +0200,
6,0,6,,,,,,space,2.84786559999975,None,None,3,0.7111690000001545,0.23959259999992355,None,0,0,0,0,,,,,0,0,0,0,,,,,6,0,6,0,587.2234342000002,,,,,,,,,,,,,,,,,,,,,,,,,,,,,,,,,,,,,,,,,,,,,,,,,,,,,,,,,Moor,3.1534,587.2081868999994,587.2086988000001,587.2088094999999,587.2234342000002,590.3892808999999,590.3737989000001,590.3771557999999,590.3892808999999,590.3892808999999,590.3892808999999,590.3892808999999,592.3894966999997,592.3894966999997,592.3894966999997,592.3894966999997,592.3741009999994,3,0.7111690000001545,0.23959259999992355,None,,,,,,,,,,,,,,,,,,,,,2264,1,2025-10-21_14h07.16.214,sm,2024.2.4,59.908041156967684,2025-10-21 14h07.33.777054 +0200,
7,0,7,,,,,,space,2.84786559999975,None,None,2,0.8948878999999579,0.20556329999999434,None,0,0,0,0,,,,,0,0,0,0,,,,,7,0,7,0,592.3894966999997,,,,,,,,,,,,,,,,,,,,,,,,,,,,,,,,,,,,,,,,,,,,,,,,,,,,,,,,,Ehe,2.3394,592.3746087999998,592.3751231999995,592.3752290000002,592.3894966999997,594.7393769999999,594.7238769999994,594.7277376000002,594.7393769999999,594.7393769999999,594.7393769999999,594.7393769999999,596.7397179,596.7397179,596.7397179,596.7397179,596.7236708,2,0.8948878999999579,0.20556329999999434,None,,,,,,,,,,,,,,,,,,,,,2264,1,2025-10-21_14h07.16.214,sm,2024.2.4,59.908041156967684,2025-10-21 14h07.33.777054 +0200,
8,0,8,,,,,,space,2.84786559999975,None,None,3,0.5896192000000156,0.2583588999996209,None,0,0,0,0,,,,,0,0,0,0,,,,,8,0,8,0,596.7397179,,,,,,,,,,,,,,,,,,,,,,,,,,,,,,,,,,,,,,,,,,,,,,,,,,,,,,,,,Zimt,2.304,596.7241711999995,596.724741,596.7248447000002,596.7397179,599.0565211000003,599.0401415999995,599.0465664000003,599.0565211000003,599.0565211000003,599.0565211000003,599.0565211000003,601.0557406999997,601.0557406999997,601.0557406999997,601.0557406999997,601.0403168000003,3,0.5896192000000156,0.2583588999996209,None,,,,,,,,,,,,,,,,,,,,,2264,1,2025-10-21_14h07.16.214,sm,2024.2.4,59.908041156967684,2025-10-21 14h07.33.777054 +0200,
9,0,9,,,,,,space,2.84786559999975,None,None,2,0.6301822999994329,0.21958979999999428,None,0,0,0,0,,,,,0,0,0,0,,,,,9,0,9,0,601.0557406999997,,,,,,,,,,,,,,,,,,,,,,,,,,,,,,,,,,,,,,,,,,,,,,,,,,,,,,,,,Arm,2.91,601.0408313999997,601.0413355000001,601.0414405000001,601.0557406999997,603.9723558999995,603.9565831,603.9603144000002,603.9723558999995,603.9723558999995,603.9723558999995,603.9723558999995,605.9726162999996,605.9726162999996,605.9726162999996,605.9726162999996,605.9566380999995,2,0.6301822999994329,0.21958979999999428,None,,,,,,,,,,,,,,,,,,,,,2264,1,2025-10-21_14h07.16.214,sm,2024.2.4,59.908041156967684,2025-10-21 14h07.33.777054 +0200,
10,0,10,,,,,,space,2.84786559999975,None,None,2,0.950180800000453,0.2069510999999693,None,0,0,0,0,,,,,0,0,0,0,,,,,10,0,10,0,605.9726162999996,,,,,,,,,,,,,,,,,,,,,,,,,,,,,,,,,,,,,,,,,,,,,,,,,,,,,,,,,Riechen,2.1788,605.9571428999998,605.9576581000001,605.9577643000002,605.9726162999996,608.1552977000001,608.1396226999996,608.1435635999997,608.1552977000001,608.1552977000001,608.1552977000001,608.1552977000001,610.1552302999999,610.1552302999999,610.1552302999999,610.1552302999999,610.1395839999996,2,0.950180800000453,0.2069510999999693,None,,,,,,,,,,,,,,,,,,,,,2264,1,2025-10-21_14h07.16.214,sm,2024.2.4,59.908041156967684,2025-10-21 14h07.33.777054 +0200,
11,0,11,,,,,,space,2.84786559999975,None,None,2,1.605692199999794,0.20863360000021203,None,0,0,0,0,,,,,0,0,0,0,,,,,11,0,11,0,610.1552302999999,,,,,,,,,,,,,,,,,,,,,,,,,,,,,,,,,,,,,,,,,,,,,,,,,,,,,,,,,Angriff,2.3109,610.1400974999997,610.1406050999994,610.1407159,610.1552302999999,612.4716845000003,612.4564579999997,612.4604548999996,612.4716845000003,612.4716845000003,612.4716845000003,612.4716845000003,614.4719533999996,614.4719533999996,614.4719533999996,614.4719533999996,614.4560475999997,2,1.605692199999794,0.20863360000021203,None,,,,,,,,,,,,,,,,,,,,,2264,1,2025-10-21_14h07.16.214,sm,2024.2.4,59.908041156967684,2025-10-21 14h07.33.777054 +0200,
12,0,12,,,,,,space,2.84786559999975,None,None,3,0.6585707000003822,0.22041469999930996,None,0,0,0,0,,,,,0,0,0,0,,,,,12,0,12,0,614.4719533999996,,,,,,,,,,,,,,,,,,,,,,,,,,,,,,,,,,,,,,,,,,,,,,,,,,,,,,,,,Schnorchel,2.3346,614.4565529000001,614.4571091999996,614.4572142999996,614.4719533999996,616.8214915999997,616.8059582999995,616.8105968,616.8214915999997,616.8214915999997,616.8214915999997,616.8214915999997,618.8215376999997,618.8215376999997,618.8215376999997,618.8215376999997,618.8057459000001,3,0.6585707000003822,0.22041469999930996,None,,,,,,,,,,,,,,,,,,,,,2264,1,2025-10-21_14h07.16.214,sm,2024.2.4,59.908041156967684,2025-10-21 14h07.33.777054 +0200,
13,0,13,,,,,,space,2.84786559999975,None,None,3,0.6221037999994223,0.2324707000007038,None,0,0,0,0,,,,,0,0,0,0,,,,,13,0,13,0,618.8215376999997,,,,,,,,,,,,,,,,,,,,,,,,,,,,,,,,,,,,,,,,,,,,,,,,,,,,,,,,,Geschirr,3.8984,618.8062500999995,618.8067703999996,618.8068751000001,618.8215376999997,622.7212481999995,622.7055424,622.7094147999996,622.7212481999995,622.7212481999995,622.7212481999995,622.7212481999995,624.7210304999999,624.7210304999999,624.7210304999999,624.7210304999999,624.7051227000002,3,0.6221037999994223,0.2324707000007038,None,,,,,,,,,,,,,,,,,,,,,2264,1,2025-10-21_14h07.16.214,sm,2024.2.4,59.908041156967684,2025-10-21 14h07.33.777054 +0200,
14,0,14,,,,,,space,2.84786559999975,None,None,3,0.7581598999995549,0.2493430000004082,None,0,0,0,0,,,,,0,0,0,0,,,,,14,0,14,0,624.7210304999999,,,,,,,,,,,,,,,,,,,,,,,,,,,,,,,,,,,,,,,,,,,,,,,,,,,,,,,,,Gel,2.3958,624.7055731,624.7061641999999,624.7063378000003,624.7210304999999,627.1208704000001,627.1050009,627.1084401999997,627.1208704000001,627.1208704000001,627.1208704000001,627.1208704000001,629.1207378999998,629.1207378999998,629.1207378999998,629.1207378999998,629.1048743000001,3,0.7581598999995549,0.2493430000004082,None,,,,,,,,,,,,,,,,,,,,,2264,1,2025-10-21_14h07.16.214,sm,2024.2.4,59.908041156967684,2025-10-21 14h07.33.777054 +0200,
15,0,15,,,,,,space,2.84786559999975,None,None,3,0.7433116000001974,0.24432449999949313,None,0,0,0,0,,,,,0,0,0,0,,,,,15,0,15,0,629.1207378999998,,,,,,,,,,,,,,,,,,,,,,,,,,,,,,,,,,,,,,,,,,,,,,,,,,,,,,,,,Center,2.4418,629.1052651999998,629.1057878000001,629.1058671999999,629.1207378999998,631.5708290000002,631.5552768999996,631.5616325999999,631.5708290000002,631.5708290000002,631.5708290000002,631.5708290000002,633.5707118,633.5707118,633.5707118,633.5707118,633.5549012000001,3,0.7433116000001974,0.24432449999949313,None,,,,,,,,,,,,,,,,,,,,,2264,1,2025-10-21_14h07.16.214,sm,2024.2.4,59.908041156967684,2025-10-21 14h07.33.777054 +0200,
16,0,16,,,,,,space,2.84786559999975,None,None,3,0.8242941000007704,0.26686009999957605,None,0,0,0,0,,,,,0,0,0,0,,,,,16,0,16,0,633.5707118,,,,,,,,,,,,,,,,,,,,,,,,,,,,,,,,,,,,,,,,,,,,,,,,,,,,,,,,,Zeit,2.07,633.5553487999996,633.5558192999997,633.5559119,633.5707118,635.6539057,635.6383229000003,635.6420093999996,635.6539057,635.6539057,635.6539057,635.6539057,637.6538926000003,637.6538926000003,637.6538926000003,637.6538926000003,637.6380696999995,3,0.8242941000007704,0.26686009999957605,None,,,,,,,,,,,,,,,,,,,,,2264,1,2025-10-21_14h07.16.214,sm,2024.2.4,59.908041156967684,2025-10-21 14h07.33.777054 +0200,
17,0,17,,,,,,space,2.84786559999975,None,None,2,0.6445123999992575,0.19549100000040198,None,0,0,0,0,,,,,0,0,0,0,,,,,17,0,17,0,637.6538926000003,,,,,,,,,,,,,,,,,,,,,,,,,,,,,,,,,,,,,,,,,,,,,,,,,,,,,,,,,Blatt,3.8219,637.6385694999999,637.639228,637.6393363999996,637.6538926000003,641.4869622999995,641.4713283000001,641.4754980999996,641.4869622999995,641.4869622999995,641.4869622999995,641.4869622999995,643.4867361999995,643.4867361999995,643.4867361999995,643.4867361999995,643.4714684,2,0.6445123999992575,0.19549100000040198,None,,,,,,,,,,,,,,,,,,,,,2264,1,2025-10-21_14h07.16.214,sm,2024.2.4,59.908041156967684,2025-10-21 14h07.33.777054 +0200,
18,0,18,,,,,,space,2.84786559999975,None,None,3,0.5991023000005953,0.25420020000001387,None,0,0,0,0,,,,,0,0,0,0,,,,,18,0,18,0,643.4867361999995,,,,,,,,,,,,,,,,,,,,,,,,,,,,,,,,,,,,,,,,,,,,,,,,,,,,,,,,,Ecke,3.5093,643.4719693999996,643.4726461999999,643.4727547000002,643.4867361999995,647.0027932000003,646.9874186999996,646.9905825999995,647.0027932000003,647.0027932000003,647.0027932000003,647.0027932000003,649.0029558999995,649.0029558999995,649.0029558999995,649.0029558999995,648.9875236999997,3,0.5991023000005953,0.25420020000001387,None,,,,,,,,,,,,,,,,,,,,,2264,1,2025-10-21_14h07.16.214,sm,2024.2.4,59.908041156967684,2025-10-21 14h07.33.777054 +0200,
19,0,19,,,,,,space,2.84786559999975,None,None,2,0.8633014999995794,0.19779970000035973,None,0,0,0,0,,,,,0,0,0,0,,,,,19,0,19,0,649.0029558999995,,,,,,,,,,,,,,,,,,,,,,,,,,,,,,,,,,,,,,,,,,,,,,,,,,,,,,,,,Tischler,2.8541,648.9880801999998,648.9886305999999,648.9887401999995,649.0029558999995,651.8701130999998,651.8537950999998,651.8574735000002,651.8701130999998,651.8701130999998,651.8701130999998,651.8701130999998,653.8695177999998,653.8695177999998,653.8695177999998,653.8695177999998,653.8545144,2,0.8633014999995794,0.19779970000035973,None,,,,,,,,,,,,,,,,,,,,,2264,1,2025-10-21_14h07.16.214,sm,2024.2.4,59.908041156967684,2025-10-21 14h07.33.777054 +0200,
20,0,20,,,,,,space,2.84786559999975,None,None,3,0.7835179000003336,0.29043259999980364,None,0,0,0,0,,,,,0,0,0,0,,,,,20,0,20,0,653.8695177999998,,,,,,,,,,,,,,,,,,,,,,,,,,,,,,,,,,,,,,,,,,,,,,,,,,,,,,,,,Lokomotive,2.1584,653.8550230999999,653.8555326999995,653.8556386,653.8695177999998,656.0356623999996,656.0202911999995,656.0246200000001,656.0356623999996,656.0356623999996,656.0356623999996,656.0356623999996,658.0358766999998,658.0358766999998,658.0358766999998,658.0358766999998,658.0204484999995,3,0.7835179000003336,0.29043259999980364,None,,,,,,,,,,,,,,,,,,,,,2264,1,2025-10-21_14h07.16.214,sm,2024.2.4,59.908041156967684,2025-10-21 14h07.33.777054 +0200,
21,0,21,,,,,,space,2.84786559999975,None,None,3,0.8563525000008667,0.22279639999942447,None,0,0,0,0,,,,,0,0,0,0,,,,,21,0,21,0,658.0358766999998,,,,,,,,,,,,,,,,,,,,,,,,,,,,,,,,,,,,,,,,,,,,,,,,,,,,,,,,,Schreibtisch,2.5836,658.0209521999996,658.0214774999995,658.0215808000003,658.0358766999998,660.6188436000002,660.6031192999999,660.6069232,660.6188436000002,660.6188436000002,660.6188436000002,660.6188436000002,662.6190270999996,662.6190270999996,662.6190270999996,662.6190270999996,662.6032810999995,3,0.8563525000008667,0.22279639999942447,None,,,,,,,,,,,,,,,,,,,,,2264,1,2025-10-21_14h07.16.214,sm,2024.2.4,59.908041156967684,2025-10-21 14h07.33.777054 +0200,
22,0,22,,,,,,space,2.84786559999975,None,None,3,0.6028981999997995,0.24876640000002226,None,0,0,0,0,,,,,0,0,0,0,,,,,22,0,22,0,662.6190270999996,,,,,,,,,,,,,,,,,,,,,,,,,,,,,,,,,,,,,,,,,,,,,,,,,,,,,,,,,Marmor,2.8259,662.6037908999997,662.6043011000002,662.6044056000001,662.6190270999996,665.4523297999995,665.4368600999996,665.4408410999995,665.4523297999995,665.4523297999995,665.4523297999995,665.4523297999995,667.4520553000002,667.4520553000002,667.4520553000002,667.4520553000002,667.4363844999998,3,0.6028981999997995,0.24876640000002226,None,,,,,,,,,,,,,,,,,,,,,2264,1,2025-10-21_14h07.16.214,sm,2024.2.4,59.908041156967684,2025-10-21 14h07.33.777054 +0200,
23,0,23,,,,,,space,2.84786559999975,None,None,2,0.803376500000013,0.1971243999996659,None,0,0,0,0,,,,,0,0,0,0,,,,,23,0,23,0,667.4520553000002,,,,,,,,,,,,,,,,,,,,,,,,,,,,,,,,,,,,,,,,,,,,,,,,,,,,,,,,,Kartoffel,2.2884,667.4368993999997,667.4374032999995,667.4375527000002,667.4520553000002,669.7516495,669.7366843,669.7405415000003,669.7516495,669.7516495,669.7516495,669.7516495,671.7517562000003,671.7517562000003,671.7517562000003,671.7517562000003,671.7360168999994,2,0.803376500000013,0.1971243999996659,None,,,,,,,,,,,,,,,,,,,,,2264,1,2025-10-21_14h07.16.214,sm,2024.2.4,59.908041156967684,2025-10-21 14h07.33.777054 +0200,
24,0,24,,,,,,space,2.84786559999975,None,None,3,0.89385029999994,0.2938233000004402,None,0,0,0,0,,,,,0,0,0,0,,,,,24,0,24,0,671.7517562000003,,,,,,,,,,,,,,,,,,,,,,,,,,,,,,,,,,,,,,,,,,,,,,,,,,,,,,,,,Lava,2.067,671.7365209,671.7370332,671.7371364,671.7517562000003,673.8183689999996,673.8024532,673.8054849999999,673.8183689999996,673.8183689999996,673.8183689999996,673.8183689999996,675.8181724999995,675.8181724999995,675.8181724999995,675.8181724999995,675.8024348999998,3,0.89385029999994,0.2938233000004402,None,,,,,,,,,,,,,,,,,,,,,2264,1,2025-10-21_14h07.16.214,sm,2024.2.4,59.908041156967684,2025-10-21 14h07.33.777054 +0200,
25,0,25,,,,,,space,2.84786559999975,None,None,2,0.6199973000002501,0.18500010000025213,None,0,0,0,0,,,,,0,0,0,0,,,,,25,0,25,0,675.8181724999995,,,,,,,,,,,,,,,,,,,,,,,,,,,,,,,,,,,,,,,,,,,,,,,,,,,,,,,,,Trauben,2.3908,675.8029406999995,675.8035942999995,675.8036983000002,675.8181724999995,678.2181105999998,678.2024335999995,678.2065308000001,678.2181105999998,678.2181105999998,678.2181105999998,678.2181105999998,680.2180333999995,680.2180333999995,680.2180333999995,680.2180333999995,680.2024775999998,2,0.6199973000002501,0.18500010000025213,None,,,,,,,,,,,,,,,,,,,,,2264,1,2025-10-21_14h07.16.214,sm,2024.2.4,59.908041156967684,2025-10-21 14h07.33.777054 +0200,
26,0,26,,,,,,space,2.84786559999975,None,None,2,0.7075679000008677,0.162564499999462,None,0,0,0,0,,,,,0,0,0,0,,,,,26,0,26,0,680.2180333999995,,,,,,,,,,,,,,,,,,,,,,,,,,,,,,,,,,,,,,,,,,,,,,,,,,,,,,,,,Spion,2.9922,680.2029835000003,680.2035635000002,680.2036683999995,680.2180333999995,683.2180036999998,683.2021747999997,683.2062718999996,683.2180036999998,683.2180036999998,683.2180036999998,683.2180036999998,685.2176579999996,685.2176579999996,685.2176579999996,685.2176579999996,685.2020407,2,0.7075679000008677,0.162564499999462,None,,,,,,,,,,,,,,,,,,,,,2264,1,2025-10-21_14h07.16.214,sm,2024.2.4,59.908041156967684,2025-10-21 14h07.33.777054 +0200,
27,0,27,,,,,,space,2.84786559999975,None,None,2,1.249664500000108,0.29008989999965706,None,0,0,0,0,,,,,0,0,0,0,,,,,27,0,27,0,685.2176579999996,,,,,,,,,,,,,,,,,,,,,,,,,,,,,,,,,,,,,,,,,,,,,,,,,,,,,,,,,Gespräch,2.8755,685.2025441999995,685.2030534999994,685.2031566999995,685.2176579999996,688.1007198999996,688.0853443999995,688.0897061999995,688.1007198999996,688.1007198999996,688.1007198999996,688.1007198999996,690.1007327999996,690.1007327999996,690.1007327999996,690.1007327999996,690.0854638999999,2,1.249664500000108,0.29008989999965706,None,,,,,,,,,,,,,,,,,,,,,2264,1,2025-10-21_14h07.16.214,sm,2024.2.4,59.908041156967684,2025-10-21 14h07.33.777054 +0200,
28,0,28,,,,,,space,2.84786559999975,None,None,2,0.6006519000002299,0.19385409999995318,None,0,0,0,0,,,,,0,0,0,0,,,,,28,0,28,0,690.1007327999996,,,,,,,,,,,,,,,,,,,,,,,,,,,,,,,,,,,,,,,,,,,,,,,,,,,,,,,,,Ziege,2.2294,690.0859732999998,690.0865117000003,690.0866206000001,690.1007327999996,692.3336837999996,692.3181872999994,692.3217319999994,692.3336837999996,692.3336837999996,692.3336837999996,692.3336837999996,694.3345429000001,694.3345429000001,694.3345429000001,694.3345429000001,694.3188068999998,2,0.6006519000002299,0.19385409999995318,None,,,,,,,,,,,,,,,,,,,,,2264,1,2025-10-21_14h07.16.214,sm,2024.2.4,59.908041156967684,2025-10-21 14h07.33.777054 +0200,
29,0,29,,,,,,space,2.84786559999975,None,None,3,1.3909309000000576,0.25271629999951983,None,0,0,0,0,,,,,0,0,0,0,,,,,29,0,29,0,694.3345429000001,,,,,,,,,,,,,,,,,,,,,,,,,,,,,,,,,,,,,,,,,,,,,,,,,,,,,,,,,Ostern,3.7866,694.3192833000003,694.3197715999995,694.3198677999999,694.3345429000001,698.1332437000001,698.1179274999995,698.1237665999997,698.1332437000001,698.1332437000001,698.1332437000001,698.1332437000001,700.1335098,700.1335098,700.1335098,700.1335098,700.1183757999997,3,1.3909309000000576,0.25271629999951983,None,,,,,,,,,,,,,,,,,,,,,2264,1,2025-10-21_14h07.16.214,sm,2024.2.4,59.908041156967684,2025-10-21 14h07.33.777054 +0200,
30,0,30,,,,,,space,2.84786559999975,None,None,2,0.6504861000003075,0.19391819999964355,None,0,0,0,0,,,,,0,0,0,0,,,,,30,0,30,0,700.1335098,,,,,,,,,,,,,,,,,,,,,,,,,,,,,,,,,,,,,,,,,,,,,,,,,,,,,,,,,Orange,2.0917,700.1188727999997,700.1196604999996,700.1197646,700.1335098,702.2336980999999,702.2177292999995,702.2218696999998,702.2336980999999,702.2336980999999,702.2336980999999,702.2336980999999,704.2336601999996,704.2336601999996,704.2336601999996,704.2336601999996,704.2178776000001,2,0.6504861000003075,0.19391819999964355,None,,,,,,,,,,,,,,,,,,,,,2264,1,2025-10-21_14h07.16.214,sm,2024.2.4,59.908041156967684,2025-10-21 14h07.33.777054 +0200,
31,0,31,,,,,,space,2.84786559999975,None,None,3,0.9207000000005792,0.2591655999995055,None,0,0,0,0,,,,,0,0,0,0,,,,,31,0,31,0,704.2336601999996,,,,,,,,,,,,,,,,,,,,,,,,,,,,,,,,,,,,,,,,,,,,,,,,,,,,,,,,,Weiß,2.5717,704.2183852999997,704.2190373000003,704.2191449000002,704.2336601999996,706.8164257999997,706.8006925999998,706.8037374999994,706.8164257999997,706.8164257999997,706.8164257999997,706.8164257999997,708.8167776999999,708.8167776999999,708.8167776999999,708.8167776999999,708.8007434000001,3,0.9207000000005792,0.2591655999995055,None,,,,,,,,,,,,,,,,,,,,,2264,1,2025-10-21_14h07.16.214,sm,2024.2.4,59.908041156967684,2025-10-21 14h07.33.777054 +0200,
32,0,32,,,,,,space,2.84786559999975,None,None,3,0.7504675999998653,0.21746970000003785,None,0,0,0,0,,,,,0,0,0,0,,,,,32,0,32,0,708.8167776999999,,,,,,,,,,,,,,,,,,,,,,,,,,,,,,,,,,,,,,,,,,,,,,,,,,,,,,,,,Bluse,2.8269,708.8012564,708.8020003000001,708.8021054999999,708.8167776999999,711.6492403000002,711.6336802999995,711.6375853999998,711.6492403000002,711.6492403000002,711.6492403000002,711.6492403000002,713.6494334999998,713.6494334999998,713.6494334999998,713.6494334999998,713.6337869999998,3,0.7504675999998653,0.21746970000003785,None,,,,,,,,,,,,,,,,,,,,,2264,1,2025-10-21_14h07.16.214,sm,2024.2.4,59.908041156967684,2025-10-21 14h07.33.777054 +0200,
33,0,33,,,,,,space,2.84786559999975,None,None,2,0.7506130000001576,0.1882525999999416,None,0,0,0,0,,,,,0,0,0,0,,,,,33,0,33,0,713.6494334999998,,,,,,,,,,,,,,,,,,,,,,,,,,,,,,,,,,,,,,,,,,,,,,,,,,,,,,,,,Gruppe,2.1523,713.6342931999998,713.6348579999994,713.6349665999996,713.6494334999998,715.8159716999999,715.8005470999997,715.8052848999996,715.8159716999999,715.8159716999999,715.8159716999999,715.8159716999999,717.8158441999994,717.8158441999994,717.8158441999994,717.8158441999994,717.8004027999996,2,0.7506130000001576,0.1882525999999416,None,,,,,,,,,,,,,,,,,,,,,2264,1,2025-10-21_14h07.16.214,sm,2024.2.4,59.908041156967684,2025-10-21 14h07.33.777054 +0200,
34,0,34,,,,,,space,2.84786559999975,None,None,2,0.6101659999994808,0.18679060000067693,None,0,0,0,0,,,,,0,0,0,0,,,,,34,0,34,0,717.8158441999994,,,,,,,,,,,,,,,,,,,,,,,,,,,,,,,,,,,,,,,,,,,,,,,,,,,,,,,,,Geschwister,2.1593,717.8009116000003,717.8014069999999,717.8015138999999,717.8158441999994,719.9823907999998,719.9668515000003,719.9711748999998,719.9823907999998,719.9823907999998,719.9823907999998,719.9823907999998,721.9823228999994,721.9823228999994,721.9823228999994,721.9823228999994,721.9669944999996,2,0.6101659999994808,0.18679060000067693,None,,,,,,,,,,,,,,,,,,,,,2264,1,2025-10-21_14h07.16.214,sm,2024.2.4,59.908041156967684,2025-10-21 14h07.33.777054 +0200,
35,0,35,,,,,,space,2.84786559999975,None,None,3,1.0333214000002044,0.21986000000015338,None,0,0,0,0,,,,,0,0,0,0,,,,,35,0,35,0,721.9823228999994,,,,,,,,,,,,,,,,,,,,,,,,,,,,,,,,,,,,,,,,,,,,,,,,,,,,,,,,,Tee,5.5971,721.9675054999998,721.9680164000001,721.9681238000003,721.9823228999994,727.5819670000001,727.5663358000002,727.5697976000001,727.5819670000001,727.5819670000001,727.5819670000001,727.5819670000001,729.5820340999999,729.5820340999999,729.5820340999999,729.5820340999999,729.5663217000001,3,1.0333214000002044,0.21986000000015338,None,,,,,,,,,,,,,,,,,,,,,2264,1,2025-10-21_14h07.16.214,sm,2024.2.4,59.908041156967684,2025-10-21 14h07.33.777054 +0200,
36,0,36,,,,,,space,2.84786559999975,None,None,3,0.7579716999998709,0.24366680000002816,None,0,0,0,0,,,,,0,0,0,0,,,,,36,0,36,0,729.5820340999999,,,,,,,,,,,,,,,,,,,,,,,,,,,,,,,,,,,,,,,,,,,,,,,,,,,,,,,,,Bad,3.0483,729.5668323999998,729.5673412999995,729.5674467999997,729.5820340999999,732.6315739000001,732.6164527000001,732.6196177000002,732.6315739000001,732.6315739000001,732.6315739000001,732.6315739000001,734.6315945999995,734.6315945999995,734.6315945999995,734.6315945999995,734.6160829,3,0.7579716999998709,0.24366680000002816,None,,,,,,,,,,,,,,,,,,,,,2264,1,2025-10-21_14h07.16.214,sm,2024.2.4,59.908041156967684,2025-10-21 14h07.33.777054 +0200,
37,0,37,,,,,,space,2.84786559999975,None,None,3,1.409651799999665,0.2637320000003456,None,0,0,0,0,,,,,0,0,0,0,,,,,37,0,37,0,734.6315945999995,,,,,,,,,,,,,,,,,,,,,,,,,,,,,,,,,,,,,,,,,,,,,,,,,,,,,,,,,Olympia,3.0739,734.6165954999997,734.6170972,734.6172011999997,734.6315945999995,737.7145136999998,737.6990372,737.7063520000002,737.7145136999998,737.7145136999998,737.7145136999998,737.7145136999998,739.7147785999996,739.7147785999996,739.7147785999996,739.7147785999996,739.6987945000001,3,1.409651799999665,0.2637320000003456,None,,,,,,,,,,,,,,,,,,,,,2264,1,2025-10-21_14h07.16.214,sm,2024.2.4,59.908041156967684,2025-10-21 14h07.33.777054 +0200,
38,0,38,,,,,,space,2.84786559999975,None,None,2,0.6063825000001088,0.19465149999996356,None,0,0,0,0,,,,,0,0,0,0,,,,,38,0,38,0,739.7147785999996,,,,,,,,,,,,,,,,,,,,,,,,,,,,,,,,,,,,,,,,,,,,,,,,,,,,,,,,,Beine,4.5278,739.6992485999999,739.6997343000003,739.6998266999999,739.7147785999996,744.2475663999994,744.2319935999994,744.2359168000003,744.2475663999994,744.2475663999994,744.2475663999994,744.2475663999994,746.2476220999997,746.2476220999997,746.2476220999997,746.2476220999997,746.2322029999996,2,0.6063825000001088,0.19465149999996356,None,,,,,,,,,,,,,,,,,,,,,2264,1,2025-10-21_14h07.16.214,sm,2024.2.4,59.908041156967684,2025-10-21 14h07.33.777054 +0200,
39,0,39,,,,,,space,2.84786559999975,None,None,3,0.7900681000000986,0.2594577999998364,None,0,0,0,0,,,,,0,0,0,0,,,,,39,0,39,0,746.2476220999997,,,,,,,,,,,,,,,,,,,,,,,,,,,,,,,,,,,,,,,,,,,,,,,,,,,,,,,,,Seife,2.825,746.2327813000002,746.2333391000002,746.2334498,746.2476220999997,749.0804909999997,749.0648867999998,749.0692044999996,749.0804909999997,749.0804909999997,749.0804909999997,749.0804909999997,751.0810446999994,751.0810446999994,751.0810446999994,751.0810446999994,751.0651035000001,3,0.7900681000000986,0.2594577999998364,None,,,,,,,,,,,,,,,,,,,,,2264,1,2025-10-21_14h07.16.214,sm,2024.2.4,59.908041156967684,2025-10-21 14h07.33.777054 +0200,
40,0,40,,,,,,space,2.84786559999975,None,None,3,0.8937125000002197,0.27422329999990325,None,0,0,0,0,,,,,0,0,0,0,,,,,40,0,40,0,751.0810446999994,,,,,,,,,,,,,,,,,,,,,,,,,,,,,,,,,,,,,,,,,,,,,,,,,,,,,,,,,Mäher,2.7199,751.0656128,751.0662389999998,751.0663465999996,751.0810446999994,753.8134979999995,753.7979335999999,753.8014383,753.8134979999995,753.8134979999995,753.8134979999995,753.8134979999995,755.8137686999999,755.8137686999999,755.8137686999999,755.8137686999999,755.7982853000003,3,0.8937125000002197,0.27422329999990325,None,,,,,,,,,,,,,,,,,,,,,2264,1,2025-10-21_14h07.16.214,sm,2024.2.4,59.908041156967684,2025-10-21 14h07.33.777054 +0200,
41,0,41,,,,,,space,2.84786559999975,None,None,3,1.1339093999995384,0.2721791000003577,None,0,0,0,0,,,,,0,0,0,0,,,,,41,0,41,0,755.8137686999999,,,,,,,,,,,,,,,,,,,,,,,,,,,,,,,,,,,,,,,,,,,,,,,,,,,,,,,,,Bildung,3.4751,755.7987961999997,755.7994652999996,755.7995786000001,755.8137686999999,759.2968331000002,759.2809761999997,759.2842928,759.2968331000002,759.2968331000002,759.2968331000002,759.2968331000002,761.2967871999999,761.2967871999999,761.2967871999999,761.2967871999999,761.2811542999998,3,1.1339093999995384,0.2721791000003577,None,,,,,,,,,,,,,,,,,,,,,2264,1,2025-10-21_14h07.16.214,sm,2024.2.4,59.908041156967684,2025-10-21 14h07.33.777054 +0200,
42,0,42,,,,,,space,2.84786559999975,None,None,3,0.9099527999997008,0.236445200000162,None,0,0,0,0,,,,,0,0,0,0,,,,,42,0,42,0,761.2967871999999,,,,,,,,,,,,,,,,,,,,,,,,,,,,,,,,,,,,,,,,,,,,,,,,,,,,,,,,,Nacht,2.4615,761.2816825999998,761.2823280000002,761.2824325000001,761.2967871999999,763.7631214000003,763.7473609999997,763.7505653999997,763.7631214000003,763.7631214000003,763.7631214000003,763.7631214000003,765.7631323999994,765.7631323999994,765.7631323999994,765.7631323999994,765.7475939999995,3,0.9099527999997008,0.236445200000162,None,,,,,,,,,,,,,,,,,,,,,2264,1,2025-10-21_14h07.16.214,sm,2024.2.4,59.908041156967684,2025-10-21 14h07.33.777054 +0200,
43,0,43,,,,,,space,2.84786559999975,None,None,2,0.726883700000144,0.19610420000026352,None,0,0,0,0,,,,,0,0,0,0,,,,,43,0,43,0,765.7631323999994,,,,,,,,,,,,,,,,,,,,,,,,,,,,,,,,,,,,,,,,,,,,,,,,,,,,,,,,,Student,3.126,765.7481468999995,765.7486589999999,765.7487688000001,765.7631323999994,768.8962867,768.8809187999996,768.8850769999999,768.8962867,768.8962867,768.8962867,768.8962867,770.89624,770.89624,770.89624,770.89624,770.8805283000002,2,0.726883700000144,0.19610420000026352,None,,,,,,,,,,,,,,,,,,,,,2264,1,2025-10-21_14h07.16.214,sm,2024.2.4,59.908041156967684,2025-10-21 14h07.33.777054 +0200,
44,0,44,,,,,,space,2.84786559999975,None,None,3,0.8006706999995004,0.22153220000018337,None,0,0,0,0,,,,,0,0,0,0,,,,,44,0,44,0,770.89624,,,,,,,,,,,,,,,,,,,,,,,,,,,,,,,,,,,,,,,,,,,,,,,,,,,,,,,,,Teleskop,4.4759,770.8810424000003,770.8815549000001,770.8816594,770.89624,775.3794442999997,775.3640743999995,775.3682185999996,775.3794442999997,775.3794442999997,775.3794442999997,775.3794442999997,777.3791786000002,777.3791786000002,777.3791786000002,777.3791786000002,777.3637312999999,3,0.8006706999995004,0.22153220000018337,None,,,,,,,,,,,,,,,,,,,,,2264,1,2025-10-21_14h07.16.214,sm,2024.2.4,59.908041156967684,2025-10-21 14h07.33.777054 +0200,
45,0,45,,,,,,space,2.84786559999975,None,None,3,1.2222781999998915,0.30260459999954037,None,0,0,0,0,,,,,0,0,0,0,,,,,45,0,45,0,777.3791786000002,,,,,,,,,,,,,,,,,,,,,,,,,,,,,,,,,,,,,,,,,,,,,,,,,,,,,,,,,Frieden,2.1429,777.3642389999995,777.3648097999994,777.3649141999995,777.3791786000002,779.5290010999997,779.5131658999999,779.5166823999998,779.5290010999997,779.5290010999997,779.5290010999997,779.5290010999997,781.5288320999998,781.5288320999998,781.5288320999998,781.5288320999998,781.5134871,3,1.2222781999998915,0.30260459999954037,None,,,,,,,,,,,,,,,,,,,,,2264,1,2025-10-21_14h07.16.214,sm,2024.2.4,59.908041156967684,2025-10-21 14h07.33.777054 +0200,
46,0,46,,,,,,space,2.84786559999975,None,None,3,1.1612027999999555,0.28017459999955463,None,0,0,0,0,,,,,0,0,0,0,,,,,46,0,46,0,781.5288320999998,,,,,,,,,,,,,,,,,,,,,,,,,,,,,,,,,,,,,,,,,,,,,,,,,,,,,,,,,Golf,3.1437,781.5139964,781.5144966999997,781.5146032000002,781.5288320999998,784.6787592000001,784.6627910999996,784.6668190999999,784.6787592000001,784.6787592000001,784.6787592000001,784.6787592000001,786.6787115999996,786.6787115999996,786.6787115999996,786.6787115999996,786.6631957,3,1.1612027999999555,0.28017459999955463,None,,,,,,,,,,,,,,,,,,,,,2264,1,2025-10-21_14h07.16.214,sm,2024.2.4,59.908041156967684,2025-10-21 14h07.33.777054 +0200,
47,0,47,,,,,,space,2.84786559999975,None,None,3,0.6496888000001491,0.28247879999980796,None,0,0,0,0,,,,,0,0,0,0,,,,,47,0,47,0,786.6787115999996,,,,,,,,,,,,,,,,,,,,,,,,,,,,,,,,,,,,,,,,,,,,,,,,,,,,,,,,,Kamera,2.9563,786.6636978999995,786.6642630999995,786.6643668999995,786.6787115999996,789.6449344000002,789.6295011000002,789.6331098999999,789.6449344000002,789.6449344000002,789.6449344000002,789.6449344000002,791.6454905999999,791.6454905999999,791.6454905999999,791.6454905999999,791.6294071000002,3,0.6496888000001491,0.28247879999980796,None,,,,,,,,,,,,,,,,,,,,,2264,1,2025-10-21_14h07.16.214,sm,2024.2.4,59.908041156967684,2025-10-21 14h07.33.777054 +0200,
48,0,48,,,,,,space,2.84786559999975,None,None,2,0.8063961000007112,0.1825396999993245,None,0,0,0,0,,,,,0,0,0,0,,,,,48,0,48,0,791.6454905999999,,,,,,,,,,,,,,,,,,,,,,,,,,,,,,,,,,,,,,,,,,,,,,,,,,,,,,,,,Familie,2.32,791.6299128,791.6304269000002,791.6305364999998,791.6454905999999,793.9780549999996,793.9624462000002,793.9660128999994,793.9780549999996,793.9780549999996,793.9780549999996,793.9780549999996,795.9782588999997,795.9782588999997,795.9782588999997,795.9782588999997,795.9624542000001,2,0.8063961000007112,0.1825396999993245,None,,,,,,,,,,,,,,,,,,,,,2264,1,2025-10-21_14h07.16.214,sm,2024.2.4,59.908041156967684,2025-10-21 14h07.33.777054 +0200,
49,0,49,,,,,,space,2.84786559999975,None,None,3,0.8781232000001182,0.22743690000061179,None,0,0,0,0,,,,,0,0,0,0,,,,,49,0,49,0,795.9782588999997,,,,,,,,,,,,,,,,,,,,,,,,,,,,,,,,,,,,,,,,,,,,,,,,,,,,,,,,,Rot,3.9324,795.9629589999995,795.9634575,795.9635626999998,795.9782588999997,799.9112158999997,799.8956945,799.8993251000002,799.9112158999997,799.9112158999997,799.9112158999997,799.9112158999997,801.9110147000001,801.9110147000001,801.9110147000001,801.9110147000001,801.8955380999996,3,0.8781232000001182,0.22743690000061179,None,,,,,,,,,,,,,,,,,,,,,2264,1,2025-10-21_14h07.16.214,sm,2024.2.4,59.908041156967684,2025-10-21 14h07.33.777054 +0200,
50,0,50,,,,,,space,2.84786559999975,None,None,3,1.1380739000005633,0.2216694999997344,None,0,0,0,0,,,,,0,0,0,0,,,,,50,0,50,0,801.9110147000001,,,,,,,,,,,,,,,,,,,,,,,,,,,,,,,,,,,,,,,,,,,,,,,,,,,,,,,,,Anhänger,2.4228,801.8960541999995,801.8965620999998,801.8966668000003,801.9110147000001,804.3445377999997,804.3285455999994,804.3329064,804.3445377999997,804.3445377999997,804.3445377999997,804.3445377999997,806.3447145999999,806.3447145999999,806.3447145999999,806.3447145999999,806.3285708000003,3,1.1380739000005633,0.2216694999997344,None,,,,,,,,,,,,,,,,,,,,,2264,1,2025-10-21_14h07.16.214,sm,2024.2.4,59.908041156967684,2025-10-21 14h07.33.777054 +0200,
51,0,51,,,,,,space,2.84786559999975,None,None,3,1.91151119999995,None,None,0,0,0,0,,,,,0,0,0,0,,,,,51,0,51,0,806.3447145999999,,,,,,,,,,,,,,,,,,,,,,,,,,,,,,,,,,,,,,,,,,,,,,,,,,,,,,,,,Humor,3.1572,806.3290789000002,806.3295855999995,806.3296865000002,806.3447145999999,809.5104356000002,809.4949828999997,809.5014338999999,809.5104356000002,809.5104356000002,809.5104356000002,809.5104356000002,811.5109911999998,811.5109911999998,811.5109911999998,811.5109911999998,811.4948962999997,3,1.91151119999995,None,None,,,,,,,,,,,,,,,,,,,,,2264,1,2025-10-21_14h07.16.214,sm,2024.2.4,59.908041156967684,2025-10-21 14h07.33.777054 +0200,
52,0,52,,,,,,space,2.84786559999975,None,None,3,0.5736841000007189,0.2013874999993277,None,0,0,0,0,,,,,0,0,0,0,,,,,52,0,52,0,811.5109911999998,,,,,,,,,,,,,,,,,,,,,,,,,,,,,,,,,,,,,,,,,,,,,,,,,,,,,,,,,Fahrrad,2.6737,811.4953988999996,811.4962390000001,811.4964076999995,811.5109911999998,814.1934160999999,814.1779633999995,814.1821565999999,814.1934160999999,814.1934160999999,814.1934160999999,814.1934160999999,816.1936792999995,816.1936792999995,816.1936792999995,816.1936792999995,816.1781654999995,3,0.5736841000007189,0.2013874999993277,None,,,,,,,,,,,,,,,,,,,,,2264,1,2025-10-21_14h07.16.214,sm,2024.2.4,59.908041156967684,2025-10-21 14h07.33.777054 +0200,
53,0,53,,,,,,space,2.84786559999975,None,None,2,0.5971607999999833,0.22241200000007666,None,0,0,0,0,,,,,0,0,0,0,,,,,53,0,53,0,816.1936792999995,,,,,,,,,,,,,,,,,,,,,,,,,,,,,,,,,,,,,,,,,,,,,,,,,,,,,,,,,Freund,4.291,816.1786753999995,816.1791861000002,816.1792911000002,816.1936792999995,820.4933433999995,820.4778422999998,820.4820387999998,820.4933433999995,820.4933433999995,820.4933433999995,820.4933433999995,822.4932435999999,822.4932435999999,822.4932435999999,822.4932435999999,822.4778187000002,2,0.5971607999999833,0.22241200000007666,None,,,,,,,,,,,,,,,,,,,,,2264,1,2025-10-21_14h07.16.214,sm,2024.2.4,59.908041156967684,2025-10-21 14h07.33.777054 +0200,
54,0,54,,,,,,space,2.84786559999975,None,None,3,0.9579895999995642,0.250309300000481,None,0,0,0,0,,,,,0,0,0,0,,,,,54,0,54,0,822.4932435999999,,,,,,,,,,,,,,,,,,,,,,,,,,,,,,,,,,,,,,,,,,,,,,,,,,,,,,,,,Zeigen,5.5956,822.4783258999996,822.4788391000002,822.4789461999999,822.4932435999999,828.0931443999998,828.0772324,828.0813363999996,828.0931443999998,828.0931443999998,828.0931443999998,828.0931443999998,830.0930782999994,830.0930782999994,830.0930782999994,830.0930782999994,830.0777214999998,3,0.9579895999995642,0.250309300000481,None,,,,,,,,,,,,,,,,,,,,,2264,1,2025-10-21_14h07.16.214,sm,2024.2.4,59.908041156967684,2025-10-21 14h07.33.777054 +0200,
55,0,55,,,,,,space,2.84786559999975,None,None,3,0.6700183000002653,0.22336279999944963,None,0,0,0,0,,,,,0,0,0,0,,,,,55,0,55,0,830.0930782999994,,,,,,,,,,,,,,,,,,,,,,,,,,,,,,,,,,,,,,,,,,,,,,,,,,,,,,,,,Hügel,3.5452,830.0782736000001,830.0787965999998,830.0788992999996,830.0930782999994,833.6423815999997,833.6268012,833.6306171999995,833.6423815999997,833.6423815999997,833.6423815999997,833.6423815999997,835.6426710999995,835.6426710999995,835.6426710999995,835.6426710999995,835.6269670000001,3,0.6700183000002653,0.22336279999944963,None,,,,,,,,,,,,,,,,,,,,,2264,1,2025-10-21_14h07.16.214,sm,2024.2.4,59.908041156967684,2025-10-21 14h07.33.777054 +0200,
56,0,56,,,,,,space,2.84786559999975,None,None,3,0.7226734000005308,0.20370749999983673,None,0,0,0,0,,,,,0,0,0,0,,,,,56,0,56,0,835.6426710999995,,,,,,,,,,,,,,,,,,,,,,,,,,,,,,,,,,,,,,,,,,,,,,,,,,,,,,,,,Platz,2.7056,835.6274463,835.6279293999996,835.6280291000003,835.6426710999995,838.3589196000003,838.3433754999996,838.3500998,838.3589196000003,838.3589196000003,838.3589196000003,838.3589196000003,840.3592011999999,840.3592011999999,840.3592011999999,840.3592011999999,840.3434035,3,0.7226734000005308,0.20370749999983673,None,,,,,,,,,,,,,,,,,,,,,2264,1,2025-10-21_14h07.16.214,sm,2024.2.4,59.908041156967684,2025-10-21 14h07.33.777054 +0200,
57,0,57,,,,,,space,2.84786559999975,None,None,3,0.7754976999995051,0.19809929999973974,None,0,0,0,0,,,,,0,0,0,0,,,,,57,0,57,0,840.3592011999999,,,,,,,,,,,,,,,,,,,,,,,,,,,,,,,,,,,,,,,,,,,,,,,,,,,,,,,,,Rauch,2.3125,840.3439142999996,840.3444170000002,840.3445262999994,840.3592011999999,842.675655,842.6599820000001,842.6641620999999,842.675655,842.675655,842.675655,842.675655,844.6756920999997,844.6756920999997,844.6756920999997,844.6756920999997,844.6596805999998,3,0.7754976999995051,0.19809929999973974,None,,,,,,,,,,,,,,,,,,,,,2264,1,2025-10-21_14h07.16.214,sm,2024.2.4,59.908041156967684,2025-10-21 14h07.33.777054 +0200,
58,0,58,,,,,,space,2.84786559999975,None,None,2,1.3636468000004243,0.18643929999961983,None,0,0,0,0,,,,,0,0,0,0,,,,,58,0,58,0,844.6756920999997,,,,,,,,,,,,,,,,,,,,,,,,,,,,,,,,,,,,,,,,,,,,,,,,,,,,,,,,,Musik,2.2057,844.6601980999994,844.6607155000002,844.6608200999999,844.6756920999997,846.8922832999997,846.8766778999998,846.8815788000002,846.8922832999997,846.8922832999997,846.8922832999997,846.8922832999997,848.8918426999999,848.8918426999999,848.8918426999999,848.8918426999999,848.8761568,2,1.3636468000004243,0.18643929999961983,None,,,,,,,,,,,,,,,,,,,,,2264,1,2025-10-21_14h07.16.214,sm,2024.2.4,59.908041156967684,2025-10-21 14h07.33.777054 +0200,
59,0,59,,,,,,space,2.84786559999975,None,None,3,1.1528637000001254,0.25432329999966896,None,0,0,0,0,,,,,0,0,0,0,,,,,59,0,59,0,848.8918426999999,,,,,,,,,,,,,,,,,,,,,,,,,,,,,,,,,,,,,,,,,,,,,,,,,,,,,,,,,Nudeln,2.7028,848.8766457000002,848.8773283,848.8774304999997,848.8918426999999,851.6082540999996,851.5926701999997,851.5967916999998,851.6082540999996,851.6082540999996,851.6082540999996,851.6082540999996,853.6082834999997,853.6082834999997,853.6082834999997,853.6082834999997,853.5927163999995,3,1.1528637000001254,0.25432329999966896,None,,,,,,,,,,,,,,,,,,,,,2264,1,2025-10-21_14h07.16.214,sm,2024.2.4,59.908041156967684,2025-10-21 14h07.33.777054 +0200,
60,0,60,,,,,,space,2.84786559999975,None,None,3,0.7949060000000827,0.25172229999952833,None,0,0,0,0,,,,,0,0,0,0,,,,,60,0,60,0,853.6082834999997,,,,,,,,,,,,,,,,,,,,,,,,,,,,,,,,,,,,,,,,,,,,,,,,,,,,,,,,,Auto,2.6501,853.5932187999997,853.5937643999996,853.5938694999995,853.6082834999997,856.2577208000002,856.2421759999997,856.2453063000003,856.2577208000002,856.2577208000002,856.2577208000002,856.2577208000002,858.2582426999998,858.2582426999998,858.2582426999998,858.2582426999998,858.2425764999998,3,0.7949060000000827,0.25172229999952833,None,,,,,,,,,,,,,,,,,,,,,2264,1,2025-10-21_14h07.16.214,sm,2024.2.4,59.908041156967684,2025-10-21 14h07.33.777054 +0200,
61,0,61,,,,,,space,2.84786559999975,None,None,3,0.8020831000003454,0.25722359999963373,None,0,0,0,0,,,,,0,0,0,0,,,,,61,0,61,0,858.2582426999998,,,,,,,,,,,,,,,,,,,,,,,,,,,,,,,,,,,,,,,,,,,,,,,,,,,,,,,,,Datei,4.405,858.2430827999997,858.2435850000002,858.2436890999998,858.2582426999998,862.6743000999995,862.6584778999995,862.6620058999997,862.6743000999995,862.6743000999995,862.6743000999995,862.6743000999995,864.6742082999999,864.6742082999999,864.6742082999999,864.6742082999999,864.6585706999995,3,0.8020831000003454,0.25722359999963373,None,,,,,,,,,,,,,,,,,,,,,2264,1,2025-10-21_14h07.16.214,sm,2024.2.4,59.908041156967684,2025-10-21 14h07.33.777054 +0200,
62,0,62,,,,,,space,2.84786559999975,None,None,3,0.6146350999997594,0.2991501000005883,None,0,0,0,0,,,,,0,0,0,0,,,,,62,0,62,0,864.6742082999999,,,,,,,,,,,,,,,,,,,,,,,,,,,,,,,,,,,,,,,,,,,,,,,,,,,,,,,,,Diamant,2.5255,864.6590733000003,864.6595855999994,864.6596930999995,864.6742082999999,867.2073744999998,867.1917438,867.1958763000002,867.2073744999998,867.2073744999998,867.2073744999998,867.2073744999998,869.2076095000002,869.2076095000002,869.2076095000002,869.2076095000002,869.1918119000002,3,0.6146350999997594,0.2991501000005883,None,,,,,,,,,,,,,,,,,,,,,2264,1,2025-10-21_14h07.16.214,sm,2024.2.4,59.908041156967684,2025-10-21 14h07.33.777054 +0200,
63,0,63,,,,,,space,2.84786559999975,None,None,3,1.0302615999999034,0.36779889999979787,None,0,0,0,0,,,,,0,0,0,0,,,,,63,0,63,0,869.2076095000002,,,,,,,,,,,,,,,,,,,,,,,,,,,,,,,,,,,,,,,,,,,,,,,,,,,,,,,,,Loch,3.4475,869.1923201,869.1928356999997,869.1929388999997,869.2076095000002,872.6572200999999,872.6415425999994,872.6452671999996,872.6572200999999,872.6572200999999,872.6572200999999,872.6572200999999,874.6572483,874.6572483,874.6572483,874.6572483,874.6413911,3,1.0302615999999034,0.36779889999979787,None,,,,,,,,,,,,,,,,,,,,,2264,1,2025-10-21_14h07.16.214,sm,2024.2.4,59.908041156967684,2025-10-21 14h07.33.777054 +0200,
64,0,64,,,,,,space,2.84786559999975,None,None,3,0.8553206999995382,0.25667539999994915,None,0,0,0,0,,,,,0,0,0,0,,,,,64,0,64,0,874.6572483,,,,,,,,,,,,,,,,,,,,,,,,,,,,,,,,,,,,,,,,,,,,,,,,,,,,,,,,,Farbe,4.4157,874.6418967999998,874.6425478000001,874.6426522000002,874.6572483,879.0732655000002,879.0577377,879.0613727,879.0732655000002,879.0732655000002,879.0732655000002,879.0732655000002,881.0733531999995,881.0733531999995,881.0733531999995,881.0733531999995,881.0576904,3,0.8553206999995382,0.25667539999994915,None,,,,,,,,,,,,,,,,,,,,,2264,1,2025-10-21_14h07.16.214,sm,2024.2.4,59.908041156967684,2025-10-21 14h07.33.777054 +0200,
65,0,65,,,,,,space,2.84786559999975,None,None,3,0.7199015999995027,0.24077440000019124,None,0,0,0,0,,,,,0,0,0,0,,,,,65,0,65,0,881.0733531999995,,,,,,,,,,,,,,,,,,,,,,,,,,,,,,,,,,,,,,,,,,,,,,,,,,,,,,,,,Wissen,4.0515,881.0582114999997,881.0587190999995,881.0588232,881.0733531999995,885.1405953000003,885.1243376000002,885.1307345999994,885.1405953000003,885.1405953000003,885.1405953000003,885.1405953000003,887.1397466999997,887.1397466999997,887.1397466999997,887.1397466999997,887.1242354999995,3,0.7199015999995027,0.24077440000019124,None,,,,,,,,,,,,,,,,,,,,,2264,1,2025-10-21_14h07.16.214,sm,2024.2.4,59.908041156967684,2025-10-21 14h07.33.777054 +0200,
66,0,66,,,,,,space,2.84786559999975,None,None,3,0.6298422999998365,0.33527330000015354,None,0,0,0,0,,,,,0,0,0,0,,,,,66,0,66,0,887.1397466999997,,,,,,,,,,,,,,,,,,,,,,,,,,,,,,,,,,,,,,,,,,,,,,,,,,,,,,,,,Küche,3.8285,887.1247419000001,887.1252562,887.1253615999995,887.1397466999997,890.9726549999996,890.9573558000002,890.9614718000003,890.9726549999996,890.9726549999996,890.9726549999996,890.9726549999996,892.9729933999997,892.9729933999997,892.9729933999997,892.9729933999997,892.9570432999999,3,0.6298422999998365,0.33527330000015354,None,,,,,,,,,,,,,,,,,,,,,2264,1,2025-10-21_14h07.16.214,sm,2024.2.4,59.908041156967684,2025-10-21 14h07.33.777054 +0200,
67,0,67,,,,,,space,2.84786559999975,None,None,3,1.0838216999991346,0.30544060000011086,None,0,0,0,0,,,,,0,0,0,0,,,,,67,0,67,0,892.9729933999997,,,,,,,,,,,,,,,,,,,,,,,,,,,,,,,,,,,,,,,,,,,,,,,,,,,,,,,,,Wüste,3.3222,892.9575482999999,892.9581913000002,892.9582958000001,892.9729933999997,896.3059978000001,896.2902690000001,896.2943132,896.3059978000001,896.3059978000001,896.3059978000001,896.3059978000001,898.3058161999998,898.3058161999998,898.3058161999998,898.3058161999998,898.2899255000002,3,1.0838216999991346,0.30544060000011086,None,,,,,,,,,,,,,,,,,,,,,2264,1,2025-10-21_14h07.16.214,sm,2024.2.4,59.908041156967684,2025-10-21 14h07.33.777054 +0200,
68,0,68,,,,,,space,2.84786559999975,None,None,3,0.9280471000001853,0.44780079999964073,None,0,0,0,0,,,,,0,0,0,0,,,,,68,0,68,0,898.3058161999998,,,,,,,,,,,,,,,,,,,,,,,,,,,,,,,,,,,,,,,,,,,,,,,,,,,,,,,,,Kerzen,2.0987,898.2904386999999,898.2909469999995,898.2910498000001,898.3058161999998,900.4054753,900.3900348999996,900.3942611000002,900.4054753,900.4054753,900.4054753,900.4054753,902.4055200000003,902.4055200000003,902.4055200000003,902.4055200000003,902.3897797,3,0.9280471000001853,0.44780079999964073,None,,,,,,,,,,,,,,,,,,,,,2264,1,2025-10-21_14h07.16.214,sm,2024.2.4,59.908041156967684,2025-10-21 14h07.33.777054 +0200,
69,0,69,,,,,,space,2.84786559999975,None,None,2,0.8115903000007165,0.1930782999997973,None,0,0,0,0,,,,,0,0,0,0,,,,,69,0,69,0,902.4055200000003,,,,,,,,,,,,,,,,,,,,,,,,,,,,,,,,,,,,,,,,,,,,,,,,,,,,,,,,,Journalistin,2.065,902.3902959999996,902.3908025999999,902.3909094999999,902.4055200000003,904.4717625000003,904.4562774999995,904.4636638000002,904.4717625000003,904.4717625000003,904.4717625000003,904.4717625000003,906.4720676999996,906.4720676999996,906.4720676999996,906.4720676999996,906.4562889999997,2,0.8115903000007165,0.1930782999997973,None,,,,,,,,,,,,,,,,,,,,,2264,1,2025-10-21_14h07.16.214,sm,2024.2.4,59.908041156967684,2025-10-21 14h07.33.777054 +0200,
70,0,70,,,,,,space,2.84786559999975,None,None,2,0.9152243999997154,0.2035195999997086,None,0,0,0,0,,,,,0,0,0,0,,,,,70,0,70,0,906.4720676999996,,,,,,,,,,,,,,,,,,,,,,,,,,,,,,,,,,,,,,,,,,,,,,,,,,,,,,,,,Gemüse,2.4918,906.4567305999999,906.4571992000001,906.4572954999994,906.4720676999996,908.9713462,908.9559238000002,908.9594657999996,908.9713462,908.9713462,908.9713462,908.9713462,910.9717897999999,910.9717897999999,910.9717897999999,910.9717897999999,910.9563435,2,0.9152243999997154,0.2035195999997086,None,,,,,,,,,,,,,,,,,,,,,2264,1,2025-10-21_14h07.16.214,sm,2024.2.4,59.908041156967684,2025-10-21 14h07.33.777054 +0200,
71,0,71,,,,,,space,2.84786559999975,None,None,2,0.9191571000001204,0.16285330000027898,None,0,0,0,0,,,,,0,0,0,0,,,,,71,0,71,0,910.9717897999999,,,,,,,,,,,,,,,,,,,,,,,,,,,,,,,,,,,,,,,,,,,,,,,,,,,,,,,,,Knöchel,2.1064,910.9568810000001,910.9577558000001,910.9578874999997,910.9717897999999,913.0882043000001,913.0724628999997,913.0770792000003,913.0882043000001,913.0882043000001,913.0882043000001,913.0882043000001,915.0881388999996,915.0881388999996,915.0881388999996,915.0881388999996,915.0725395,2,0.9191571000001204,0.16285330000027898,None,,,,,,,,,,,,,,,,,,,,,2264,1,2025-10-21_14h07.16.214,sm,2024.2.4,59.908041156967684,2025-10-21 14h07.33.777054 +0200,
72,0,72,,,,,,space,2.84786559999975,None,None,None,,,None,0,0,0,0,,,,,0,0,0,0,,,,,72,0,72,0,915.0881388999996,,,,,,,,,,,,,,,,,,,,,,,,,,,,,,,,,,,,,,,,,,,,,,,,,,,,,,,,,Leute,2.286,915.0730523000002,915.0735592000001,915.0736636000001,915.0881388999996,917.3879053999999,917.3722736,917.3759031,917.3879053999999,917.3879053999999,917.3879053999999,917.3879053999999,919.3877835000003,919.3877835000003,919.3877835000003,919.3877835000003,919.3724382999999,None,,,None,,,,,,,,,,,,,,,,,,,,,2264,1,2025-10-21_14h07.16.214,sm,2024.2.4,59.908041156967684,2025-10-21 14h07.33.777054 +0200,
73,0,73,,,,,,space,2.84786559999975,None,None,3,0.9743813999994018,0.23422170000048936,None,0,0,0,0,,,,,0,0,0,0,,,,,73,0,73,0,919.3877835000003,,,,,,,,,,,,,,,,,,,,,,,,,,,,,,,,,,,,,,,,,,,,,,,,,,,,,,,,,Flut,3.0301,919.3729119,919.3735510999995,919.373654,919.3877835000003,922.4208292000003,922.4055929999995,922.4092269000002,922.4208292000003,922.4208292000003,922.4208292000003,922.4208292000003,924.4210223,924.4210223,924.4210223,924.4210223,924.4052319000002,3,0.9743813999994018,0.23422170000048936,None,,,,,,,,,,,,,,,,,,,,,2264,1,2025-10-21_14h07.16.214,sm,2024.2.4,59.908041156967684,2025-10-21 14h07.33.777054 +0200,
74,0,74,,,,,,space,2.84786559999975,None,None,2,1.0880816999997478,0.21501989999978832,None,0,0,0,0,,,,,0,0,0,0,,,,,74,0,74,0,924.4210223,,,,,,,,,,,,,,,,,,,,,,,,,,,,,,,,,,,,,,,,,,,,,,,,,,,,,,,,,Lied,2.2719,924.4057455000002,924.4062562999998,924.4063659000003,924.4210223,926.7039261,926.6885553000002,926.6920785000002,926.7039261,926.7039261,926.7039261,926.7039261,928.7040477,928.7040477,928.7040477,928.7040477,928.6887503999997,2,1.0880816999997478,0.21501989999978832,None,,,,,,,,,,,,,,,,,,,,,2264,1,2025-10-21_14h07.16.214,sm,2024.2.4,59.908041156967684,2025-10-21 14h07.33.777054 +0200,
75,0,75,,,,,,space,2.84786559999975,None,None,2,0.7402875000007043,0.16991959999995743,None,0,0,0,0,,,,,0,0,0,0,,,,,75,0,75,0,928.7040477,,,,,,,,,,,,,,,,,,,,,,,,,,,,,,,,,,,,,,,,,,,,,,,,,,,,,,,,,Turnerin,3.2175,928.6892581000002,928.68977,928.6898719999999,928.7040477,931.9203047999999,931.9048409999996,931.9085481000002,931.9203047999999,931.9203047999999,931.9203047999999,931.9203047999999,933.9208878999998,933.9208878999998,933.9208878999998,933.9208878999998,933.9047021999995,2,0.7402875000007043,0.16991959999995743,None,,,,,,,,,,,,,,,,,,,,,2264,1,2025-10-21_14h07.16.214,sm,2024.2.4,59.908041156967684,2025-10-21 14h07.33.777054 +0200,
76,0,76,,,,,,space,2.84786559999975,None,None,2,0.9544904999993378,0.17049620000034338,None,0,0,0,0,,,,,0,0,0,0,,,,,76,0,76,0,933.9208878999998,,,,,,,,,,,,,,,,,,,,,,,,,,,,,,,,,,,,,,,,,,,,,,,,,,,,,,,,,Mund,2.3579,933.9052081999998,933.9057926999994,933.9058962999998,933.9208878999998,936.2866686999996,936.2708803999994,936.2741335000001,936.2866686999996,936.2866686999996,936.2866686999996,936.2866686999996,938.2870543999998,938.2870543999998,938.2870543999998,938.2870543999998,938.2715204999995,2,0.9544904999993378,0.17049620000034338,None,,,,,,,,,,,,,,,,,,,,,2264,1,2025-10-21_14h07.16.214,sm,2024.2.4,59.908041156967684,2025-10-21 14h07.33.777054 +0200,
77,0,77,,,,,,space,2.84786559999975,None,None,2,0.7350265000004583,0.20045630000004167,None,0,0,0,0,,,,,0,0,0,0,,,,,77,0,77,0,938.2870543999998,,,,,,,,,,,,,,,,,,,,,,,,,,,,,,,,,,,,,,,,,,,,,,,,,,,,,,,,,Baum,3.9726,938.2720549999995,938.2725930999995,938.2727039000001,938.2870543999998,942.2704195999995,942.2540086999998,942.2568529999999,942.2704195999995,942.2704195999995,942.2704195999995,942.2704195999995,944.2697751999995,944.2697751999995,944.2697751999995,944.2697751999995,944.2542977000003,2,0.7350265000004583,0.20045630000004167,None,,,,,,,,,,,,,,,,,,,,,2264,1,2025-10-21_14h07.16.214,sm,2024.2.4,59.908041156967684,2025-10-21 14h07.33.777054 +0200,
78,0,78,,,,,,space,2.84786559999975,None,None,3,0.968837700000222,0.2766639999999825,None,0,0,0,0,,,,,0,0,0,0,,,,,78,0,78,0,944.2697751999995,,,,,,,,,,,,,,,,,,,,,,,,,,,,,,,,,,,,,,,,,,,,,,,,,,,,,,,,,Nachricht,4.8596,944.2548096999999,944.2553155999994,944.2554170000003,944.2697751999995,949.1361509999997,949.1206925999995,949.1260428999994,949.1361509999997,949.1361509999997,949.1361509999997,949.1361509999997,951.1361093999994,951.1361093999994,951.1361093999994,951.1361093999994,951.1203070000001,3,0.968837700000222,0.2766639999999825,None,,,,,,,,,,,,,,,,,,,,,2264,1,2025-10-21_14h07.16.214,sm,2024.2.4,59.908041156967684,2025-10-21 14h07.33.777054 +0200,
79,0,79,,,,,,space,2.84786559999975,None,None,3,0.7668413999999757,0.2566335000001345,None,0,0,0,0,,,,,0,0,0,0,,,,,79,0,79,0,951.1361093999994,,,,,,,,,,,,,,,,,,,,,,,,,,,,,,,,,,,,,,,,,,,,,,,,,,,,,,,,,Stiefel,2.6942,951.1208214999997,951.1213306999998,951.1214353999994,951.1361093999994,953.8363199999994,953.8202804000002,953.8245441999998,953.8363199999994,953.8363199999994,953.8363199999994,953.8363199999994,955.8484981000001,955.8484981000001,955.8484981000001,955.8484981000001,955.8202056999999,3,0.7668413999999757,0.2566335000001345,None,,,,,,,,,,,,,,,,,,,,,2264,1,2025-10-21_14h07.16.214,sm,2024.2.4,59.908041156967684,2025-10-21 14h07.33.777054 +0200,
0,0,0,,,,,2.065,space,1.7754234000003635,None,None,2,1.2229749999996784,0.22930750000068656,None,0,0,0,0,,,,,1,0,1,0,0,79,79,79,0,0,0,0,1004.7497578000002,,,,,,,,,,,,,,,,,,,,,,,,,,,,,,,,,,,,978.2998542999994,978.3001622000002,978.3064029999996,978.3111071000003,978.3111071000003,980.1026077999995,space,1.7754234000003635,None,980.1027548000002,980.1176869000001,980.1176869000001,992.7332532,None,992.7405749999998,992.7505618999994,992.7487117666662,993.9533575999994,1002.7333382666668,1003.7436796000002,1004.733956,Publikum,2.065,1004.7352997999997,1004.7360294,1004.7361372999994,1004.7497578000002,1006.8162289000002,1006.8006310999999,1006.8046618999997,1006.8162289000002,1006.8162289000002,1006.8162289000002,1006.8162289000002,1008.8165442,1008.8165442,1008.8165442,1008.8165442,1008.8006077,2,1.2229749999996784,0.22930750000068656,None,967.8353988999997,967.8354690999995,None,967.8467718000002,967.8575432999996,971.8516225000003,971.8516225000003,971.8681227999996,978.2528637999994,2,6.388545100000556,None,1004.7497578000002,,,,,,,,2264,1,2025-10-21_14h07.16.214,sm,2024.2.4,59.908041156967684,2025-10-21 14h07.33.777054 +0200,
1,0,1,,,,,,space,1.7754234000003635,None,None,2,0.5217795999997179,0.18549030000031053,None,0,0,0,0,,,,,1,0,1,0,,,,,1,0,1,0,1008.8165442,,,,,,,,,,,,,,,,,,,,,,,,,,,,,,,,,,,,,,,,,,,,,,,,,,,,,,,,,Bruder,4.291,1008.8011194000001,1008.8017744999997,1008.8018812,1008.8165442,1013.1159880999994,1013.1003802999994,1013.1043713999998,1013.1159880999994,1013.1159880999994,1013.1159880999994,1013.1159880999994,1015.1157963999995,1015.1157963999995,1015.1157963999995,1015.1157963999995,1015.1002983999997,2,0.5217795999997179,0.18549030000031053,None,,,,,,,,,,,,,,,,,,,,,2264,1,2025-10-21_14h07.16.214,sm,2024.2.4,59.908041156967684,2025-10-21 14h07.33.777054 +0200,
2,0,2,,,,,,space,1.7754234000003635,None,None,2,0.6473636000000624,0.21819789999972272,None,0,0,0,0,,,,,1,0,1,0,,,,,2,0,2,0,1015.1157963999995,,,,,,,,,,,,,,,,,,,,,,,,,,,,,,,,,,,,,,,,,,,,,,,,,,,,,,,,,Fisch,2.9922,1015.1008079000003,1015.1015563999999,1015.1016626,1015.1157963999995,1018.1154428999998,1018.1003106999997,1018.1042577999997,1018.1154428999998,1018.1154428999998,1018.1154428999998,1018.1154428999998,1020.1156805,1020.1156805,1020.1156805,1020.1156805,1020.1000967,2,0.6473636000000624,0.21819789999972272,None,,,,,,,,,,,,,,,,,,,,,2264,1,2025-10-21_14h07.16.214,sm,2024.2.4,59.908041156967684,2025-10-21 14h07.33.777054 +0200,
3,0,3,,,,,,space,1.7754234000003635,None,None,3,0.641956399999799,0.2639954000005673,None,0,0,0,0,,,,,1,0,1,0,,,,,3,0,3,0,1020.1156805,,,,,,,,,,,,,,,,,,,,,,,,,,,,,,,,,,,,,,,,,,,,,,,,,,,,,,,,,Gold,2.6737,1020.1006013999995,1020.1013505999999,1020.1014605,1020.1156805,1022.7989607,1022.7829520999994,1022.7866513999998,1022.7989607,1022.7989607,1022.7989607,1022.7989607,1024.7986031,1024.7986031,1024.7986031,1024.7986031,1024.7832325,3,0.641956399999799,0.2639954000005673,None,,,,,,,,,,,,,,,,,,,,,2264,1,2025-10-21_14h07.16.214,sm,2024.2.4,59.908041156967684,2025-10-21 14h07.33.777054 +0200,
4,0,4,,,,,,space,1.7754234000003635,None,None,3,0.8875857000002725,0.2572980999993888,None,0,0,0,0,,,,,1,0,1,0,,,,,4,0,4,0,1024.7986031,,,,,,,,,,,,,,,,,,,,,,,,,,,,,,,,,,,,,,,,,,,,,,,,,,,,,,,,,Atem,2.4418,1024.7837393,1024.7842570000003,1024.7843623999997,1024.7986031,1027.2484447999996,1027.2327440999998,1027.2371210000001,1027.2484447999996,1027.2484447999996,1027.2484447999996,1027.2484447999996,1029.2482939000001,1029.2482939000001,1029.2482939000001,1029.2482939000001,1029.2326838999998,3,0.8875857000002725,0.2572980999993888,None,,,,,,,,,,,,,,,,,,,,,2264,1,2025-10-21_14h07.16.214,sm,2024.2.4,59.908041156967684,2025-10-21 14h07.33.777054 +0200,
5,0,5,,,,,,space,1.7754234000003635,None,None,2,1.0861168000001271,0.2526810999997906,None,0,0,0,0,,,,,1,0,1,0,,,,,5,0,5,0,1029.2482939000001,,,,,,,,,,,,,,,,,,,,,,,,,,,,,,,,,,,,,,,,,,,,,,,,,,,,,,,,,Schmerz,2.3109,1029.2331961,1029.2338005000001,1029.2339112,1029.2482939000001,1031.5645570999995,1031.5493309000003,1031.5530637000002,1031.5645570999995,1031.5645570999995,1031.5645570999995,1031.5645570999995,1033.5648123,1033.5648123,1033.5648123,1033.5648123,1033.5492339000002,2,1.0861168000001271,0.2526810999997906,None,,,,,,,,,,,,,,,,,,,,,2264,1,2025-10-21_14h07.16.214,sm,2024.2.4,59.908041156967684,2025-10-21 14h07.33.777054 +0200,
6,0,6,,,,,,space,1.7754234000003635,None,None,3,1.4438202999999703,0.3717584000005445,None,0,0,0,0,,,,,1,0,1,0,,,,,6,0,6,0,1033.5648123,,,,,,,,,,,,,,,,,,,,,,,,,,,,,,,,,,,,,,,,,,,,,,,,,,,,,,,,,Gipfel,2.2294,1033.5497415,1033.5502693999997,1033.5503723000002,1033.5648123,1035.7978991999998,1035.7822691000001,1035.7864552,1035.7978991999998,1035.7978991999998,1035.7978991999998,1035.7978991999998,1037.7982782,1037.7982782,1037.7982782,1037.7982782,1037.7822170999998,3,1.4438202999999703,0.3717584000005445,None,,,,,,,,,,,,,,,,,,,,,2264,1,2025-10-21_14h07.16.214,sm,2024.2.4,59.908041156967684,2025-10-21 14h07.33.777054 +0200,
7,0,7,,,,,,space,1.7754234000003635,None,None,2,1.6487294999997175,0.15012900000056106,None,0,0,0,0,,,,,1,0,1,0,,,,,7,0,7,0,1037.7982782,,,,,,,,,,,,,,,,,,,,,,,,,,,,,,,,,,,,,,,,,,,,,,,,,,,,,,,,,Besucher,3.8285,1037.7827256,1037.7832235999995,1037.7833324000003,1037.7982782,1041.6307551999998,1041.6157054999994,1041.6194562,1041.6307551999998,1041.6307551999998,1041.6307551999998,1041.6307551999998,1043.6310414,1043.6310414,1043.6310414,1043.6310414,1043.6153297,2,1.6487294999997175,0.15012900000056106,None,,,,,,,,,,,,,,,,,,,,,2264,1,2025-10-21_14h07.16.214,sm,2024.2.4,59.908041156967684,2025-10-21 14h07.33.777054 +0200,
8,0,8,,,,,,space,1.7754234000003635,None,None,3,0.7701778999999078,0.2383252999998149,None,0,0,0,0,,,,,1,0,1,0,,,,,8,0,8,0,1043.6310414,,,,,,,,,,,,,,,,,,,,,,,,,,,,,,,,,,,,,,,,,,,,,,,,,,,,,,,,,Monument,2.1788,1043.6158336999997,1043.6165408999996,1043.6166555,1043.6310414,1045.8140155,1045.7984648000001,1045.8027498000001,1045.8140155,1045.8140155,1045.8140155,1045.8140155,1047.8141145999998,1047.8141145999998,1047.8141145999998,1047.8141145999998,1047.7983230999998,3,0.7701778999999078,0.2383252999998149,None,,,,,,,,,,,,,,,,,,,,,2264,1,2025-10-21_14h07.16.214,sm,2024.2.4,59.908041156967684,2025-10-21 14h07.33.777054 +0200,
9,0,9,,,,,,space,1.7754234000003635,None,None,3,0.8485422000003382,0.22625779999998485,None,0,0,0,0,,,,,1,0,1,0,,,,,9,0,9,0,1047.8141145999998,,,,,,,,,,,,,,,,,,,,,,,,,,,,,,,,,,,,,,,,,,,,,,,,,,,,,,,,,Gegenwart,4.4759,1047.7987980999997,1047.7992804999994,1047.7993847999996,1047.8141145999998,1052.2969992999997,1052.2814589,1052.2857505000002,1052.2969992999997,1052.2969992999997,1052.2969992999997,1052.2969992999997,1054.2970623,1054.2970623,1054.2970623,1054.2970623,1054.2814034000003,3,0.8485422000003382,0.22625779999998485,None,,,,,,,,,,,,,,,,,,,,,2264,1,2025-10-21_14h07.16.214,sm,2024.2.4,59.908041156967684,2025-10-21 14h07.33.777054 +0200,
10,0,10,,,,,,space,1.7754234000003635,None,None,3,1.2261263000000326,0.22898859999986598,None,0,0,0,0,,,,,1,0,1,0,,,,,10,0,10,0,1054.2970623,,,,,,,,,,,,,,,,,,,,,,,,,,,,,,,,,,,,,,,,,,,,,,,,,,,,,,,,,Sicherheit,2.3958,1054.2819149999996,1054.2824469999996,1054.2825516000003,1054.2970623,1056.6968877,1056.6810139,1056.6849614000002,1056.6968877,1056.6968877,1056.6968877,1056.6968877,1058.6967886000002,1058.6967886000002,1058.6967886000002,1058.6967886000002,1058.6809581999996,3,1.2261263000000326,0.22898859999986598,None,,,,,,,,,,,,,,,,,,,,,2264,1,2025-10-21_14h07.16.214,sm,2024.2.4,59.908041156967684,2025-10-21 14h07.33.777054 +0200,
11,0,11,,,,,,space,1.7754234000003635,None,None,3,0.721908400000757,0.20949539999946865,None,0,0,0,0,,,,,1,0,1,0,,,,,11,0,11,0,1058.6967886000002,,,,,,,,,,,,,,,,,,,,,,,,,,,,,,,,,,,,,,,,,,,,,,,,,,,,,,,,,Schlüssel,2.5836,1058.6814709999999,1058.6819905000002,1058.6821002999995,1058.6967886000002,1061.2796498999996,1061.2640569999994,1061.2683189,1061.2796498999996,1061.2796498999996,1061.2796498999996,1061.2796498999996,1063.2798705999994,1063.2798705999994,1063.2798705999994,1063.2798705999994,1063.2641911,3,0.721908400000757,0.20949539999946865,None,,,,,,,,,,,,,,,,,,,,,2264,1,2025-10-21_14h07.16.214,sm,2024.2.4,59.908041156967684,2025-10-21 14h07.33.777054 +0200,
12,0,12,,,,,,space,1.7754234000003635,None,None,2,0.6599903999995149,0.16991219999999885,None,0,0,0,0,,,,,1,0,1,0,,,,,12,0,12,0,1063.2798705999994,,,,,,,,,,,,,,,,,,,,,,,,,,,,,,,,,,,,,,,,,,,,,,,,,,,,,,,,,Hai,2.2884,1063.2646978000002,1063.2652195,1063.2653230999995,1063.2798705999994,1065.5793954,1065.5637796,1065.5673378000001,1065.5793954,1065.5793954,1065.5793954,1065.5793954,1067.5795317000002,1067.5795317000002,1067.5795317000002,1067.5795317000002,1067.5640354999996,2,0.6599903999995149,0.16991219999999885,None,,,,,,,,,,,,,,,,,,,,,2264,1,2025-10-21_14h07.16.214,sm,2024.2.4,59.908041156967684,2025-10-21 14h07.33.777054 +0200,
13,0,13,,,,,,space,1.7754234000003635,None,None,3,1.0597307999996701,0.2287532000000283,None,0,0,0,0,,,,,1,0,1,0,,,,,13,0,13,0,1067.5795317000002,,,,,,,,,,,,,,,,,,,,,,,,,,,,,,,,,,,,,,,,,,,,,,,,,,,,,,,,,Komödie,2.07,1067.5645458999998,1067.5650601999996,1067.5651691000003,1067.5795317000002,1069.6627368999998,1069.6470848,1069.6511496000003,1069.6627368999998,1069.6627368999998,1069.6627368999998,1069.6627368999998,1071.6627637000001,1071.6627637000001,1071.6627637000001,1071.6627637000001,1071.6470287000002,3,1.0597307999996701,0.2287532000000283,None,,,,,,,,,,,,,,,,,,,,,2264,1,2025-10-21_14h07.16.214,sm,2024.2.4,59.908041156967684,2025-10-21 14h07.33.777054 +0200,
14,0,14,,,,,,space,1.7754234000003635,None,None,3,1.1837075000003097,0.23947499999940192,None,0,0,0,0,,,,,1,0,1,0,,,,,14,0,14,0,1071.6627637000001,,,,,,,,,,,,,,,,,,,,,,,,,,,,,,,,,,,,,,,,,,,,,,,,,,,,,,,,,Rock,5.5971,1071.6475340999996,1071.6480457999996,1071.6481526999996,1071.6627637000001,1077.2622020999997,1077.2465039999997,1077.2496062999999,1077.2622020999997,1077.2622020999997,1077.2622020999997,1077.2622020999997,1079.2621090000002,1079.2621090000002,1079.2621090000002,1079.2621090000002,1079.2465531999997,3,1.1837075000003097,0.23947499999940192,None,,,,,,,,,,,,,,,,,,,,,2264,1,2025-10-21_14h07.16.214,sm,2024.2.4,59.908041156967684,2025-10-21 14h07.33.777054 +0200,
15,0,15,,,,,,space,1.7754234000003635,None,None,2,0.6863017999994554,0.22902390000035666,None,0,0,0,0,,,,,1,0,1,0,,,,,15,0,15,0,1079.2621090000002,,,,,,,,,,,,,,,,,,,,,,,,,,,,,,,,,,,,,,,,,,,,,,,,,,,,,,,,,Autorin,2.4918,1079.2470624999996,1079.2475636999998,1079.2476688999996,1079.2621090000002,1081.7620417999997,1081.7461506,1081.7499645999997,1081.7620417999997,1081.7620417999997,1081.7620417999997,1081.7620417999997,1083.7620189999998,1083.7620189999998,1083.7620189999998,1083.7620189999998,1083.7466489999997,2,0.6863017999994554,0.22902390000035666,None,,,,,,,,,,,,,,,,,,,,,2264,1,2025-10-21_14h07.16.214,sm,2024.2.4,59.908041156967684,2025-10-21 14h07.33.777054 +0200,
16,0,16,,,,,,space,1.7754234000003635,None,None,3,0.6653724999996484,0.2052430000003369,None,0,0,0,0,,,,,1,0,1,0,,,,,16,0,16,0,1083.7620189999998,,,,,,,,,,,,,,,,,,,,,,,,,,,,,,,,,,,,,,,,,,,,,,,,,,,,,,,,,Bus,3.0301,1083.7471586000001,1083.7476729,1083.7477755,1083.7620189999998,1086.7952647000002,1086.7793928,1086.7826522999994,1086.7952647000002,1086.7952647000002,1086.7952647000002,1086.7952647000002,1088.7950113999996,1088.7950113999996,1088.7950113999996,1088.7950113999996,1088.7794475,3,0.6653724999996484,0.2052430000003369,None,,,,,,,,,,,,,,,,,,,,,2264,1,2025-10-21_14h07.16.214,sm,2024.2.4,59.908041156967684,2025-10-21 14h07.33.777054 +0200,
17,0,17,,,,,,space,1.7754234000003635,None,None,2,0.9695990999998685,0.193842599999698,None,0,0,0,0,,,,,1,0,1,0,,,,,17,0,17,0,1088.7950113999996,,,,,,,,,,,,,,,,,,,,,,,,,,,,,,,,,,,,,,,,,,,,,,,,,,,,,,,,,Präsident,2.1429,1088.7799741999997,1088.7804925,1088.7805980000003,1088.7950113999996,1090.9445822999996,1090.9292739000002,1090.9354518999999,1090.9445822999996,1090.9445822999996,1090.9445822999996,1090.9445822999996,1092.9447873,1092.9447873,1092.9447873,1092.9447873,1092.9291757,2,0.9695990999998685,0.193842599999698,None,,,,,,,,,,,,,,,,,,,,,2264,1,2025-10-21_14h07.16.214,sm,2024.2.4,59.908041156967684,2025-10-21 14h07.33.777054 +0200,
18,0,18,,,,,,space,1.7754234000003635,None,None,3,1.0384312000005593,0.4536175999992338,None,0,0,0,0,,,,,1,0,1,0,,,,,18,0,18,0,1092.9447873,,,,,,,,,,,,,,,,,,,,,,,,,,,,,,,,,,,,,,,,,,,,,,,,,,,,,,,,,Popcorn,2.1523,1092.9296766999996,1092.9303138999994,1092.9304167,1092.9447873,1095.1113946999994,1095.0956992000001,1095.1004238999994,1095.1113946999994,1095.1113946999994,1095.1113946999994,1095.1113946999994,1097.1111761000002,1097.1111761000002,1097.1111761000002,1097.1111761000002,1097.0954571000002,3,1.0384312000005593,0.4536175999992338,None,,,,,,,,,,,,,,,,,,,,,2264,1,2025-10-21_14h07.16.214,sm,2024.2.4,59.908041156967684,2025-10-21 14h07.33.777054 +0200,
19,0,19,,,,,,space,1.7754234000003635,None,None,3,0.9670049999995172,0.2557377000002816,None,0,0,0,0,,,,,1,0,1,0,,,,,19,0,19,0,1097.1111761000002,,,,,,,,,,,,,,,,,,,,,,,,,,,,,,,,,,,,,,,,,,,,,,,,,,,,,,,,,Sterne,2.286,1097.0959310999997,1097.0964638999994,1097.0965661,1097.1111761000002,1099.4107273999998,1099.3954773999994,1099.3994826999997,1099.4107273999998,1099.4107273999998,1099.4107273999998,1099.4107273999998,1101.4109909999997,1101.4109909999997,1101.4109909999997,1101.4109909999997,1101.3955065,3,0.9670049999995172,0.2557377000002816,None,,,,,,,,,,,,,,,,,,,,,2264,1,2025-10-21_14h07.16.214,sm,2024.2.4,59.908041156967684,2025-10-21 14h07.33.777054 +0200,
20,0,20,,,,,,space,1.7754234000003635,None,None,2,0.8121741000004477,0.1505868999993254,None,0,0,0,0,,,,,1,0,1,0,,,,,20,0,20,0,1101.4109909999997,,,,,,,,,,,,,,,,,,,,,,,,,,,,,,,,,,,,,,,,,,,,,,,,,,,,,,,,,Gras,3.4475,1101.3960097,1101.3967634,1101.3969368999997,1101.4109909999997,1104.8606374,1104.8452479999996,1104.8489344,1104.8606374,1104.8606374,1104.8606374,1104.8606374,1106.8608456000002,1106.8608456000002,1106.8608456000002,1106.8608456000002,1106.8451432000002,2,0.8121741000004477,0.1505868999993254,None,,,,,,,,,,,,,,,,,,,,,2264,1,2025-10-21_14h07.16.214,sm,2024.2.4,59.908041156967684,2025-10-21 14h07.33.777054 +0200,
21,0,21,,,,,,space,1.7754234000003635,None,None,2,0.7195131000007677,0.22140029999991384,None,0,0,0,0,,,,,1,0,1,0,,,,,21,0,21,0,1106.8608456000002,,,,,,,,,,,,,,,,,,,,,,,,,,,,,,,,,,,,,,,,,,,,,,,,,,,,,,,,,Zunge,3.9726,1106.8456460999996,1106.8461652999995,1106.8462687,1106.8608456000002,1110.8435958,1110.8281672000003,1110.8318951,1110.8435958,1110.8435958,1110.8435958,1110.8435958,1112.8437625999995,1112.8437625999995,1112.8437625999995,1112.8437625999995,1112.8278803000003,2,0.7195131000007677,0.22140029999991384,None,,,,,,,,,,,,,,,,,,,,,2264,1,2025-10-21_14h07.16.214,sm,2024.2.4,59.908041156967684,2025-10-21 14h07.33.777054 +0200,
22,0,22,,,,,,space,1.7754234000003635,None,None,3,1.2602084999998624,0.16614970000046014,None,0,0,0,0,,,,,1,0,1,0,,,,,22,0,22,0,1112.8437625999995,,,,,,,,,,,,,,,,,,,,,,,,,,,,,,,,,,,,,,,,,,,,,,,,,,,,,,,,,Sauber,2.304,1112.8283364999998,1112.8288180999998,1112.8289168000001,1112.8437625999995,1115.1601787,1115.1445311999996,1115.1482323,1115.1601787,1115.1601787,1115.1601787,1115.1601787,1117.1601541,1117.1601541,1117.1601541,1117.1601541,1117.1447349999999,3,1.2602084999998624,0.16614970000046014,None,,,,,,,,,,,,,,,,,,,,,2264,1,2025-10-21_14h07.16.214,sm,2024.2.4,59.908041156967684,2025-10-21 14h07.33.777054 +0200,
23,0,23,,,,,,space,1.7754234000003635,None,None,3,0.6058765000007043,0.20047650000014983,None,0,0,0,0,,,,,1,0,1,0,,,,,23,0,23,0,1117.1601541,,,,,,,,,,,,,,,,,,,,,,,,,,,,,,,,,,,,,,,,,,,,,,,,,,,,,,,,,Papier,2.4228,1117.1452400999997,1117.1458867000001,1117.1459933999995,1117.1601541,1119.5932051999998,1119.5775421999997,1119.5823192999997,1119.5932051999998,1119.5932051999998,1119.5932051999998,1119.5932051999998,1121.5931092,1121.5931092,1121.5931092,1121.5931092,1121.5775483999996,3,0.6058765000007043,0.20047650000014983,None,,,,,,,,,,,,,,,,,,,,,2264,1,2025-10-21_14h07.16.214,sm,2024.2.4,59.908041156967684,2025-10-21 14h07.33.777054 +0200,
24,0,24,,,,,,space,1.7754234000003635,None,None,2,1.0265838000004806,0.22233629999936966,None,0,0,0,0,,,,,1,0,1,0,,,,,24,0,24,0,1121.5931092,,,,,,,,,,,,,,,,,,,,,,,,,,,,,,,,,,,,,,,,,,,,,,,,,,,,,,,,,Tanz,2.5255,1121.5781030999997,1121.5786077000002,1121.5787122000002,1121.5931092,1124.1262024999996,1124.1106369,1124.1138800999997,1124.1262024999996,1124.1262024999996,1124.1262024999996,1124.1262024999996,1126.1261341999998,1126.1261341999998,1126.1261341999998,1126.1261341999998,1126.1105301999996,2,1.0265838000004806,0.22233629999936966,None,,,,,,,,,,,,,,,,,,,,,2264,1,2025-10-21_14h07.16.214,sm,2024.2.4,59.908041156967684,2025-10-21 14h07.33.777054 +0200,
25,0,25,,,,,,space,1.7754234000003635,None,None,2,0.9622156999994331,0.19886680000035994,None,0,0,0,0,,,,,1,0,1,0,,,,,25,0,25,0,1126.1261341999998,,,,,,,,,,,,,,,,,,,,,,,,,,,,,,,,,,,,,,,,,,,,,,,,,,,,,,,,,Koch,2.1198,1126.1110385000002,1126.1116127999994,1126.1117186000001,1126.1261341999998,1128.259411,1128.2435374999995,1128.2465867,1128.259411,1128.259411,1128.259411,1128.259411,1130.2593938999998,1130.2593938999998,1130.2593938999998,1130.2593938999998,1130.2437399,2,0.9622156999994331,0.19886680000035994,None,,,,,,,,,,,,,,,,,,,,,2264,1,2025-10-21_14h07.16.214,sm,2024.2.4,59.908041156967684,2025-10-21 14h07.33.777054 +0200,
26,0,26,,,,,,space,1.7754234000003635,None,None,3,1.10436270000082,0.285081099999843,None,0,0,0,0,,,,,1,0,1,0,,,,,26,0,26,0,1130.2593938999998,,,,,,,,,,,,,,,,,,,,,,,,,,,,,,,,,,,,,,,,,,,,,,,,,,,,,,,,,Ringe,2.7028,1130.2442418,1130.2448034999998,1130.2449084999998,1130.2593938999998,1132.9762728999995,1132.9599921,1132.9633568999998,1132.9762728999995,1132.9762728999995,1132.9762728999995,1132.9762728999995,1134.9755949,1134.9755949,1134.9755949,1134.9755949,1134.9604180999995,3,1.10436270000082,0.285081099999843,None,,,,,,,,,,,,,,,,,,,,,2264,1,2025-10-21_14h07.16.214,sm,2024.2.4,59.908041156967684,2025-10-21 14h07.33.777054 +0200,
27,0,27,,,,,,space,1.7754234000003635,None,None,3,1.005464199999551,0.21439449999979843,None,0,0,0,0,,,,,1,0,1,0,,,,,27,0,27,0,1134.9755949,,,,,,,,,,,,,,,,,,,,,,,,,,,,,,,,,,,,,,,,,,,,,,,,,,,,,,,,,Erbe,2.6942,1134.9609314999998,1134.9614460000003,1134.9615529000002,1134.9755949,1137.6755527999994,1137.6598210000002,1137.6631311,1137.6755527999994,1137.6755527999994,1137.6755527999994,1137.6755527999994,1139.6756227999995,1139.6756227999995,1139.6756227999995,1139.6756227999995,1139.6601295,3,1.005464199999551,0.21439449999979843,None,,,,,,,,,,,,,,,,,,,,,2264,1,2025-10-21_14h07.16.214,sm,2024.2.4,59.908041156967684,2025-10-21 14h07.33.777054 +0200,
28,0,28,,,,,,space,1.7754234000003635,None,None,3,1.5590543999996953,None,None,0,0,0,0,,,,,1,0,1,0,,,,,28,0,28,0,1139.6756227999995,,,,,,,,,,,,,,,,,,,,,,,,,,,,,,,,,,,,,,,,,,,,,,,,,,,,,,,,,Keller,2.91,1139.6606368000002,1139.6611457999998,1139.6612481000002,1139.6756227999995,1142.5919461000003,1142.5760829,1142.5795472,1142.5919461000003,1142.5919461000003,1142.5919461000003,1142.5919461000003,1144.5917726999996,1144.5917726999996,1144.5917726999996,1144.5917726999996,1144.576798,3,1.5590543999996953,None,None,,,,,,,,,,,,,,,,,,,,,2264,1,2025-10-21_14h07.16.214,sm,2024.2.4,59.908041156967684,2025-10-21 14h07.33.777054 +0200,
29,0,29,,,,,,space,1.7754234000003635,None,None,3,0.8909421000007569,0.19448539999939385,None,0,0,0,0,,,,,1,0,1,0,,,,,29,0,29,0,1144.5917726999996,,,,,,,,,,,,,,,,,,,,,,,,,,,,,,,,,,,,,,,,,,,,,,,,,,,,,,,,,Gabel,4.405,1144.5773073999999,1144.5778051999996,1144.5779101999997,1144.5917726999996,1149.0082362000003,1148.9930033,1148.9969622999997,1149.0082362000003,1149.0082362000003,1149.0082362000003,1149.0082362000003,1151.0081705000002,1151.0081705000002,1151.0081705000002,1151.0081705000002,1150.9924819999997,3,0.8909421000007569,0.19448539999939385,None,,,,,,,,,,,,,,,,,,,,,2264,1,2025-10-21_14h07.16.214,sm,2024.2.4,59.908041156967684,2025-10-21 14h07.33.777054 +0200,
30,0,30,,,,,,space,1.7754234000003635,None,None,2,1.1627380999998422,0.1873115999997026,None,0,0,0,0,,,,,1,0,1,0,,,,,30,0,30,0,1151.0081705000002,,,,,,,,,,,,,,,,,,,,,,,,,,,,,,,,,,,,,,,,,,,,,,,,,,,,,,,,,Liebe,2.3579,1150.9929868999998,1150.9934984000001,1150.9936075999995,1151.0081705000002,1153.3744869000002,1153.3588202,1153.3647015999995,1153.3744869000002,1153.3744869000002,1153.3744869000002,1153.3744869000002,1155.3746529999999,1155.3746529999999,1155.3746529999999,1155.3746529999999,1155.3589234,2,1.1627380999998422,0.1873115999997026,None,,,,,,,,,,,,,,,,,,,,,2264,1,2025-10-21_14h07.16.214,sm,2024.2.4,59.908041156967684,2025-10-21 14h07.33.777054 +0200,
31,0,31,,,,,,space,1.7754234000003635,None,None,2,0.7953144999992219,0.20210240000051272,None,0,0,0,0,,,,,1,0,1,0,,,,,31,0,31,0,1155.3746529999999,,,,,,,,,,,,,,,,,,,,,,,,,,,,,,,,,,,,,,,,,,,,,,,,,,,,,,,,,Vogel,2.2719,1155.3594002999998,1155.3598847000003,1155.3599810999995,1155.3746529999999,1157.6575735999995,1157.6420151000002,1157.6456395999994,1157.6575735999995,1157.6575735999995,1157.6575735999995,1157.6575735999995,1159.6576496999996,1159.6576496999996,1159.6576496999996,1159.6576496999996,1159.6420080999997,2,0.7953144999992219,0.20210240000051272,None,,,,,,,,,,,,,,,,,,,,,2264,1,2025-10-21_14h07.16.214,sm,2024.2.4,59.908041156967684,2025-10-21 14h07.33.777054 +0200,
32,0,32,,,,,,space,1.7754234000003635,None,None,3,1.0015288000004148,0.29160479999973177,None,0,0,0,0,,,,,1,0,1,0,,,,,32,0,32,0,1159.6576496999996,,,,,,,,,,,,,,,,,,,,,,,,,,,,,,,,,,,,,,,,,,,,,,,,,,,,,,,,,Erde,4.5278,1159.6425140000001,1159.6431979,1159.6433135999996,1159.6576496999996,1164.1906278999995,1164.1750847000003,1164.1785884,1164.1906278999995,1164.1906278999995,1164.1906278999995,1164.1906278999995,1166.1906849999996,1166.1906849999996,1166.1906849999996,1166.1906849999996,1166.1753130999996,3,1.0015288000004148,0.29160479999973177,None,,,,,,,,,,,,,,,,,,,,,2264,1,2025-10-21_14h07.16.214,sm,2024.2.4,59.908041156967684,2025-10-21 14h07.33.777054 +0200,
33,0,33,,,,,,space,1.7754234000003635,None,None,3,1.3244025999993028,0.2180117000007158,None,0,0,0,0,,,,,1,0,1,0,,,,,33,0,33,0,1166.1906849999996,,,,,,,,,,,,,,,,,,,,,,,,,,,,,,,,,,,,,,,,,,,,,,,,,,,,,,,,,Bürste,3.3222,1166.1757365000003,1166.1762288,1166.1763174999996,1166.1906849999996,1169.5239139999994,1169.5080677999995,1169.5117720999997,1169.5239139999994,1169.5239139999994,1169.5239139999994,1169.5239139999994,1171.5237431999994,1171.5237431999994,1171.5237431999994,1171.5237431999994,1171.5081774,3,1.3244025999993028,0.2180117000007158,None,,,,,,,,,,,,,,,,,,,,,2264,1,2025-10-21_14h07.16.214,sm,2024.2.4,59.908041156967684,2025-10-21 14h07.33.777054 +0200,
34,0,34,,,,,,space,1.7754234000003635,None,None,3,1.086719300000368,0.20145359999969514,None,0,0,0,0,,,,,1,0,1,0,,,,,34,0,34,0,1171.5237431999994,,,,,,,,,,,,,,,,,,,,,,,,,,,,,,,,,,,,,,,,,,,,,,,,,,,,,,,,,Fiktion,2.309,1171.5086822000003,1171.5091903000002,1171.5092956999997,1171.5237431999994,1173.8401434999996,1173.8243568999997,1173.8278183000002,1173.8401434999996,1173.8401434999996,1173.8401434999996,1173.8401434999996,1175.8402335,1175.8402335,1175.8402335,1175.8402335,1175.8249810999996,3,1.086719300000368,0.20145359999969514,None,,,,,,,,,,,,,,,,,,,,,2264,1,2025-10-21_14h07.16.214,sm,2024.2.4,59.908041156967684,2025-10-21 14h07.33.777054 +0200,
35,0,35,,,,,,space,1.7754234000003635,None,None,2,0.6657003000000259,0.18557909999981348,None,0,0,0,0,,,,,1,0,1,0,,,,,35,0,35,0,1175.8402335,,,,,,,,,,,,,,,,,,,,,,,,,,,,,,,,,,,,,,,,,,,,,,,,,,,,,,,,,Finger,2.8259,1175.8254979000003,1175.8261796999996,1175.8262910000003,1175.8402335,1178.6733818000002,1178.6577875000003,1178.6619374000002,1178.6733818000002,1178.6733818000002,1178.6733818000002,1178.6733818000002,1180.673358,1180.673358,1180.673358,1180.673358,1180.6575428999995,2,0.6657003000000259,0.18557909999981348,None,,,,,,,,,,,,,,,,,,,,,2264,1,2025-10-21_14h07.16.214,sm,2024.2.4,59.908041156967684,2025-10-21 14h07.33.777054 +0200,
36,0,36,,,,,,space,1.7754234000003635,None,None,3,0.8313174000004437,None,None,0,0,0,0,,,,,1,0,1,0,,,,,36,0,36,0,1180.673358,,,,,,,,,,,,,,,,,,,,,,,,,,,,,,,,,,,,,,,,,,,,,,,,,,,,,,,,,Dorn,2.3908,1180.6580629999999,1180.6585705999996,1180.6586730999998,1180.673358,1183.0731328000002,1183.0571964,1183.060555,1183.0731328000002,1183.0731328000002,1183.0731328000002,1183.0731328000002,1185.0728932000002,1185.0728932000002,1185.0728932000002,1185.0728932000002,1185.057479,3,0.8313174000004437,None,None,,,,,,,,,,,,,,,,,,,,,2264,1,2025-10-21_14h07.16.214,sm,2024.2.4,59.908041156967684,2025-10-21 14h07.33.777054 +0200,
37,0,37,,,,,,space,1.7754234000003635,None,None,None,,,None,0,0,0,0,,,,,1,0,1,0,,,,,37,0,37,0,1185.0728932000002,,,,,,,,,,,,,,,,,,,,,,,,,,,,,,,,,,,,,,,,,,,,,,,,,,,,,,,,,Kante,3.0483,1185.0579877999999,1185.0585399000001,1185.0586457999998,1185.0728932000002,1188.1227245999999,1188.1068218,1188.1105958999997,1188.1227245999999,1188.1227245999999,1188.1227245999999,1188.1227245999999,1190.1225724999995,1190.1225724999995,1190.1225724999995,1190.1225724999995,1190.1072106000001,None,,,None,,,,,,,,,,,,,,,,,,,,,2264,1,2025-10-21_14h07.16.214,sm,2024.2.4,59.908041156967684,2025-10-21 14h07.33.777054 +0200,
38,0,38,,,,,,space,1.7754234000003635,None,None,None,,,None,0,0,0,0,,,,,1,0,1,0,,,,,38,0,38,0,1190.1225724999995,,,,,,,,,,,,,,,,,,,,,,,,,,,,,,,,,,,,,,,,,,,,,,,,,,,,,,,,,Bart,3.126,1190.1076868999999,1190.1082273000002,1190.1083343999999,1190.1225724999995,1193.2558081999996,1193.2398113,1193.2434064,1193.2558081999996,1193.2558081999996,1193.2558081999996,1193.2558081999996,1195.2558596,1195.2558596,1195.2558596,1195.2558596,1195.2399582999997,None,,,None,,,,,,,,,,,,,,,,,,,,,2264,1,2025-10-21_14h07.16.214,sm,2024.2.4,59.908041156967684,2025-10-21 14h07.33.777054 +0200,
39,0,39,,,,,,space,1.7754234000003635,None,None,None,,,None,0,0,0,0,,,,,1,0,1,0,,,,,39,0,39,0,1195.2558596,,,,,,,,,,,,,,,,,,,,,,,,,,,,,,,,,,,,,,,,,,,,,,,,,,,,,,,,,Brief,2.9563,1195.2404056999994,1195.2409268000001,1195.2410260999995,1195.2558596,1198.2232484999995,1198.2064738999998,1198.2098350999995,1198.2232484999995,1198.2232484999995,1198.2232484999995,1198.2232484999995,,,,,1200.2222536,None,,,None,,,,,,,,,,,,,,,,,,,,,2264,1,2025-10-21_14h07.16.214,sm,2024.2.4,59.908041156967684,2025-10-21 14h07.33.777054 +0200,
40,0,40,,,,,,space,1.7754234000003635,None,None,3,1.4279280999999173,0.2752479000000676,None,0,0,0,0,,,,,1,0,1,0,,,,,40,0,40,0,1200.2389936,,,,,,,,,,,,,,,,,,,,,,,,,,,,,,,,,,,,,,,,,,,,,,,,,,,,,,,,,Album,2.3346,1200.2227008999998,1200.2234357999996,1200.2235429000002,1200.2389936,1202.5885599000003,1202.5729550999995,1202.5767000999995,1202.5885599000003,1202.5885599000003,1202.5885599000003,1202.5885599000003,1204.5884433,1204.5884433,1204.5884433,1204.5884433,1204.5731456000003,3,1.4279280999999173,0.2752479000000676,None,,,,,,,,,,,,,,,,,,,,,2264,1,2025-10-21_14h07.16.214,sm,2024.2.4,59.908041156967684,2025-10-21 14h07.33.777054 +0200,
41,0,41,,,,,,space,1.7754234000003635,None,None,3,1.3189601999993101,0.25920590000077937,None,0,0,0,0,,,,,1,0,1,0,,,,,41,0,41,0,1204.5884433,,,,,,,,,,,,,,,,,,,,,,,,,,,,,,,,,,,,,,,,,,,,,,,,,,,,,,,,,Hütte,2.3394,1204.5736598000003,1204.5741568000003,1204.5742602999999,1204.5884433,1206.9384276,1206.9230373,1206.9269908999995,1206.9384276,1206.9384276,1206.9384276,1206.9384276,1208.9383209999996,1208.9383209999996,1208.9383209999996,1208.9383209999996,1208.9225557,3,1.3189601999993101,0.25920590000077937,None,,,,,,,,,,,,,,,,,,,,,2264,1,2025-10-21_14h07.16.214,sm,2024.2.4,59.908041156967684,2025-10-21 14h07.33.777054 +0200,
42,0,42,,,,,,space,1.7754234000003635,None,None,None,,,None,0,0,0,0,,,,,1,0,1,0,,,,,42,0,42,0,1208.9383209999996,,,,,,,,,,,,,,,,,,,,,,,,,,,,,,,,,,,,,,,,,,,,,,,,,,,,,,,,,Ausbruch,2.7056,1208.9230701999995,1208.9235901000002,1208.9236970000002,1208.9383209999996,1211.6546411,1211.6394448,1211.6436425000002,1211.6546411,1211.6546411,1211.6546411,1211.6546411,1213.6547509000002,1213.6547509000002,1213.6547509000002,1213.6547509000002,1213.6395917,None,,,None,,,,,,,,,,,,,,,,,,,,,2264,1,2025-10-21_14h07.16.214,sm,2024.2.4,59.908041156967684,2025-10-21 14h07.33.777054 +0200,
43,0,43,,,,,,space,1.7754234000003635,None,None,3,1.2819180999995297,0.21385140000074898,None,0,0,0,0,,,,,1,0,1,0,,,,,43,0,43,0,1213.6547509000002,,,,,,,,,,,,,,,,,,,,,,,,,,,,,,,,,,,,,,,,,,,,,,,,,,,,,,,,,Scheidung,3.1437,1213.6400635,1213.6408350000002,1213.6409434999996,1213.6547509000002,1216.8042611,1216.7888145999996,1216.7932357999998,1216.8042611,1216.8042611,1216.8042611,1216.8042611,1218.8044866999999,1218.8044866999999,1218.8044866999999,1218.8044866999999,1218.7886680000001,3,1.2819180999995297,0.21385140000074898,None,,,,,,,,,,,,,,,,,,,,,2264,1,2025-10-21_14h07.16.214,sm,2024.2.4,59.908041156967684,2025-10-21 14h07.33.777054 +0200,
44,0,44,,,,,,space,1.7754234000003635,None,None,3,0.8902140000000145,0.2433405000001585,None,0,0,0,0,,,,,1,0,1,0,,,,,44,0,44,0,1218.8044866999999,,,,,,,,,,,,,,,,,,,,,,,,,,,,,,,,,,,,,,,,,,,,,,,,,,,,,,,,,Bücher,3.5452,1218.7891767,1218.7896812,1218.7897918999997,1218.8044866999999,1222.3538025999997,1222.3383654,1222.3425369999995,1222.3538025999997,1222.3538025999997,1222.3538025999997,1222.3538025999997,1224.3540838999998,1224.3540838999998,1224.3540838999998,1224.3540838999998,1224.3381736000001,3,0.8902140000000145,0.2433405000001585,None,,,,,,,,,,,,,,,,,,,,,2264,1,2025-10-21_14h07.16.214,sm,2024.2.4,59.908041156967684,2025-10-21 14h07.33.777054 +0200,
45,0,45,,,,,,space,1.7754234000003635,None,None,3,0.6414488000000347,0.2379916999998386,None,0,0,0,0,,,,,1,0,1,0,,,,,45,0,45,0,1224.3540838999998,,,,,,,,,,,,,,,,,,,,,,,,,,,,,,,,,,,,,,,,,,,,,,,,,,,,,,,,,Raum,3.4871,1224.3386221,1224.3390975000002,1224.3391892,1224.3540838999998,1227.8538954999995,1227.8385741000002,1227.8422093999998,1227.8538954999995,1227.8538954999995,1227.8538954999995,1227.8538954999995,1229.8540329999996,1229.8540329999996,1229.8540329999996,1229.8540329999996,1229.8382267999996,3,0.6414488000000347,0.2379916999998386,None,,,,,,,,,,,,,,,,,,,,,2264,1,2025-10-21_14h07.16.214,sm,2024.2.4,59.908041156967684,2025-10-21 14h07.33.777054 +0200,
46,0,46,,,,,,space,1.7754234000003635,None,None,3,0.5969063000002279,0.20493729999998322,None,0,0,0,0,,,,,1,0,1,0,,,,,46,0,46,0,1229.8540329999996,,,,,,,,,,,,,,,,,,,,,,,,,,,,,,,,,,,,,,,,,,,,,,,,,,,,,,,,,Geschäft,5.3544,1229.8387328,1229.8392482,1229.839352,1229.8540329999996,1235.2202926999998,1235.2043513999997,1235.2084182999997,1235.2202926999998,1235.2202926999998,1235.2202926999998,1235.2202926999998,1237.2201586,1237.2201586,1237.2201586,1237.2201586,1237.2042572,3,0.5969063000002279,0.20493729999998322,None,,,,,,,,,,,,,,,,,,,,,2264,1,2025-10-21_14h07.16.214,sm,2024.2.4,59.908041156967684,2025-10-21 14h07.33.777054 +0200,
47,0,47,,,,,,space,1.7754234000003635,None,None,3,0.7568993000004411,0.20083389999945211,None,0,0,0,0,,,,,1,0,1,0,,,,,47,0,47,0,1237.2201586,,,,,,,,,,,,,,,,,,,,,,,,,,,,,,,,,,,,,,,,,,,,,,,,,,,,,,,,,Karton,3.8984,1237.2047628999999,1237.2054017,1237.2055123999999,1237.2201586,1241.1197584000001,1241.1038959999996,1241.1074717000001,1241.1197584000001,1241.1197584000001,1241.1197584000001,1241.1197584000001,1243.1196614,1243.1196614,1243.1196614,1243.1196614,1243.1040728999997,3,0.7568993000004411,0.20083389999945211,None,,,,,,,,,,,,,,,,,,,,,2264,1,2025-10-21_14h07.16.214,sm,2024.2.4,59.908041156967684,2025-10-21 14h07.33.777054 +0200,
48,0,48,,,,,,space,1.7754234000003635,None,None,3,0.807235799999944,0.2178518000000622,None,0,0,0,0,,,,,1,0,1,0,,,,,48,0,48,0,1243.1196614,,,,,,,,,,,,,,,,,,,,,,,,,,,,,,,,,,,,,,,,,,,,,,,,,,,,,,,,,Sendung,2.4615,1243.1045773999995,1243.1053188999995,1243.1054204000002,1243.1196614,1245.586448,1245.5706021999995,1245.5745938999999,1245.586448,1245.586448,1245.586448,1245.586448,1247.5859007,1247.5859007,1247.5859007,1247.5859007,1247.5705011,3,0.807235799999944,0.2178518000000622,None,,,,,,,,,,,,,,,,,,,,,2264,1,2025-10-21_14h07.16.214,sm,2024.2.4,59.908041156967684,2025-10-21 14h07.33.777054 +0200,
49,0,49,,,,,,space,1.7754234000003635,None,None,3,1.5546858000006978,0.1855316999999559,None,0,0,0,0,,,,,1,0,1,0,,,,,49,0,49,0,1247.5859007,,,,,,,,,,,,,,,,,,,,,,,,,,,,,,,,,,,,,,,,,,,,,,,,,,,,,,,,,Zeichnung,2.0917,1247.5710017000001,1247.5716395,1247.5717429999995,1247.5859007,1249.6859064999999,1249.6703102000001,1249.6746987999995,1249.6859064999999,1249.6859064999999,1249.6859064999999,1249.6859064999999,1251.6858505,1251.6858505,1251.6858505,1251.6858505,1251.6702925,3,1.5546858000006978,0.1855316999999559,None,,,,,,,,,,,,,,,,,,,,,2264,1,2025-10-21_14h07.16.214,sm,2024.2.4,59.908041156967684,2025-10-21 14h07.33.777054 +0200,
50,0,50,,,,,,space,1.7754234000003635,None,None,2,1.7796816999998555,None,None,0,0,0,0,,,,,1,0,1,0,,,,,50,0,50,0,1251.6858505,,,,,,,,,,,,,,,,,,,,,,,,,,,,,,,,,,,,,,,,,,,,,,,,,,,,,,,,,Kopf,2.7199,1251.6708020999995,1251.6713456999996,1251.6714479000002,1251.6858505,1254.4188492000003,1254.4033711000002,1254.4069995,1254.4188492000003,1254.4188492000003,1254.4188492000003,1254.4188492000003,1256.4189436999995,1256.4189436999995,1256.4189436999995,1256.4189436999995,1256.4036938999998,2,1.7796816999998555,None,None,,,,,,,,,,,,,,,,,,,,,2264,1,2025-10-21_14h07.16.214,sm,2024.2.4,59.908041156967684,2025-10-21 14h07.33.777054 +0200,
51,0,51,,,,,,space,1.7754234000003635,None,None,2,0.7591669000003094,0.1952528000001621,None,0,0,0,0,,,,,1,0,1,0,,,,,51,0,51,0,1256.4189436999995,,,,,,,,,,,,,,,,,,,,,,,,,,,,,,,,,,,,,,,,,,,,,,,,,,,,,,,,,Akrobatin,2.1593,1256.4042057999995,1256.4047191999998,1256.404826,1256.4189436999995,1258.5858006999997,1258.5696910999995,1258.5748434999996,1258.5858006999997,1258.5858006999997,1258.5858006999997,1258.5858006999997,1260.5854625000002,1260.5854625000002,1260.5854625000002,1260.5854625000002,1260.5696583999998,2,0.7591669000003094,0.1952528000001621,None,,,,,,,,,,,,,,,,,,,,,2264,1,2025-10-21_14h07.16.214,sm,2024.2.4,59.908041156967684,2025-10-21 14h07.33.777054 +0200,
52,0,52,,,,,,space,1.7754234000003635,None,None,2,0.7654477999994924,0.16098000000056345,None,0,0,0,0,,,,,1,0,1,0,,,,,52,0,52,0,1260.5854625000002,,,,,,,,,,,,,,,,,,,,,,,,,,,,,,,,,,,,,,,,,,,,,,,,,,,,,,,,,Alligator,4.4157,1260.5701638,1260.5706529999998,1260.5707559000002,1260.5854625000002,1265.0018179999997,1264.9864679000002,1264.9907409999996,1265.0018179999997,1265.0018179999997,1265.0018179999997,1265.0018179999997,1267.0017468999995,1267.0017468999995,1267.0017468999995,1267.0017468999995,1266.9859981,2,0.7654477999994924,0.16098000000056345,None,,,,,,,,,,,,,,,,,,,,,2264,1,2025-10-21_14h07.16.214,sm,2024.2.4,59.908041156967684,2025-10-21 14h07.33.777054 +0200,
53,0,53,,,,,,space,1.7754234000003635,None,None,3,0.8304931000002398,0.38012960000014573,None,0,0,0,0,,,,,1,0,1,0,,,,,53,0,53,0,1267.0017468999995,,,,,,,,,,,,,,,,,,,,,,,,,,,,,,,,,,,,,,,,,,,,,,,,,,,,,,,,,Zucker,3.9324,1266.9865086999998,1266.9870681000002,1266.9871814999997,1267.0017468999995,1270.9347263,1270.9190594000002,1270.9230853999998,1270.9347263,1270.9347263,1270.9347263,1270.9347263,1272.9347320999996,1272.9347320999996,1272.9347320999996,1272.9347320999996,1272.9192221000003,3,0.8304931000002398,0.38012960000014573,None,,,,,,,,,,,,,,,,,,,,,2264,1,2025-10-21_14h07.16.214,sm,2024.2.4,59.908041156967684,2025-10-21 14h07.33.777054 +0200,
54,0,54,,,,,,space,1.7754234000003635,None,None,3,0.8543902000001253,0.25053769999976794,None,0,0,0,0,,,,,1,0,1,0,,,,,54,0,54,0,1272.9347320999996,,,,,,,,,,,,,,,,,,,,,,,,,,,,,,,,,,,,,,,,,,,,,,,,,,,,,,,,,Chips,3.7866,1272.9197272000001,1272.9202255,1272.9203271999995,1272.9347320999996,1276.7343286999994,1276.7186298999995,1276.7221909,1276.7343286999994,1276.7343286999994,1276.7343286999994,1276.7343286999994,1278.7345404999996,1278.7345404999996,1278.7345404999996,1278.7345404999996,1278.7188051000003,3,0.8543902000001253,0.25053769999976794,None,,,,,,,,,,,,,,,,,,,,,2264,1,2025-10-21_14h07.16.214,sm,2024.2.4,59.908041156967684,2025-10-21 14h07.33.777054 +0200,
55,0,55,,,,,,space,1.7754234000003635,None,None,2,1.7304948999999397,0.1881280000006882,None,0,0,0,0,,,,,1,0,1,0,,,,,55,0,55,0,1278.7345404999996,,,,,,,,,,,,,,,,,,,,,,,,,,,,,,,,,,,,,,,,,,,,,,,,,,,,,,,,,Handwerker,3.8219,1278.7193181000002,1278.7198163000003,1278.7199203,1278.7345404999996,1282.5673650999997,1282.5514876999996,1282.5554273999996,1282.5673650999997,1282.5673650999997,1282.5673650999997,1282.5673650999997,1284.5673541999995,1284.5673541999995,1284.5673541999995,1284.5673541999995,1284.5519201999996,2,1.7304948999999397,0.1881280000006882,None,,,,,,,,,,,,,,,,,,,,,2264,1,2025-10-21_14h07.16.214,sm,2024.2.4,59.908041156967684,2025-10-21 14h07.33.777054 +0200,
56,0,56,,,,,,space,1.7754234000003635,None,None,2,0.6947518000006312,0.2039268999997148,None,0,0,0,0,,,,,1,0,1,0,,,,,56,0,56,0,1284.5673541999995,,,,,,,,,,,,,,,,,,,,,,,,,,,,,,,,,,,,,,,,,,,,,,,,,,,,,,,,,Pizza,2.1584,1284.5524411999995,1284.5529471999998,1284.5530503,1284.5673541999995,1286.7337857000002,1286.7182051,1286.7222136999999,1286.7337857000002,1286.7337857000002,1286.7337857000002,1286.7337857000002,1288.7338682999998,1288.7338682999998,1288.7338682999998,1288.7338682999998,1288.7180394999996,2,0.6947518000006312,0.2039268999997148,None,,,,,,,,,,,,,,,,,,,,,2264,1,2025-10-21_14h07.16.214,sm,2024.2.4,59.908041156967684,2025-10-21 14h07.33.777054 +0200,
57,0,57,,,,,,space,1.7754234000003635,None,None,3,1.4455931000002238,None,None,0,0,0,0,,,,,1,0,1,0,,,,,57,0,57,0,1288.7338682999998,,,,,,,,,,,,,,,,,,,,,,,,,,,,,,,,,,,,,,,,,,,,,,,,,,,,,,,,,Vers,2.2057,1288.7185443999997,1288.7191909000003,1288.7192927999995,1288.7338682999998,1290.9500393999997,1290.9345357000002,1290.9386755999994,1290.9500393999997,1290.9500393999997,1290.9500393999997,1290.9500393999997,1292.9500951,1292.9500951,1292.9500951,1292.9500951,1292.9344409999994,3,1.4455931000002238,None,None,,,,,,,,,,,,,,,,,,,,,2264,1,2025-10-21_14h07.16.214,sm,2024.2.4,59.908041156967684,2025-10-21 14h07.33.777054 +0200,
58,0,58,,,,,,space,1.7754234000003635,None,None,3,1.3761176000007254,0.17470609999963926,None,0,0,0,0,,,,,1,0,1,0,,,,,58,0,58,0,1292.9500951,,,,,,,,,,,,,,,,,,,,,,,,,,,,,,,,,,,,,,,,,,,,,,,,,,,,,,,,,Schnee,2.5717,1292.9349462999999,1292.9354895999995,1292.9355901,1292.9500951,1295.5335027,1295.5179374999998,1295.5221315999997,1295.5335027,1295.5335027,1295.5335027,1295.5335027,1297.5333314999998,1297.5333314999998,1297.5333314999998,1297.5333314999998,1297.5175884999999,3,1.3761176000007254,0.17470609999963926,None,,,,,,,,,,,,,,,,,,,,,2264,1,2025-10-21_14h07.16.214,sm,2024.2.4,59.908041156967684,2025-10-21 14h07.33.777054 +0200,
59,0,59,,,,,,space,1.7754234000003635,None,None,3,0.7350192999992942,0.23672760000044946,None,0,0,0,0,,,,,1,0,1,0,,,,,59,0,59,0,1297.5333314999998,,,,,,,,,,,,,,,,,,,,,,,,,,,,,,,,,,,,,,,,,,,,,,,,,,,,,,,,,Kaffee,3.5093,1297.5180868999996,1297.5186209000003,1297.5187225999998,1297.5333314999998,1301.0497764000002,1301.0338844999997,1301.0376512000003,1301.0497764000002,1301.0497764000002,1301.0497764000002,1301.0497764000002,1303.0495323999994,1303.0495323999994,1303.0495323999994,1303.0495323999994,1303.0345809,3,0.7350192999992942,0.23672760000044946,None,,,,,,,,,,,,,,,,,,,,,2264,1,2025-10-21_14h07.16.214,sm,2024.2.4,59.908041156967684,2025-10-21 14h07.33.777054 +0200,
60,0,60,,,,,,space,1.7754234000003635,None,None,2,1.6826623999995718,0.1448899999995774,None,0,0,0,0,,,,,1,0,1,0,,,,,60,0,60,0,1303.0495323999994,,,,,,,,,,,,,,,,,,,,,,,,,,,,,,,,,,,,,,,,,,,,,,,,,,,,,,,,,Rebe,3.1534,1303.0350892999995,1303.0356058999996,1303.0357198000002,1303.0495323999994,1306.2162419999995,1306.2003253000003,1306.2033315999997,1306.2162419999995,1306.2162419999995,1306.2162419999995,1306.2162419999995,1308.2159203,1308.2159203,1308.2159203,1308.2159203,1308.200202,2,1.6826623999995718,0.1448899999995774,None,,,,,,,,,,,,,,,,,,,,,2264,1,2025-10-21_14h07.16.214,sm,2024.2.4,59.908041156967684,2025-10-21 14h07.33.777054 +0200,
61,0,61,,,,,,space,1.7754234000003635,None,None,2,0.8692742999992333,0.15665160000025935,None,0,0,0,0,,,,,1,0,1,0,,,,,61,0,61,0,1308.2159203,,,,,,,,,,,,,,,,,,,,,,,,,,,,,,,,,,,,,,,,,,,,,,,,,,,,,,,,,Spinne,2.8269,1308.2007158999995,1308.2012101999999,1308.2013126000002,1308.2159203,1311.0493039000003,1311.0335225,1311.0375857,1311.0493039000003,1311.0493039000003,1311.0493039000003,1311.0493039000003,1313.0489435999998,1313.0489435999998,1313.0489435999998,1313.0489435999998,1313.0336127,2,0.8692742999992333,0.15665160000025935,None,,,,,,,,,,,,,,,,,,,,,2264,1,2025-10-21_14h07.16.214,sm,2024.2.4,59.908041156967684,2025-10-21 14h07.33.777054 +0200,
62,0,62,,,,,,space,1.7754234000003635,None,None,3,0.858957399999781,0.23633840000002238,None,0,0,0,0,,,,,1,0,1,0,,,,,62,0,62,0,1313.0489435999998,,,,,,,,,,,,,,,,,,,,,,,,,,,,,,,,,,,,,,,,,,,,,,,,,,,,,,,,,Trocken,5.5956,1313.0341179999996,1313.0346176000003,1313.0347192999998,1313.0489435999998,1318.6484242999995,1318.6327267999995,1318.6361915999996,1318.6484242999995,1318.6484242999995,1318.6484242999995,1318.6484242999995,1320.6485641999998,1320.6485641999998,1320.6485641999998,1320.6485641999998,1320.6332416999994,3,0.858957399999781,0.23633840000002238,None,,,,,,,,,,,,,,,,,,,,,2264,1,2025-10-21_14h07.16.214,sm,2024.2.4,59.908041156967684,2025-10-21 14h07.33.777054 +0200,
63,0,63,,,,,,space,1.7754234000003635,None,None,3,1.0098643999999695,0.19615369999974064,None,0,0,0,0,,,,,1,0,1,0,,,,,63,0,63,0,1320.6485641999998,,,,,,,,,,,,,,,,,,,,,,,,,,,,,,,,,,,,,,,,,,,,,,,,,,,,,,,,,Feld,2.8541,1320.6337574,1320.6342520999997,1320.6343531000002,1320.6485641999998,1323.5150310999998,1323.4992917999998,1323.5023234999999,1323.5150310999998,1323.5150310999998,1323.5150310999998,1323.5150310999998,1325.5148668000002,1325.5148668000002,1325.5148668000002,1325.5148668000002,1325.4993478999995,3,1.0098643999999695,0.19615369999974064,None,,,,,,,,,,,,,,,,,,,,,2264,1,2025-10-21_14h07.16.214,sm,2024.2.4,59.908041156967684,2025-10-21 14h07.33.777054 +0200,
64,0,64,,,,,,space,1.7754234000003635,None,None,None,,,None,0,0,0,0,,,,,1,0,1,0,,,,,64,0,64,0,1325.5148668000002,,,,,,,,,,,,,,,,,,,,,,,,,,,,,,,,,,,,,,,,,,,,,,,,,,,,,,,,,Schläger,2.32,1325.4998461999994,1325.5004812999996,1325.500583,1325.5148668000002,1327.8482310999998,1327.8326956,1327.8376867999996,1327.8482310999998,1327.8482310999998,1327.8482310999998,1327.8482310999998,1329.8482262999996,1329.8482262999996,1329.8482262999996,1329.8482262999996,1329.8324936999998,None,,,None,,,,,,,,,,,,,,,,,,,,,2264,1,2025-10-21_14h07.16.214,sm,2024.2.4,59.908041156967684,2025-10-21 14h07.33.777054 +0200,
65,0,65,,,,,,space,1.7754234000003635,None,None,3,1.0361173000001145,0.273716499999864,None,0,0,0,0,,,,,1,0,1,0,,,,,65,0,65,0,1329.8482262999996,,,,,,,,,,,,,,,,,,,,,,,,,,,,,,,,,,,,,,,,,,,,,,,,,,,,,,,,,Wind,2.1064,1329.8329673999997,1329.8334589999995,1329.8335651999996,1329.8482262999996,1331.9645304999995,1331.9488120999995,1331.9520672999997,1331.9645304999995,1331.9645304999995,1331.9645304999995,1331.9645304999995,1333.9645197999998,1333.9645197999998,1333.9645197999998,1333.9645197999998,1333.9490759999999,3,1.0361173000001145,0.273716499999864,None,,,,,,,,,,,,,,,,,,,,,2264,1,2025-10-21_14h07.16.214,sm,2024.2.4,59.908041156967684,2025-10-21 14h07.33.777054 +0200,
