thisN,thisTrialN,thisRepN,Cue,Target,Mediator1,Mediator2,iti,scanner_ready_press.keys,scanner_ready_press.rt,scanner_ready_press.duration,skip_trigger.keys,living_nonliving.keys,living_nonliving.rt,living_nonliving.duration,end_mapping.keys,blocks.thisRepN,blocks.thisTrialN,blocks.thisN,blocks.thisIndex,load_and_shuffle.thisRepN,load_and_shuffle.thisTrialN,load_and_shuffle.thisN,load_and_shuffle.thisIndex,runs.thisRepN,runs.thisTrialN,runs.thisN,runs.thisIndex,iti_loading_loop.thisRepN,iti_loading_loop.thisTrialN,iti_loading_loop.thisN,iti_loading_loop.thisIndex,semantic_mapping_run.thisRepN,semantic_mapping_run.thisTrialN,semantic_mapping_run.thisN,semantic_mapping_run.thisIndex,thisRow.t,notes,welcome.started,welcome_text.started,key_resp__welcome.started,welcome.stopped,key_resp__welcome.keys,key_resp__welcome.rt,key_resp__welcome.duration,scout.started,scout_text.started,key_resp.started,scout.stopped,key_resp.keys,key_resp.rt,key_resp.duration,instructions_semantic_mapping1.started,sm_instructions1_text.started,sm_instructions1_key.started,instructions_semantic_mapping1.stopped,sm_instructions1_key.keys,sm_instructions1_key.rt,sm_instructions1_key.duration,instructions_semantic_mapping2.started,sm_instructions2_text.started,sm_instructions2_key.started,instructions_semantic_mapping2.stopped,sm_instructions2_key.keys,sm_instructions2_key.rt,sm_instructions2_key.duration,reset_run.started,reset_run.stopped,shuffle_items.started,shuffle_items.stopped,set_up_runs.started,set_up_runs.stopped,load_iti.started,load_iti.stopped,prep_scanner.started,scanner_ready_press.started,ready_set_text.started,prep_scanner.stopped,runs.scanner_ready_press.keys,runs.scanner_ready_press.rt,runs.scanner_ready_press.duration,wait_for_trigger.started,starting_soon.started,skip_trigger.started,wait_for_trigger.stopped,runs.skip_trigger.keys,blank.started,begin_end_run_cross.started,sound_1.started,sound_1.stopped,sound_2.started,sound_2.stopped,begin_end_run_cross.stopped,blank.stopped,CurrentItem,CurrentITI,set_up_trial.started,set_up_trial.stopped,sm_iti.started,iti_cross.started,iti_cross.stopped,sm_iti.stopped,item.started,living_nonliving.started,end_mapping.started,living_nonliving_text.started,semantic_map_item.started,item.stopped,semantic_mapping_run.living_nonliving.keys,semantic_mapping_run.living_nonliving.rt,semantic_mapping_run.living_nonliving.duration,semantic_mapping_run.end_mapping.keys,living_nonliving.stopped,end_mapping.stopped,living_nonliving_text.stopped,semantic_map_item.stopped,fieldmap.started,fieldmap.stopped,runs.fm_key.keys,task_break.started,feeback_text.started,task_break_text.started,task_break_resp.started,feeback_text.stopped,task_break.stopped,runs.task_break_resp.keys,runs.task_break_resp.rt,runs.task_break_resp.duration,fm_text.started,fm_key.started,runs.fm_key.rt,runs.fm_key.duration,thanks.started,thanks_text.started,thanks_text.stopped,thanks.stopped,PID,MRI,date,expName,psychopyVersion,frameRate,expStart,
,,,,,,,,,,,,,,,,,,,,,,,,,,,,,,,,,,,,,,0.003741200000149547,0.019893500000762288,0.019893500000762288,15.160513700000593,space,15.124896799999988,None,,,,,,,,,,,,,,,,,,,,,,,,,,,,,,,,,,,,,,,,,,,,,,,,,,,,,,,,,,,,,,,,,,,,,,,,,,,,,,,,,,,,,,,,,,,,5900,1,2025-09-18_16h39.54.272,sm,2024.2.4,60.038496684088585,2025-09-18 16h40.37.984109 +0200,
,,,,,,,,,,,,,,,,,,,,,,,,,,,,,,,,,,,,,,,,,,,,,15.160621600000013,15.168865100000403,15.168865100000403,99.56673310000042,space,84.3923651999994,None,,,,,,,,,,,,,,,,,,,,,,,,,,,,,,,,,,,,,,,,,,,,,,,,,,,,,,,,,,,,,,,,,,,,,,,,,,,,,,,,,,,,,5900,1,2025-09-18_16h39.54.272,sm,2024.2.4,60.038496684088585,2025-09-18 16h40.37.984109 +0200,
,,,,,,,,,,,,,,,,,,,,,,,,,,,,,,,,,,,,,,,,,,,,,,,,,,,,99.56686710000031,99.5810945000012,99.5810945000012,116.44669550000071,3,16.854924799999935,None,,,,,,,,,,,,,,,,,,,,,,,,,,,,,,,,,,,,,,,,,,,,,,,,,,,,,,,,,,,,,,,,,,,,,,,,,,,,,,5900,1,2025-09-18_16h39.54.272,sm,2024.2.4,60.038496684088585,2025-09-18 16h40.37.984109 +0200,
,,,,,,,,,,,,,,,,,,,,,,,,,,,,,,,,,,,,,,,,,,,,,,,,,,,,,,,,,,,116.44688120000137,116.46174539999993,116.46174539999993,148.47813730000053,3,32.007825599999705,None,,,,,,,,,,,,,,,,,,,,,,,,,,,,,,,,,,,,,,,,,,,,,,,,,,,,,,,,,,,,,,,,,,,,,,,5900,1,2025-09-18_16h39.54.272,sm,2024.2.4,60.038496684088585,2025-09-18 16h40.37.984109 +0200,
0,0,0,Rasen,Pflege,Mäher,Gras,2.928,space,2.7430131000000983,None,None,3,1.3523669000005611,0.2793898999989324,None,0,0,0,0,0,79,79,77,0,0,0,0,0,79,79,3,0,0,0,0,209.89092320000054,,,,,,,,,,,,,,,,,,,,,,,,,,,,,,148.47900670000126,148.4797161000006,148.54817600000024,148.5484352000003,148.5529778,148.5532512000009,148.58279940000102,148.5829837000001,148.58962480000082,148.59413649999988,148.59413649999988,151.34634460000052,space,2.7430131000000983,None,151.34649650000028,151.36131039999964,151.36131039999964,197.87474440000005,None,197.88309409999965,197.891673600001,197.89020906666727,199.0979552000008,207.87466666666685,208.87685260000035,209.89092320000054,209.87548349999997,Afrika,2.928,209.87686500000018,209.87765440000112,209.88063440000042,209.89092320000054,212.84116580000045,212.80860440000106,212.8131073000004,212.84116580000045,212.84116580000045,212.84116580000045,212.84116580000045,214.8243309999998,3,1.3523669000005611,0.2793898999989324,None,,,,,,,,,,,,,,,,,,,,,,,,,5900,1,2025-09-18_16h39.54.272,sm,2024.2.4,60.038496684088585,2025-09-18 16h40.37.984109 +0200,
1,0,1,,,,,,space,2.7430131000000983,None,None,None,,,None,0,0,0,0,,,,,0,0,0,0,,,,,1,0,1,0,214.84080940000058,,,,,,,,,,,,,,,,,,,,,,,,,,,,,,,,,,,,,,,,,,,,,,,,,,,,,,,,,,Trauben,5.5187,214.82479240000066,214.825517700001,214.82561370000076,214.84080940000058,220.37380420000045,220.35835770000085,220.36263490000056,220.37380420000045,220.37380420000045,220.37380420000045,220.37380420000045,222.35829060000106,None,,,None,222.37379859999965,222.37379859999965,222.37379859999965,222.37379859999965,,,,,,,,,,,,,,,,,,,,,5900,1,2025-09-18_16h39.54.272,sm,2024.2.4,60.038496684088585,2025-09-18 16h40.37.984109 +0200,
2,0,2,,,,,,space,2.7430131000000983,None,None,None,,,None,0,0,0,0,,,,,0,0,0,0,,,,,2,0,2,0,222.37379859999965,,,,,,,,,,,,,,,,,,,,,,,,,,,,,,,,,,,,,,,,,,,,,,,,,,,,,,,,,,Ziege,5.9447,222.35876740000094,222.35928419999982,222.35939040000085,222.37379859999965,228.3232294999998,228.30761780000103,228.31359510000038,228.3232294999998,228.3232294999998,228.3232294999998,228.3232294999998,230.30832790000022,None,,,None,230.32352569999966,230.32352569999966,230.32352569999966,230.32352569999966,,,,,,,,,,,,,,,,,,,,,5900,1,2025-09-18_16h39.54.272,sm,2024.2.4,60.038496684088585,2025-09-18 16h40.37.984109 +0200,
3,0,3,,,,,,space,2.7430131000000983,None,None,3,0.8435993000002782,0.26386969999839494,None,0,0,0,0,,,,,0,0,0,0,,,,,3,0,3,0,230.32352569999966,,,,,,,,,,,,,,,,,,,,,,,,,,,,,,,,,,,,,,,,,,,,,,,,,,,,,,,,,,Kunst,3.488,230.30881000000045,230.30945299999985,230.30955950000134,230.32352569999966,233.82314709999991,233.80748640000093,233.81365949999963,233.82314709999991,233.82314709999991,233.82314709999991,233.82314709999991,235.80740739999965,3,0.8435993000002782,0.26386969999839494,None,235.8231083999999,235.8231083999999,235.8231083999999,235.8231083999999,,,,,,,,,,,,,,,,,,,,,5900,1,2025-09-18_16h39.54.272,sm,2024.2.4,60.038496684088585,2025-09-18 16h40.37.984109 +0200,
4,0,4,,,,,,space,2.7430131000000983,None,None,3,1.065029699999286,0.2223561000009795,None,0,0,0,0,,,,,0,0,0,0,,,,,4,0,4,0,235.8231083999999,,,,,,,,,,,,,,,,,,,,,,,,,,,,,,,,,,,,,,,,,,,,,,,,,,,,,,,,,,Geschmack,5.5483,235.80791800000043,235.8084357000007,235.80854340000042,235.8231083999999,241.3733095000007,241.3572103000006,241.36176630000045,241.3733095000007,241.3733095000007,241.3733095000007,241.3733095000007,243.35705290000078,3,1.065029699999286,0.2223561000009795,None,243.37261190000027,243.37261190000027,243.37261190000027,243.37261190000027,,,,,,,,,,,,,,,,,,,,,5900,1,2025-09-18_16h39.54.272,sm,2024.2.4,60.038496684088585,2025-09-18 16h40.37.984109 +0200,
5,0,5,,,,,,space,2.7430131000000983,None,None,3,1.2730467000001227,0.2513392999990174,None,0,0,0,0,,,,,0,0,0,0,,,,,5,0,5,0,243.37261190000027,,,,,,,,,,,,,,,,,,,,,,,,,,,,,,,,,,,,,,,,,,,,,,,,,,,,,,,,,,Vulkan,2.1899,243.3575649000013,243.35807580000073,243.3581806000002,243.37261190000027,245.57218490000014,245.55692830000044,245.56057320000036,245.57218490000014,245.57218490000014,245.57218490000014,245.57218490000014,247.55679190000046,3,1.2730467000001227,0.2513392999990174,None,247.57235680000122,247.57235680000122,247.57235680000122,247.57235680000122,,,,,,,,,,,,,,,,,,,,,5900,1,2025-09-18_16h39.54.272,sm,2024.2.4,60.038496684088585,2025-09-18 16h40.37.984109 +0200,
6,0,6,,,,,,space,2.7430131000000983,None,None,3,0.9030968999995821,0.21933200000057695,None,0,0,0,0,,,,,0,0,0,0,,,,,6,0,6,0,247.57235680000122,,,,,,,,,,,,,,,,,,,,,,,,,,,,,,,,,,,,,,,,,,,,,,,,,,,,,,,,,,Küche,2.9377,247.55730120000044,247.55791520000093,247.55802539999968,247.57235680000122,250.5220115000011,250.50632860000042,250.50947710000037,250.5220115000011,250.5220115000011,250.5220115000011,250.5220115000011,252.50644629999988,3,0.9030968999995821,0.21933200000057695,None,252.52202240000042,252.52202240000042,252.52202240000042,252.52202240000042,,,,,,,,,,,,,,,,,,,,,5900,1,2025-09-18_16h39.54.272,sm,2024.2.4,60.038496684088585,2025-09-18 16h40.37.984109 +0200,
7,0,7,,,,,,space,2.7430131000000983,None,None,3,0.9003503999992972,0.21611599999960163,None,0,0,0,0,,,,,0,0,0,0,,,,,7,0,7,0,252.52202240000042,,,,,,,,,,,,,,,,,,,,,,,,,,,,,,,,,,,,,,,,,,,,,,,,,,,,,,,,,,Vers,3.027,252.50696080000125,252.5074753000008,252.5075809000009,252.52202240000042,255.5552821000001,255.53959100000066,255.54356019999977,255.5552821000001,255.5552821000001,255.5552821000001,255.5552821000001,257.5397066000005,3,0.9003503999992972,0.21611599999960163,None,257.55513900000005,257.55513900000005,257.55513900000005,257.55513900000005,,,,,,,,,,,,,,,,,,,,,5900,1,2025-09-18_16h39.54.272,sm,2024.2.4,60.038496684088585,2025-09-18 16h40.37.984109 +0200,
8,0,8,,,,,,space,2.7430131000000983,None,None,3,1.0151066000016726,0.20024649999868416,None,0,0,0,0,,,,,0,0,0,0,,,,,8,0,8,0,257.55513900000005,,,,,,,,,,,,,,,,,,,,,,,,,,,,,,,,,,,,,,,,,,,,,,,,,,,,,,,,,,Popcorn,2.8652,257.5402210000011,257.54073470000003,257.5408408000003,257.55513900000005,260.42124140000124,260.40600749999976,260.4133827000005,260.42124140000124,260.42124140000124,260.42124140000124,260.42124140000124,262.4056074,3,1.0151066000016726,0.20024649999868416,None,262.4215851000008,262.4215851000008,262.4215851000008,262.4215851000008,,,,,,,,,,,,,,,,,,,,,5900,1,2025-09-18_16h39.54.272,sm,2024.2.4,60.038496684088585,2025-09-18 16h40.37.984109 +0200,
9,0,9,,,,,,space,2.7430131000000983,None,None,3,0.9258979999995063,0.2244159000001673,None,0,0,0,0,,,,,0,0,0,0,,,,,9,0,9,0,262.4215851000008,,,,,,,,,,,,,,,,,,,,,,,,,,,,,,,,,,,,,,,,,,,,,,,,,,,,,,,,,,Statue,3.2772,262.4060578999997,262.4065473999999,262.4066393000012,262.4215851000008,265.7045443999996,265.6890457999998,265.6931662999996,265.7045443999996,265.7045443999996,265.7045443999996,265.7045443999996,267.6888772000002,3,0.9258979999995063,0.2244159000001673,None,267.70457739999983,267.70457739999983,267.70457739999983,267.70457739999983,,,,,,,,,,,,,,,,,,,,,5900,1,2025-09-18_16h39.54.272,sm,2024.2.4,60.038496684088585,2025-09-18 16h40.37.984109 +0200,
10,0,10,,,,,,space,2.7430131000000983,None,None,3,1.3149981999995362,0.250150300000314,None,0,0,0,0,,,,,0,0,0,0,,,,,10,0,10,0,267.70457739999983,,,,,,,,,,,,,,,,,,,,,,,,,,,,,,,,,,,,,,,,,,,,,,,,,,,,,,,,,,Zucker,2.1785,267.6893517999997,267.69009970000116,267.6902002000006,267.70457739999983,269.8876971000009,269.87208029999965,269.87632140000096,269.8876971000009,269.8876971000009,269.8876971000009,269.8876971000009,271.87234530000023,3,1.3149981999995362,0.250150300000314,None,271.88787349999984,271.88787349999984,271.88787349999984,271.88787349999984,,,,,,,,,,,,,,,,,,,,,5900,1,2025-09-18_16h39.54.272,sm,2024.2.4,60.038496684088585,2025-09-18 16h40.37.984109 +0200,
11,0,11,,,,,,space,2.7430131000000983,None,None,3,1.5460665000009612,0.24774609999985842,None,0,0,0,0,,,,,0,0,0,0,,,,,11,0,11,0,271.88787349999984,,,,,,,,,,,,,,,,,,,,,,,,,,,,,,,,,,,,,,,,,,,,,,,,,,,,,,,,,,Essen,4.1805,271.8727675000009,271.87338120000095,271.8734725000013,271.88787349999984,276.07065090000106,276.05520100000103,276.05909630000133,276.07065090000106,276.07065090000106,276.07065090000106,276.07065090000106,278.0551852000008,3,1.5460665000009612,0.24774609999985842,None,278.0708102000008,278.0708102000008,278.0708102000008,278.0708102000008,,,,,,,,,,,,,,,,,,,,,5900,1,2025-09-18_16h39.54.272,sm,2024.2.4,60.038496684088585,2025-09-18 16h40.37.984109 +0200,
12,0,12,,,,,,space,2.7430131000000983,None,None,3,1.6122334000010596,0.23277729999972507,None,0,0,0,0,,,,,0,0,0,0,,,,,12,0,12,0,278.0708102000008,,,,,,,,,,,,,,,,,,,,,,,,,,,,,,,,,,,,,,,,,,,,,,,,,,,,,,,,,,Rock,2.0485,278.05569099999957,278.05628810000053,278.05639560000054,278.0708102000008,280.1203643000008,280.1047596999997,280.1081157999997,280.1203643000008,280.1203643000008,280.1203643000008,280.1203643000008,282.10478130000047,3,1.6122334000010596,0.23277729999972507,None,282.1207075000002,282.1207075000002,282.1207075000002,282.1207075000002,,,,,,,,,,,,,,,,,,,,,5900,1,2025-09-18_16h39.54.272,sm,2024.2.4,60.038496684088585,2025-09-18 16h40.37.984109 +0200,
13,0,13,,,,,,space,2.7430131000000983,None,None,3,1.2770077000004676,0.21041599999989558,None,0,0,0,0,,,,,0,0,0,0,,,,,13,0,13,0,282.1207075000002,,,,,,,,,,,,,,,,,,,,,,,,,,,,,,,,,,,,,,,,,,,,,,,,,,,,,,,,,,Ring,2.0075,282.1052923999996,282.1058095999997,282.1059151999998,282.1207075000002,284.1367740000005,284.1211980999997,284.12407189999976,284.1367740000005,284.1367740000005,284.1367740000005,284.1367740000005,286.1212680999997,3,1.2770077000004676,0.21041599999989558,None,286.1368257000013,286.1368257000013,286.1368257000013,286.1368257000013,,,,,,,,,,,,,,,,,,,,,5900,1,2025-09-18_16h39.54.272,sm,2024.2.4,60.038496684088585,2025-09-18 16h40.37.984109 +0200,
14,0,14,,,,,,space,2.7430131000000983,None,None,3,0.8798969999988913,0.23135910000019067,None,0,0,0,0,,,,,0,0,0,0,,,,,14,0,14,0,286.1368257000013,,,,,,,,,,,,,,,,,,,,,,,,,,,,,,,,,,,,,,,,,,,,,,,,,,,,,,,,,,Radio,3.2951,286.12176999999974,286.12234660000104,286.12245059999987,286.1368257000013,289.4371224000006,289.4212679000011,289.4247238000007,289.4371224000006,289.4371224000006,289.4371224000006,289.4371224000006,291.42099530000087,3,0.8798969999988913,0.23135910000019067,None,291.43642050000017,291.43642050000017,291.43642050000017,291.43642050000017,,,,,,,,,,,,,,,,,,,,,5900,1,2025-09-18_16h39.54.272,sm,2024.2.4,60.038496684088585,2025-09-18 16h40.37.984109 +0200,
15,0,15,,,,,,space,2.7430131000000983,None,None,3,1.1112090000005992,0.23729009999988193,None,0,0,0,0,,,,,0,0,0,0,,,,,15,0,15,0,291.43642050000017,,,,,,,,,,,,,,,,,,,,,,,,,,,,,,,,,,,,,,,,,,,,,,,,,,,,,,,,,,Schutz,2.3565,291.4215100000001,291.42202870000074,291.4221389000013,291.43642050000017,293.8030294,293.78727790000084,293.79196299999967,293.8030294,293.8030294,293.8030294,293.8030294,295.7873075999996,3,1.1112090000005992,0.23729009999988193,None,295.8028568999998,295.8028568999998,295.8028568999998,295.8028568999998,,,,,,,,,,,,,,,,,,,,,5900,1,2025-09-18_16h39.54.272,sm,2024.2.4,60.038496684088585,2025-09-18 16h40.37.984109 +0200,
16,0,16,,,,,,space,2.7430131000000983,None,None,None,,,None,0,0,0,0,,,,,0,0,0,0,,,,,16,0,16,0,295.8028568999998,,,,,,,,,,,,,,,,,,,,,,,,,,,,,,,,,,,,,,,,,,,,,,,,,,,,,,,,,,Erde,3.8189,295.7878130000008,295.78846499999963,295.7885686999998,295.8028568999998,299.63608530000056,299.620135000001,299.62385209999957,299.63608530000056,299.63608530000056,299.63608530000056,299.63608530000056,301.6200938000002,None,,,None,301.6358626000001,301.6358626000001,301.6358626000001,301.6358626000001,,,,,,,,,,,,,,,,,,,,,5900,1,2025-09-18_16h39.54.272,sm,2024.2.4,60.038496684088585,2025-09-18 16h40.37.984109 +0200,
17,0,17,,,,,,space,2.7430131000000983,None,None,None,,,None,0,0,0,0,,,,,0,0,0,0,,,,,17,0,17,0,301.6358626000001,,,,,,,,,,,,,,,,,,,,,,,,,,,,,,,,,,,,,,,,,,,,,,,,,,,,,,,,,,Tischler,4.0992,301.6205011000002,301.62106219999987,301.6211514000006,301.6358626000001,305.7357073000003,305.71990710000136,305.7234575000002,305.7357073000003,305.7357073000003,305.7357073000003,305.7357073000003,307.71994040000027,None,,,None,307.73581470000136,307.73581470000136,307.73581470000136,307.73581470000136,,,,,,,,,,,,,,,,,,,,,5900,1,2025-09-18_16h39.54.272,sm,2024.2.4,60.038496684088585,2025-09-18 16h40.37.984109 +0200,
18,0,18,,,,,,space,2.7430131000000983,None,None,None,,,None,0,0,0,0,,,,,0,0,0,0,,,,,18,0,18,0,307.73581470000136,,,,,,,,,,,,,,,,,,,,,,,,,,,,,,,,,,,,,,,,,,,,,,,,,,,,,,,,,,Kunde,3.575,307.72042580000016,307.72094350000043,307.7210524000002,307.73581470000136,311.31856309999966,311.3030894000003,311.30715320000127,311.31856309999966,311.31856309999966,311.31856309999966,311.31856309999966,313.3029970000007,None,,,None,313.31854230000135,313.31854230000135,313.31854230000135,313.31854230000135,,,,,,,,,,,,,,,,,,,,,5900,1,2025-09-18_16h39.54.272,sm,2024.2.4,60.038496684088585,2025-09-18 16h40.37.984109 +0200,
19,0,19,,,,,,space,2.7430131000000983,None,None,3,1.3807668000008562,0.24385289999918314,None,0,0,0,0,,,,,0,0,0,0,,,,,19,0,19,0,313.31854230000135,,,,,,,,,,,,,,,,,,,,,,,,,,,,,,,,,,,,,,,,,,,,,,,,,,,,,,,,,,Anruf,3.5845,313.3034712999997,313.30398330000025,313.30408760000137,313.31854230000135,316.91801470000064,316.90244150000035,316.9057352,316.91801470000064,316.91801470000064,316.91801470000064,316.91801470000064,318.9027103999997,3,1.3807668000008562,0.24385289999918314,None,318.9181857000003,318.9181857000003,318.9181857000003,318.9181857000003,,,,,,,,,,,,,,,,,,,,,5900,1,2025-09-18_16h39.54.272,sm,2024.2.4,60.038496684088585,2025-09-18 16h40.37.984109 +0200,
20,0,20,,,,,,space,2.7430131000000983,None,None,3,1.3313988000008976,0.19880149999880814,None,0,0,0,0,,,,,0,0,0,0,,,,,20,0,20,0,318.9181857000003,,,,,,,,,,,,,,,,,,,,,,,,,,,,,,,,,,,,,,,,,,,,,,,,,,,,,,,,,,Kälte,3.9565,318.9032227000007,318.90373530000033,318.90384059999997,318.9181857000003,322.88478920000125,322.86910760000137,322.8730410999997,322.88478920000125,322.88478920000125,322.88478920000125,322.88478920000125,324.86891509999987,3,1.3313988000008976,0.19880149999880814,None,324.88456659999974,324.88456659999974,324.88456659999974,324.88456659999974,,,,,,,,,,,,,,,,,,,,,5900,1,2025-09-18_16h39.54.272,sm,2024.2.4,60.038496684088585,2025-09-18 16h40.37.984109 +0200,
21,0,21,,,,,,space,2.7430131000000983,None,None,None,,,None,0,0,0,0,,,,,0,0,0,0,,,,,21,0,21,0,324.88456659999974,,,,,,,,,,,,,,,,,,,,,,,,,,,,,,,,,,,,,,,,,,,,,,,,,,,,,,,,,,Anhänger,2.4732,324.8694234000013,324.8699639000006,324.8700691000013,324.88456659999974,327.36734760000036,327.351736300001,327.3553998999996,327.36734760000036,327.36734760000036,327.36734760000036,327.36734760000036,329.3520559000008,None,,,None,329.3676047000008,329.3676047000008,329.3676047000008,329.3676047000008,,,,,,,,,,,,,,,,,,,,,5900,1,2025-09-18_16h39.54.272,sm,2024.2.4,60.038496684088585,2025-09-18 16h40.37.984109 +0200,
22,0,22,,,,,,space,2.7430131000000983,None,None,None,,,None,0,0,0,0,,,,,0,0,0,0,,,,,22,0,22,0,329.3676047000008,,,,,,,,,,,,,,,,,,,,,,,,,,,,,,,,,,,,,,,,,,,,,,,,,,,,,,,,,,Kopf,2.3398,329.35253510000075,329.35305320000043,329.35316000000057,329.3676047000008,331.7174105000013,331.7019725000009,331.70629440000084,331.7174105000013,331.7174105000013,331.7174105000013,331.7174105000013,333.70182170000044,None,,,None,333.71788449999985,333.71788449999985,333.71788449999985,333.71788449999985,,,,,,,,,,,,,,,,,,,,,5900,1,2025-09-18_16h39.54.272,sm,2024.2.4,60.038496684088585,2025-09-18 16h40.37.984109 +0200,
23,0,23,,,,,,space,2.7430131000000983,None,None,3,1.140775300000314,0.23148659999969823,None,0,0,0,0,,,,,0,0,0,0,,,,,23,0,23,0,333.71788449999985,,,,,,,,,,,,,,,,,,,,,,,,,,,,,,,,,,,,,,,,,,,,,,,,,,,,,,,,,,Angriff,2.2306,333.70230150000134,333.70281890000115,333.70292340000015,333.71788449999985,335.9509921000008,335.9348501000004,335.93910959999994,335.9509921000008,335.9509921000008,335.9509921000008,335.9509921000008,337.93496940000114,3,1.140775300000314,0.23148659999969823,None,337.950560700001,337.950560700001,337.950560700001,337.950560700001,,,,,,,,,,,,,,,,,,,,,5900,1,2025-09-18_16h39.54.272,sm,2024.2.4,60.038496684088585,2025-09-18 16h40.37.984109 +0200,
24,0,24,,,,,,space,2.7430131000000983,None,None,3,1.3035760999991908,0.23932629999944766,None,0,0,0,0,,,,,0,0,0,0,,,,,24,0,24,0,337.950560700001,,,,,,,,,,,,,,,,,,,,,,,,,,,,,,,,,,,,,,,,,,,,,,,,,,,,,,,,,,Ball,2.0256,337.9354808999997,337.9359968000008,337.93610660000013,337.950560700001,339.9835432,339.96773980000034,339.9707606000011,339.9835432,339.9835432,339.9835432,339.9835432,341.96793439999965,3,1.3035760999991908,0.23932629999944766,None,341.9836723999997,341.9836723999997,341.9836723999997,341.9836723999997,,,,,,,,,,,,,,,,,,,,,5900,1,2025-09-18_16h39.54.272,sm,2024.2.4,60.038496684088585,2025-09-18 16h40.37.984109 +0200,
25,0,25,,,,,,space,2.7430131000000983,None,None,None,,,None,0,0,0,0,,,,,0,0,0,0,,,,,25,0,25,0,341.9836723999997,,,,,,,,,,,,,,,,,,,,,,,,,,,,,,,,,,,,,,,,,,,,,,,,,,,,,,,,,,Journalistin,3.9614,341.968440300001,341.96898370000054,341.9690881000006,341.9836723999997,345.9500914,345.9343026000006,345.9409792000006,345.9500914,345.9500914,345.9500914,345.9500914,347.93507450000106,None,,,None,347.95003259999976,347.95003259999976,347.95003259999976,347.95003259999976,,,,,,,,,,,,,,,,,,,,,5900,1,2025-09-18_16h39.54.272,sm,2024.2.4,60.038496684088585,2025-09-18 16h40.37.984109 +0200,
26,0,26,,,,,,space,2.7430131000000983,None,None,3,1.26399930000116,0.19946109999909822,None,0,0,0,0,,,,,0,0,0,0,,,,,26,0,26,0,347.95003259999976,,,,,,,,,,,,,,,,,,,,,,,,,,,,,,,,,,,,,,,,,,,,,,,,,,,,,,,,,,Party,2.1554,347.9355504000014,347.93606420000106,347.9361691000013,347.95003259999976,350.1163843000013,350.1008135000011,350.10623769999984,350.1163843000013,350.1163843000013,350.1163843000013,350.1163843000013,352.10079980000046,3,1.26399930000116,0.19946109999909822,None,352.1163783000011,352.1163783000011,352.1163783000011,352.1163783000011,,,,,,,,,,,,,,,,,,,,,5900,1,2025-09-18_16h39.54.272,sm,2024.2.4,60.038496684088585,2025-09-18 16h40.37.984109 +0200,
27,0,27,,,,,,space,2.7430131000000983,None,None,None,,,None,0,0,0,0,,,,,0,0,0,0,,,,,27,0,27,0,352.1163783000011,,,,,,,,,,,,,,,,,,,,,,,,,,,,,,,,,,,,,,,,,,,,,,,,,,,,,,,,,,Turnerin,3.402,352.101308700001,352.10182200000054,352.101934100001,352.1163783000011,355.53291700000045,355.51707689999967,355.5210853000008,355.53291700000045,355.53291700000045,355.53291700000045,355.53291700000045,357.51706110000123,None,,,None,357.5327345000005,357.5327345000005,357.5327345000005,357.5327345000005,,,,,,,,,,,,,,,,,,,,,5900,1,2025-09-18_16h39.54.272,sm,2024.2.4,60.038496684088585,2025-09-18 16h40.37.984109 +0200,
28,0,28,,,,,,space,2.7430131000000983,None,None,3,1.331666000000041,0.20339419999982056,None,0,0,0,0,,,,,0,0,0,0,,,,,28,0,28,0,357.5327345000005,,,,,,,,,,,,,,,,,,,,,,,,,,,,,,,,,,,,,,,,,,,,,,,,,,,,,,,,,,Kaffee,2.8624,357.5175390000004,357.51805270000114,357.5181585999999,357.5327345000005,360.3990869999998,360.38313410000046,360.386800100001,360.3990869999998,360.3990869999998,360.3990869999998,360.3990869999998,362.38334700000087,3,1.331666000000041,0.20339419999982056,None,,,,,,,,,,,,,,,,,,,,,,,,,5900,1,2025-09-18_16h39.54.272,sm,2024.2.4,60.038496684088585,2025-09-18 16h40.37.984109 +0200,
29,0,29,,,,,,space,2.7430131000000983,None,None,3,1.4970348000006197,0.23591839999971853,None,0,0,0,0,,,,,0,0,0,0,,,,,29,0,29,0,362.3990541000003,,,,,,,,,,,,,,,,,,,,,,,,,,,,,,,,,,,,,,,,,,,,,,,,,,,,,,,,,,Moor,2.1531,362.3838539999997,362.38460099999975,362.3847153000006,362.3990541000003,364.5654523000012,364.5499553999998,364.5536527000004,364.5654523000012,364.5654523000012,364.5654523000012,364.5654523000012,366.54981399999997,3,1.4970348000006197,0.23591839999971853,None,366.56551560000116,366.56551560000116,366.56551560000116,366.56551560000116,,,,,,,,,,,,,,,,,,,,,5900,1,2025-09-18_16h39.54.272,sm,2024.2.4,60.038496684088585,2025-09-18 16h40.37.984109 +0200,
30,0,30,,,,,,space,2.7430131000000983,None,None,3,1.2192883000006987,0.21152160000019649,None,0,0,0,0,,,,,0,0,0,0,,,,,30,0,30,0,366.56551560000116,,,,,,,,,,,,,,,,,,,,,,,,,,,,,,,,,,,,,,,,,,,,,,,,,,,,,,,,,,Urlaub,2.3949,366.5503246999997,366.5508442999999,366.5509488000007,366.56551560000116,368.9650242000007,368.9501469000006,368.9574833000006,368.9650242000007,368.9650242000007,368.9650242000007,368.9650242000007,370.94952510000076,3,1.2192883000006987,0.21152160000019649,None,370.9657098000007,370.9657098000007,370.9657098000007,370.9657098000007,,,,,,,,,,,,,,,,,,,,,5900,1,2025-09-18_16h39.54.272,sm,2024.2.4,60.038496684088585,2025-09-18 16h40.37.984109 +0200,
31,0,31,,,,,,space,2.7430131000000983,None,None,3,1.148207000000184,0.22279549999984738,None,0,0,0,0,,,,,0,0,0,0,,,,,31,0,31,0,370.9657098000007,,,,,,,,,,,,,,,,,,,,,,,,,,,,,,,,,,,,,,,,,,,,,,,,,,,,,,,,,,Augen,2.0054,370.95000620000064,370.9505102000003,370.95060999999987,370.9657098000007,372.9824449000007,372.96635440000136,372.9700102000006,372.9824449000007,372.9824449000007,372.9824449000007,372.9824449000007,374.9661930000002,3,1.148207000000184,0.22279549999984738,None,374.9816085000002,374.9816085000002,374.9816085000002,374.9816085000002,,,,,,,,,,,,,,,,,,,,,5900,1,2025-09-18_16h39.54.272,sm,2024.2.4,60.038496684088585,2025-09-18 16h40.37.984109 +0200,
32,0,32,,,,,,space,2.7430131000000983,None,None,3,1.5374592999996821,0.23475930000131484,None,0,0,0,0,,,,,0,0,0,0,,,,,32,0,32,0,374.9816085000002,,,,,,,,,,,,,,,,,,,,,,,,,,,,,,,,,,,,,,,,,,,,,,,,,,,,,,,,,,Arm,2.62,374.9666960000013,374.9673352000009,374.96744190000027,374.9816085000002,377.6148086000012,377.5995941000001,377.6034909000009,377.6148086000012,377.6148086000012,377.6148086000012,377.6148086000012,379.5991543,3,1.5374592999996821,0.23475930000131484,None,379.61480740000115,379.61480740000115,379.61480740000115,379.61480740000115,,,,,,,,,,,,,,,,,,,,,5900,1,2025-09-18_16h39.54.272,sm,2024.2.4,60.038496684088585,2025-09-18 16h40.37.984109 +0200,
33,0,33,,,,,,space,2.7430131000000983,None,None,3,1.2563872999999148,0.19188430000031076,None,0,0,0,0,,,,,0,0,0,0,,,,,33,0,33,0,379.61480740000115,,,,,,,,,,,,,,,,,,,,,,,,,,,,,,,,,,,,,,,,,,,,,,,,,,,,,,,,,,Schreibtisch,2.5632,379.5996649000008,379.6001847000007,379.60028990000137,379.61480740000115,382.1810053999998,382.16540520000126,382.16946050000115,382.1810053999998,382.1810053999998,382.1810053999998,382.1810053999998,384.16591530000005,3,1.2563872999999148,0.19188430000031076,None,384.1812748000011,384.1812748000011,384.1812748000011,384.1812748000011,,,,,,,,,,,,,,,,,,,,,5900,1,2025-09-18_16h39.54.272,sm,2024.2.4,60.038496684088585,2025-09-18 16h40.37.984109 +0200,
34,0,34,,,,,,space,2.7430131000000983,None,None,3,1.0951079000005848,0.2019774000000325,None,0,0,0,0,,,,,0,0,0,0,,,,,34,0,34,0,384.1812748000011,,,,,,,,,,,,,,,,,,,,,,,,,,,,,,,,,,,,,,,,,,,,,,,,,,,,,,,,,,Dunkelheit,4.7082,384.1664156000006,384.1670806000002,384.16719589999957,384.1812748000011,388.89727160000075,388.88196810000045,388.88715520000005,388.89727160000075,388.89727160000075,388.89727160000075,388.89727160000075,390.88227970000116,3,1.0951079000005848,0.2019774000000325,None,390.8977014000011,390.8977014000011,390.8977014000011,390.8977014000011,,,,,,,,,,,,,,,,,,,,,5900,1,2025-09-18_16h39.54.272,sm,2024.2.4,60.038496684088585,2025-09-18 16h40.37.984109 +0200,
35,0,35,,,,,,space,2.7430131000000983,None,None,None,,,None,0,0,0,0,,,,,0,0,0,0,,,,,35,0,35,0,390.8977014000011,,,,,,,,,,,,,,,,,,,,,,,,,,,,,,,,,,,,,,,,,,,,,,,,,,,,,,,,,,Wind,2.5142,390.8827981000013,390.8835517999996,390.8836573999997,390.8977014000011,393.41416560000107,393.3982831000012,393.4018661000009,393.41416560000107,393.41416560000107,393.41416560000107,393.41416560000107,395.3983492999996,None,,,None,395.4139197000004,395.4139197000004,395.4139197000004,395.4139197000004,,,,,,,,,,,,,,,,,,,,,5900,1,2025-09-18_16h39.54.272,sm,2024.2.4,60.038496684088585,2025-09-18 16h40.37.984109 +0200,
36,0,36,,,,,,space,2.7430131000000983,None,None,None,,,None,0,0,0,0,,,,,0,0,0,0,,,,,36,0,36,0,395.4139197000004,,,,,,,,,,,,,,,,,,,,,,,,,,,,,,,,,,,,,,,,,,,,,,,,,,,,,,,,,,Klee,2.4505,395.39883200000077,395.3994794000009,395.39958490000026,395.4139197000004,397.8636576000008,397.8479084999999,397.85074910000003,397.8636576000008,397.8636576000008,397.8636576000008,397.8636576000008,399.8479301999996,None,,,None,399.8636311999999,399.8636311999999,399.8636311999999,399.8636311999999,,,,,,,,,,,,,,,,,,,,,5900,1,2025-09-18_16h39.54.272,sm,2024.2.4,60.038496684088585,2025-09-18 16h40.37.984109 +0200,
37,0,37,,,,,,space,2.7430131000000983,None,None,3,0.9800021999999444,0.1917198000010103,None,0,0,0,0,,,,,0,0,0,0,,,,,37,0,37,0,399.8636311999999,,,,,,,,,,,,,,,,,,,,,,,,,,,,,,,,,,,,,,,,,,,,,,,,,,,,,,,,,,Schule,3.0829,399.8484079000009,399.8489152000002,399.84902189999957,399.8636311999999,402.9467710000008,402.93077970000013,402.934374800001,402.9467710000008,402.9467710000008,402.9467710000008,402.9467710000008,404.93122010000116,3,0.9800021999999444,0.1917198000010103,None,404.94667050000135,404.94667050000135,404.94667050000135,404.94667050000135,,,,,,,,,,,,,,,,,,,,,5900,1,2025-09-18_16h39.54.272,sm,2024.2.4,60.038496684088585,2025-09-18 16h40.37.984109 +0200,
38,0,38,,,,,,space,2.7430131000000983,None,None,3,1.545260300001246,0.22532999999930325,None,0,0,0,0,,,,,0,0,0,0,,,,,38,0,38,0,404.94667050000135,,,,,,,,,,,,,,,,,,,,,,,,,,,,,,,,,,,,,,,,,,,,,,,,,,,,,,,,,,Seife,3.1826,404.9316675000009,404.9321579000007,404.9322501000006,404.94667050000135,408.1296824000001,408.11396160000004,408.11762100000124,408.1296824000001,408.1296824000001,408.1296824000001,408.1296824000001,410.1140198000012,3,1.545260300001246,0.22532999999930325,None,410.12972270000137,410.12972270000137,410.12972270000137,410.12972270000137,,,,,,,,,,,,,,,,,,,,,5900,1,2025-09-18_16h39.54.272,sm,2024.2.4,60.038496684088585,2025-09-18 16h40.37.984109 +0200,
39,0,39,,,,,,space,2.7430131000000983,None,None,None,,,None,0,0,0,0,,,,,0,0,0,0,,,,,39,0,39,0,410.12972270000137,,,,,,,,,,,,,,,,,,,,,,,,,,,,,,,,,,,,,,,,,,,,,,,,,,,,,,,,,,Erbe,3.6355,410.11449809999976,410.11499639999965,410.11509320000005,410.12972270000137,413.7793722000006,413.7636693000004,413.7670202999998,413.7793722000006,413.7793722000006,413.7793722000006,413.7793722000006,415.7637482000009,None,,,None,415.7792953999997,415.7792953999997,415.7792953999997,415.7792953999997,,,,,,,,,,,,,,,,,,,,,5900,1,2025-09-18_16h39.54.272,sm,2024.2.4,60.038496684088585,2025-09-18 16h40.37.984109 +0200,
40,0,40,,,,,,space,2.7430131000000983,None,None,None,,,None,0,0,0,0,,,,,0,0,0,0,,,,,40,0,40,0,415.7792953999997,,,,,,,,,,,,,,,,,,,,,,,,,,,,,,,,,,,,,,,,,,,,,,,,,,,,,,,,,,Scheidung,2.0138,415.7642680000008,415.7647764000012,415.7648871000001,415.7792953999997,417.7958123999997,417.78014110000004,417.78398130000096,417.7958123999997,417.7958123999997,417.7958123999997,417.7958123999997,419.78016690000004,None,,,None,419.7957139000009,419.7957139000009,419.7957139000009,419.7957139000009,,,,,,,,,,,,,,,,,,,,,5900,1,2025-09-18_16h39.54.272,sm,2024.2.4,60.038496684088585,2025-09-18 16h40.37.984109 +0200,
41,0,41,,,,,,space,2.7430131000000983,None,None,None,,,None,0,0,0,0,,,,,0,0,0,0,,,,,41,0,41,0,419.7957139000009,,,,,,,,,,,,,,,,,,,,,,,,,,,,,,,,,,,,,,,,,,,,,,,,,,,,,,,,,,Spinne,2.9443,419.7806436999999,419.7813877999997,419.78149620000113,419.7957139000009,422.74568270000054,422.729791400001,422.7338837999996,422.74568270000054,422.74568270000054,422.74568270000054,422.74568270000054,424.7297384000012,None,,,None,424.74545659999967,424.74545659999967,424.74545659999967,424.74545659999967,,,,,,,,,,,,,,,,,,,,,5900,1,2025-09-18_16h39.54.272,sm,2024.2.4,60.038496684088585,2025-09-18 16h40.37.984109 +0200,
42,0,42,,,,,,space,2.7430131000000983,None,None,3,1.243622999998479,0.2472672000003513,None,0,0,0,0,,,,,0,0,0,0,,,,,42,0,42,0,424.74545659999967,,,,,,,,,,,,,,,,,,,,,,,,,,,,,,,,,,,,,,,,,,,,,,,,,,,,,,,,,,Ferien,2.4845,424.7302208000001,424.7307275000003,424.73083829999996,424.74545659999967,427.24543749999975,427.2296690000003,427.2367359,427.24543749999975,427.24543749999975,427.24543749999975,427.24543749999975,429.22951420000027,3,1.243622999998479,0.2472672000003513,None,429.2452262000006,429.2452262000006,429.2452262000006,429.2452262000006,,,,,,,,,,,,,,,,,,,,,5900,1,2025-09-18_16h39.54.272,sm,2024.2.4,60.038496684088585,2025-09-18 16h40.37.984109 +0200,
43,0,43,,,,,,space,2.7430131000000983,None,None,3,0.8359873999997944,0.19641709999996237,None,0,0,0,0,,,,,0,0,0,0,,,,,43,0,43,0,429.2452262000006,,,,,,,,,,,,,,,,,,,,,,,,,,,,,,,,,,,,,,,,,,,,,,,,,,,,,,,,,,Beutel,3.102,429.2299896000004,429.23049660000106,429.2305999,429.2452262000006,432.36245990000134,432.34597790000043,432.3495687000013,432.36245990000134,432.36245990000134,432.36245990000134,432.36245990000134,434.34612000000016,3,0.8359873999997944,0.19641709999996237,None,434.36146949999966,434.36146949999966,434.36146949999966,434.36146949999966,,,,,,,,,,,,,,,,,,,,,5900,1,2025-09-18_16h39.54.272,sm,2024.2.4,60.038496684088585,2025-09-18 16h40.37.984109 +0200,
44,0,44,,,,,,space,2.7430131000000983,None,None,None,,,None,0,0,0,0,,,,,0,0,0,0,,,,,44,0,44,0,434.36146949999966,,,,,,,,,,,,,,,,,,,,,,,,,,,,,,,,,,,,,,,,,,,,,,,,,,,,,,,,,,Geschwister,2.0258,434.34662519999983,434.3472013999999,434.34730350000063,434.36146949999966,436.3944764000007,436.3790131000005,436.3827570000012,436.3944764000007,436.3944764000007,436.3944764000007,436.3944764000007,438.3790253999996,None,,,None,438.39469850000023,438.39469850000023,438.39469850000023,438.39469850000023,,,,,,,,,,,,,,,,,,,,,5900,1,2025-09-18_16h39.54.272,sm,2024.2.4,60.038496684088585,2025-09-18 16h40.37.984109 +0200,
45,0,45,,,,,,space,2.7430131000000983,None,None,3,1.1729593999989447,0.23242299999947136,None,0,0,0,0,,,,,0,0,0,0,,,,,45,0,45,0,438.39469850000023,,,,,,,,,,,,,,,,,,,,,,,,,,,,,,,,,,,,,,,,,,,,,,,,,,,,,,,,,,Duft,3.3321,438.3794747000011,438.3799966000006,438.38009630000124,438.39469850000023,441.72764149999966,441.71208409999963,441.71530130000065,441.72764149999966,441.72764149999966,441.72764149999966,441.72764149999966,443.7123491000002,3,1.1729593999989447,0.23242299999947136,None,443.727692800001,443.727692800001,443.727692800001,443.727692800001,,,,,,,,,,,,,,,,,,,,,5900,1,2025-09-18_16h39.54.272,sm,2024.2.4,60.038496684088585,2025-09-18 16h40.37.984109 +0200,
46,0,46,,,,,,space,2.7430131000000983,None,None,3,1.1070354000003135,0.20061729999906674,None,0,0,0,0,,,,,0,0,0,0,,,,,46,0,46,0,443.727692800001,,,,,,,,,,,,,,,,,,,,,,,,,,,,,,,,,,,,,,,,,,,,,,,,,,,,,,,,,,Knie,2.4935,443.71285309999985,443.71336730000075,443.7134719000005,443.727692800001,446.22748180000053,446.2119210000001,446.215624800001,446.22748180000053,446.22748180000053,446.22748180000053,446.22748180000053,448.21206540000094,3,1.1070354000003135,0.20061729999906674,None,448.2274327000014,448.2274327000014,448.2274327000014,448.2274327000014,,,,,,,,,,,,,,,,,,,,,5900,1,2025-09-18_16h39.54.272,sm,2024.2.4,60.038496684088585,2025-09-18 16h40.37.984109 +0200,
47,0,47,,,,,,space,2.7430131000000983,None,None,None,,,None,0,0,0,0,,,,,0,0,0,0,,,,,47,0,47,0,448.2274327000014,,,,,,,,,,,,,,,,,,,,,,,,,,,,,,,,,,,,,,,,,,,,,,,,,,,,,,,,,,Apfel,2.0136,448.21256540000104,448.21315119999963,448.2132595000003,448.2274327000014,450.2440404000008,450.22824709999986,450.2327674999997,450.2440404000008,450.2440404000008,450.2440404000008,450.2440404000008,452.22826890000033,None,,,None,452.2440368000007,452.2440368000007,452.2440368000007,452.2440368000007,,,,,,,,,,,,,,,,,,,,,5900,1,2025-09-18_16h39.54.272,sm,2024.2.4,60.038496684088585,2025-09-18 16h40.37.984109 +0200,
48,0,48,,,,,,space,2.7430131000000983,None,None,None,,,None,0,0,0,0,,,,,0,0,0,0,,,,,48,0,48,0,452.2440368000007,,,,,,,,,,,,,,,,,,,,,,,,,,,,,,,,,,,,,,,,,,,,,,,,,,,,,,,,,,Weltraum,4.4444,452.22874010000123,452.22931120000067,452.2294175999996,452.2440368000007,456.69363090000115,456.67789749999974,456.68179750000127,456.69363090000115,456.69363090000115,456.69363090000115,456.69363090000115,458.67795020000085,None,,,None,458.69353560000127,458.69353560000127,458.69353560000127,458.69353560000127,,,,,,,,,,,,,,,,,,,,,5900,1,2025-09-18_16h39.54.272,sm,2024.2.4,60.038496684088585,2025-09-18 16h40.37.984109 +0200,
49,0,49,,,,,,space,2.7430131000000983,None,None,3,0.9089179999991757,0.21441630000117584,None,0,0,0,0,,,,,0,0,0,0,,,,,49,0,49,0,458.69353560000127,,,,,,,,,,,,,,,,,,,,,,,,,,,,,,,,,,,,,,,,,,,,,,,,,,,,,,,,,,Wahrheit,2.0507,458.6784297000013,458.67894650000017,458.6790531000006,458.69353560000127,460.7433712000002,460.7276380000003,460.73152910000135,460.7433712000002,460.7433712000002,460.7433712000002,460.7433712000002,462.7276297999997,3,0.9089179999991757,0.21441630000117584,None,462.7435020000012,462.7435020000012,462.7435020000012,462.7435020000012,,,,,,,,,,,,,,,,,,,,,5900,1,2025-09-18_16h39.54.272,sm,2024.2.4,60.038496684088585,2025-09-18 16h40.37.984109 +0200,
50,0,50,,,,,,space,2.7430131000000983,None,None,3,1.2223417000004702,0.29860199999893666,None,0,0,0,0,,,,,0,0,0,0,,,,,50,0,50,0,462.7435020000012,,,,,,,,,,,,,,,,,,,,,,,,,,,,,,,,,,,,,,,,,,,,,,,,,,,,,,,,,,Konzert,3.3824,462.7281006000012,462.72890050000024,462.7289976000011,462.7435020000012,466.12625480000133,466.1108039999999,466.11423579999973,466.12625480000133,466.12625480000133,466.12625480000133,466.12625480000133,468.110805100001,3,1.2223417000004702,0.29860199999893666,None,468.12630720000016,468.12630720000016,468.12630720000016,468.12630720000016,,,,,,,,,,,,,,,,,,,,,5900,1,2025-09-18_16h39.54.272,sm,2024.2.4,60.038496684088585,2025-09-18 16h40.37.984109 +0200,
51,0,51,,,,,,space,2.7430131000000983,None,None,3,0.81738790000054,0.17355139999926905,None,0,0,0,0,,,,,0,0,0,0,,,,,51,0,51,0,468.12630720000016,,,,,,,,,,,,,,,,,,,,,,,,,,,,,,,,,,,,,,,,,,,,,,,,,,,,,,,,,,Gleis,2.7809,468.1113177999996,468.11183560000063,468.1119421000003,468.12630720000016,470.9093455000002,470.89386829999967,470.89798789999986,470.9093455000002,470.9093455000002,470.9093455000002,470.9093455000002,472.8937784999998,3,0.81738790000054,0.17355139999926905,None,472.90955870000107,472.90955870000107,472.90955870000107,472.90955870000107,,,,,,,,,,,,,,,,,,,,,5900,1,2025-09-18_16h39.54.272,sm,2024.2.4,60.038496684088585,2025-09-18 16h40.37.984109 +0200,
52,0,52,,,,,,space,2.7430131000000983,None,None,3,1.0689499999989494,0.19244439999965834,None,0,0,0,0,,,,,0,0,0,0,,,,,52,0,52,0,472.90955870000107,,,,,,,,,,,,,,,,,,,,,,,,,,,,,,,,,,,,,,,,,,,,,,,,,,,,,,,,,,Tube,3.8182,472.8942852,472.89480379999986,472.89490880000085,472.90955870000107,476.7422776000003,476.72679659999994,476.7305382000013,476.7422776000003,476.7422776000003,476.7422776000003,476.7422776000003,478.72677640000074,3,1.0689499999989494,0.19244439999965834,None,478.7422993,478.7422993,478.7422993,478.7422993,,,,,,,,,,,,,,,,,,,,,5900,1,2025-09-18_16h39.54.272,sm,2024.2.4,60.038496684088585,2025-09-18 16h40.37.984109 +0200,
53,0,53,,,,,,space,2.7430131000000983,None,None,None,,,None,0,0,0,0,,,,,0,0,0,0,,,,,53,0,53,0,478.7422993,,,,,,,,,,,,,,,,,,,,,,,,,,,,,,,,,,,,,,,,,,,,,,,,,,,,,,,,,,Vampir,2.8467,478.72729080000136,478.727816300001,478.72792110000046,478.7422993,481.592079,481.5764037000008,481.58017889999974,481.592079,481.592079,481.592079,481.592079,483.57632470000135,None,,,None,483.5921149000005,483.5921149000005,483.5921149000005,483.5921149000005,,,,,,,,,,,,,,,,,,,,,5900,1,2025-09-18_16h39.54.272,sm,2024.2.4,60.038496684088585,2025-09-18 16h40.37.984109 +0200,
54,0,54,,,,,,space,2.7430131000000983,None,None,None,,,None,0,0,0,0,,,,,0,0,0,0,,,,,54,0,54,0,483.5921149000005,,,,,,,,,,,,,,,,,,,,,,,,,,,,,,,,,,,,,,,,,,,,,,,,,,,,,,,,,,Rasen,2.0629,483.5767727000002,483.5772846,483.57738380000046,483.5921149000005,485.65864500000134,485.64294979999977,485.6473170999998,485.65864500000134,485.65864500000134,485.65864500000134,485.65864500000134,487.6432352000011,None,,,None,487.6585333000003,487.6585333000003,487.6585333000003,487.6585333000003,,,,,,,,,,,,,,,,,,,,,5900,1,2025-09-18_16h39.54.272,sm,2024.2.4,60.038496684088585,2025-09-18 16h40.37.984109 +0200,
55,0,55,,,,,,space,2.7430131000000983,None,None,3,0.9441977999995288,0.218385500000295,None,0,0,0,0,,,,,0,0,0,0,,,,,55,0,55,0,487.6585333000003,,,,,,,,,,,,,,,,,,,,,,,,,,,,,,,,,,,,,,,,,,,,,,,,,,,,,,,,,,Foto,5.2303,487.64373140000134,487.6444169000006,487.64452580000034,487.6585333000003,492.89223049999964,492.8758146,492.8799214999999,492.89223049999964,492.89223049999964,492.89223049999964,492.89223049999964,494.87601630000063,3,0.9441977999995288,0.218385500000295,None,494.89151310000125,494.89151310000125,494.89151310000125,494.89151310000125,,,,,,,,,,,,,,,,,,,,,5900,1,2025-09-18_16h39.54.272,sm,2024.2.4,60.038496684088585,2025-09-18 16h40.37.984109 +0200,
56,0,56,,,,,,space,2.7430131000000983,None,None,3,0.974416699998983,0.20046610000099463,None,0,0,0,0,,,,,0,0,0,0,,,,,56,0,56,0,494.89151310000125,,,,,,,,,,,,,,,,,,,,,,,,,,,,,,,,,,,,,,,,,,,,,,,,,,,,,,,,,,Datei,2.1702,494.87651730000107,494.8771013000005,494.87720420000005,494.89151310000125,497.0744513000009,497.0587386999996,497.0621293000004,497.0744513000009,497.0744513000009,497.0744513000009,497.0744513000009,499.05892740000127,3,0.974416699998983,0.20046610000099463,None,499.0746949000004,499.0746949000004,499.0746949000004,499.0746949000004,,,,,,,,,,,,,,,,,,,,,5900,1,2025-09-18_16h39.54.272,sm,2024.2.4,60.038496684088585,2025-09-18 16h40.37.984109 +0200,
57,0,57,,,,,,space,2.7430131000000983,None,None,3,0.7174460000005638,0.3151963000000251,None,0,0,0,0,,,,,0,0,0,0,,,,,57,0,57,0,499.0746949000004,,,,,,,,,,,,,,,,,,,,,,,,,,,,,,,,,,,,,,,,,,,,,,,,,,,,,,,,,,Puppe,2.7465,499.0594340000007,499.0599495000006,499.06005280000136,499.0746949000004,501.8250755000008,501.80874890000086,501.81273839999994,501.8250755000008,501.8250755000008,501.8250755000008,501.8250755000008,503.8084796000003,3,0.7174460000005638,0.3151963000000251,None,503.8242310000005,503.8242310000005,503.8242310000005,503.8242310000005,,,,,,,,,,,,,,,,,,,,,5900,1,2025-09-18_16h39.54.272,sm,2024.2.4,60.038496684088585,2025-09-18 16h40.37.984109 +0200,
58,0,58,,,,,,space,2.7430131000000983,None,None,3,0.7602881999991951,0.29517699999996694,None,0,0,0,0,,,,,0,0,0,0,,,,,58,0,58,0,503.8242310000005,,,,,,,,,,,,,,,,,,,,,,,,,,,,,,,,,,,,,,,,,,,,,,,,,,,,,,,,,,Zimmer,2.5494,503.8089269000011,503.8094258000001,503.80951690000074,503.8242310000005,506.3739311999998,506.35853300000053,506.36251900000025,506.3739311999998,506.3739311999998,506.3739311999998,506.3739311999998,508.3581525999998,3,0.7602881999991951,0.29517699999996694,None,508.3741269000002,508.3741269000002,508.3741269000002,508.3741269000002,,,,,,,,,,,,,,,,,,,,,5900,1,2025-09-18_16h39.54.272,sm,2024.2.4,60.038496684088585,2025-09-18 16h40.37.984109 +0200,
59,0,59,,,,,,space,2.7430131000000983,None,None,3,1.0603298000005452,0.17609579999952985,None,0,0,0,0,,,,,0,0,0,0,,,,,59,0,59,0,508.3741269000002,,,,,,,,,,,,,,,,,,,,,,,,,,,,,,,,,,,,,,,,,,,,,,,,,,,,,,,,,,Frieden,2.5314,508.3585665999999,508.3590322,508.35911810000107,508.3741269000002,510.90713549999964,510.89154150000104,510.8960334000003,510.90713549999964,510.90713549999964,510.90713549999964,510.90713549999964,512.8915883999998,3,1.0603298000005452,0.17609579999952985,None,512.9071280000007,512.9071280000007,512.9071280000007,512.9071280000007,,,,,,,,,,,,,,,,,,,,,5900,1,2025-09-18_16h39.54.272,sm,2024.2.4,60.038496684088585,2025-09-18 16h40.37.984109 +0200,
60,0,60,,,,,,space,2.7430131000000983,None,None,3,1.2014563000011549,0.18550460000005842,None,0,0,0,0,,,,,0,0,0,0,,,,,60,0,60,0,512.9071280000007,,,,,,,,,,,,,,,,,,,,,,,,,,,,,,,,,,,,,,,,,,,,,,,,,,,,,,,,,,Sauber,2.6982,512.8920894000003,512.8928591000004,512.8929736999999,512.9071280000007,515.6068417000006,515.5914239000012,515.5964237000007,515.6068417000006,515.6068417000006,515.6068417000006,515.6068417000006,517.5913053000004,3,1.2014563000011549,0.18550460000005842,None,517.6068472000006,517.6068472000006,517.6068472000006,517.6068472000006,,,,,,,,,,,,,,,,,,,,,5900,1,2025-09-18_16h39.54.272,sm,2024.2.4,60.038496684088585,2025-09-18 16h40.37.984109 +0200,
61,0,61,,,,,,space,2.7430131000000983,None,None,3,1.0208290000009583,0.1645619999999326,None,0,0,0,0,,,,,0,0,0,0,,,,,61,0,61,0,517.6068472000006,,,,,,,,,,,,,,,,,,,,,,,,,,,,,,,,,,,,,,,,,,,,,,,,,,,,,,,,,,Humor,4.1781,517.5918115000004,517.5923306000004,517.5924351000012,517.6068472000006,521.7897357000002,521.7745749000005,521.7806670999998,521.7897357000002,521.7897357000002,521.7897357000002,521.7897357000002,523.7741490999997,3,1.0208290000009583,0.1645619999999326,None,523.7898983000014,523.7898983000014,523.7898983000014,523.7898983000014,,,,,,,,,,,,,,,,,,,,,5900,1,2025-09-18_16h39.54.272,sm,2024.2.4,60.038496684088585,2025-09-18 16h40.37.984109 +0200,
62,0,62,,,,,,space,2.7430131000000983,None,None,3,0.9105381999997917,0.1831213999994361,None,0,0,0,0,,,,,0,0,0,0,,,,,62,0,62,0,523.7898983000014,,,,,,,,,,,,,,,,,,,,,,,,,,,,,,,,,,,,,,,,,,,,,,,,,,,,,,,,,,Reise,2.1741,523.7745947000003,523.7750823000006,523.7751727000013,523.7898983000014,525.9726013,525.9570916000011,525.9606067000004,525.9726013,525.9726013,525.9726013,525.9726013,527.9572398,3,0.9105381999997917,0.1831213999994361,None,527.9731557000014,527.9731557000014,527.9731557000014,527.9731557000014,,,,,,,,,,,,,,,,,,,,,5900,1,2025-09-18_16h39.54.272,sm,2024.2.4,60.038496684088585,2025-09-18 16h40.37.984109 +0200,
63,0,63,,,,,,space,2.7430131000000983,None,None,3,0.8532961999990221,0.17845130000023346,None,0,0,0,0,,,,,0,0,0,0,,,,,63,0,63,0,527.9731557000014,,,,,,,,,,,,,,,,,,,,,,,,,,,,,,,,,,,,,,,,,,,,,,,,,,,,,,,,,,Juwel,3.0719,527.9577599000004,527.9582953000008,527.9584040999998,527.9731557000014,531.0558560999998,531.0398980000009,531.0431531000013,531.0558560999998,531.0558560999998,531.0558560999998,531.0558560999998,533.0403634000013,3,0.8532961999990221,0.17845130000023346,None,533.0559962999996,533.0559962999996,533.0559962999996,533.0559962999996,,,,,,,,,,,,,,,,,,,,,5900,1,2025-09-18_16h39.54.272,sm,2024.2.4,60.038496684088585,2025-09-18 16h40.37.984109 +0200,
64,0,64,,,,,,space,2.7430131000000983,None,None,None,,,None,0,0,0,0,,,,,0,0,0,0,,,,,64,0,64,0,533.0559962999996,,,,,,,,,,,,,,,,,,,,,,,,,,,,,,,,,,,,,,,,,,,,,,,,,,,,,,,,,,Kartoffel,3.6249,533.0408695000006,533.0413903000008,533.0414981000013,533.0559962999996,536.6889287000013,536.6732353000007,536.6766478000009,536.6889287000013,536.6889287000013,536.6889287000013,536.6889287000013,538.6737357000002,None,,,None,538.6888689000007,538.6888689000007,538.6888689000007,538.6888689000007,,,,,,,,,,,,,,,,,,,,,5900,1,2025-09-18_16h39.54.272,sm,2024.2.4,60.038496684088585,2025-09-18 16h40.37.984109 +0200,
65,0,65,,,,,,space,2.7430131000000983,None,None,3,1.0295597000003909,0.17808429999968212,None,0,0,0,0,,,,,0,0,0,0,,,,,65,0,65,0,538.6888689000007,,,,,,,,,,,,,,,,,,,,,,,,,,,,,,,,,,,,,,,,,,,,,,,,,,,,,,,,,,Tal,3.1408,538.6742168000001,538.674719300001,538.6748239999997,538.6888689000007,541.8384249999999,541.8228451000014,541.8260365000006,541.8384249999999,541.8384249999999,541.8384249999999,541.8384249999999,543.8234236999997,3,1.0295597000003909,0.17808429999968212,None,543.8384624000009,543.8384624000009,543.8384624000009,543.8384624000009,,,,,,,,,,,,,,,,,,,,,5900,1,2025-09-18_16h39.54.272,sm,2024.2.4,60.038496684088585,2025-09-18 16h40.37.984109 +0200,
66,0,66,,,,,,space,2.7430131000000983,None,None,3,1.7838333999989118,None,None,0,0,0,0,,,,,0,0,0,0,,,,,66,0,66,0,543.8384624000009,,,,,,,,,,,,,,,,,,,,,,,,,,,,,,,,,,,,,,,,,,,,,,,,,,,,,,,,,,Kuchen ,3.9591,543.823932700001,543.8244535000013,543.8245599000002,543.8384624000009,547.8047896999997,547.789151500001,547.7950867,547.8047896999997,547.8047896999997,547.8047896999997,547.8047896999997,549.7898696000011,3,1.7838333999989118,None,None,549.804989100001,549.804989100001,549.804989100001,549.804989100001,,,,,,,,,,,,,,,,,,,,,5900,1,2025-09-18_16h39.54.272,sm,2024.2.4,60.038496684088585,2025-09-18 16h40.37.984109 +0200,
67,0,67,,,,,,space,2.7430131000000983,None,None,3,1.2447241000008944,0.1625382999991416,None,0,0,0,0,,,,,0,0,0,0,,,,,67,0,67,0,549.804989100001,,,,,,,,,,,,,,,,,,,,,,,,,,,,,,,,,,,,,,,,,,,,,,,,,,,,,,,,,,Garten,2.4552,549.7903664000005,549.7911388000011,549.7912439000011,549.804989100001,552.2713918999998,552.2558138000004,552.2600397000006,552.2713918999998,552.2713918999998,552.2713918999998,552.2713918999998,554.2558735000002,3,1.2447241000008944,0.1625382999991416,None,554.2719125000003,554.2719125000003,554.2719125000003,554.2719125000003,,,,,,,,,,,,,,,,,,,,,5900,1,2025-09-18_16h39.54.272,sm,2024.2.4,60.038496684088585,2025-09-18 16h40.37.984109 +0200,
68,0,68,,,,,,space,2.7430131000000983,None,None,3,0.8389905000003637,0.18048819999967236,None,0,0,0,0,,,,,0,0,0,0,,,,,68,0,68,0,554.2719125000003,,,,,,,,,,,,,,,,,,,,,,,,,,,,,,,,,,,,,,,,,,,,,,,,,,,,,,,,,,Hütte,2.636,554.2563805000009,554.2571526000011,554.2572600000003,554.2719125000003,556.9210739999999,556.9053199999998,556.9089899999999,556.9210739999999,556.9210739999999,556.9210739999999,556.9210739999999,558.9053918000009,3,0.8389905000003637,0.18048819999967236,None,558.9210652000002,558.9210652000002,558.9210652000002,558.9210652000002,,,,,,,,,,,,,,,,,,,,,5900,1,2025-09-18_16h39.54.272,sm,2024.2.4,60.038496684088585,2025-09-18 16h40.37.984109 +0200,
69,0,69,,,,,,space,2.7430131000000983,None,None,3,1.3936374000004434,0.17028779999964172,None,0,0,0,0,,,,,0,0,0,0,,,,,69,0,69,0,558.9210652000002,,,,,,,,,,,,,,,,,,,,,,,,,,,,,,,,,,,,,,,,,,,,,,,,,,,,,,,,,,Sport,2.0819,558.9058947000012,558.9064427000012,558.9065461999999,558.9210652000002,561.0041192999997,560.9885924000009,560.9925328999998,561.0041192999997,561.0041192999997,561.0041192999997,561.0041192999997,562.9884825999998,3,1.3936374000004434,0.17028779999964172,None,563.0042403000007,563.0042403000007,563.0042403000007,563.0042403000007,,,,,,,,,,,,,,,,,,,,,5900,1,2025-09-18_16h39.54.272,sm,2024.2.4,60.038496684088585,2025-09-18 16h40.37.984109 +0200,
70,0,70,,,,,,space,2.7430131000000983,None,None,3,1.2363459999996849,0.1985461000003852,None,0,0,0,0,,,,,0,0,0,0,,,,,70,0,70,0,563.0042403000007,,,,,,,,,,,,,,,,,,,,,,,,,,,,,,,,,,,,,,,,,,,,,,,,,,,,,,,,,,Fuß,2.4153,562.9889538000007,562.9896905000005,562.9897930999996,563.0042403000007,565.4205509000003,565.4050289999996,565.4090799000005,565.4205509000003,565.4205509000003,565.4205509000003,565.4205509000003,567.4050294000008,3,1.2363459999996849,0.1985461000003852,None,567.4206967000009,567.4206967000009,567.4206967000009,567.4206967000009,,,,,,,,,,,,,,,,,,,,,5900,1,2025-09-18_16h39.54.272,sm,2024.2.4,60.038496684088585,2025-09-18 16h40.37.984109 +0200,
71,0,71,,,,,,space,2.7430131000000983,None,None,None,,,None,0,0,0,0,,,,,0,0,0,0,,,,,71,0,71,0,567.4206967000009,,,,,,,,,,,,,,,,,,,,,,,,,,,,,,,,,,,,,,,,,,,,,,,,,,,,,,,,,,Universität,2.1304,567.4055105999996,567.4060105999997,567.4061084000004,567.4206967000009,569.5537635000001,569.5384243999997,569.5426629000012,569.5537635000001,569.5537635000001,569.5537635000001,569.5537635000001,571.5378813999996,None,,,None,571.5534585000005,571.5534585000005,571.5534585000005,571.5534585000005,,,,,,,,,,,,,,,,,,,,,5900,1,2025-09-18_16h39.54.272,sm,2024.2.4,60.038496684088585,2025-09-18 16h40.37.984109 +0200,
72,0,72,,,,,,space,2.7430131000000983,None,None,3,0.9751558999996632,0.1880823000010423,None,0,0,0,0,,,,,0,0,0,0,,,,,72,0,72,0,571.5534585000005,,,,,,,,,,,,,,,,,,,,,,,,,,,,,,,,,,,,,,,,,,,,,,,,,,,,,,,,,,Soße,2.2922,571.5382654000005,571.5387337000011,571.5388153000004,571.5534585000005,573.8534187000005,573.837736200001,573.8416257000008,573.8534187000005,573.8534187000005,573.8534187000005,573.8534187000005,575.8378160000011,3,0.9751558999996632,0.1880823000010423,None,575.8536617000009,575.8536617000009,575.8536617000009,575.8536617000009,,,,,,,,,,,,,,,,,,,,,5900,1,2025-09-18_16h39.54.272,sm,2024.2.4,60.038496684088585,2025-09-18 16h40.37.984109 +0200,
73,0,73,,,,,,space,2.7430131000000983,None,None,3,1.269222400000217,0.18749449999995704,None,0,0,0,0,,,,,0,0,0,0,,,,,73,0,73,0,575.8536617000009,,,,,,,,,,,,,,,,,,,,,,,,,,,,,,,,,,,,,,,,,,,,,,,,,,,,,,,,,,Sturm,2.207,575.8383281000006,575.8388418000013,575.8389513000002,575.8536617000009,578.069715900001,578.0543763000005,578.0578139000008,578.069715900001,578.069715900001,578.069715900001,578.069715900001,580.0545703000007,3,1.269222400000217,0.18749449999995704,None,580.0697489000013,580.0697489000013,580.0697489000013,580.0697489000013,,,,,,,,,,,,,,,,,,,,,5900,1,2025-09-18_16h39.54.272,sm,2024.2.4,60.038496684088585,2025-09-18 16h40.37.984109 +0200,
74,0,74,,,,,,space,2.7430131000000983,None,None,3,1.2095423999999184,0.17185479999898234,None,0,0,0,0,,,,,0,0,0,0,,,,,74,0,74,0,580.0697489000013,,,,,,,,,,,,,,,,,,,,,,,,,,,,,,,,,,,,,,,,,,,,,,,,,,,,,,,,,,Gesicht,2.4832,580.0550823000012,580.0555955,580.0557349999999,580.0697489000013,582.5529306000008,582.5374417000003,582.5416127000008,582.5529306000008,582.5529306000008,582.5529306000008,582.5529306000008,584.5374319000002,3,1.2095423999999184,0.17185479999898234,None,584.5532060000005,584.5532060000005,584.5532060000005,584.5532060000005,,,,,,,,,,,,,,,,,,,,,5900,1,2025-09-18_16h39.54.272,sm,2024.2.4,60.038496684088585,2025-09-18 16h40.37.984109 +0200,
75,0,75,,,,,,space,2.7430131000000983,None,None,3,1.1614692000002833,0.17231129999890982,None,0,0,0,0,,,,,0,0,0,0,,,,,75,0,75,0,584.5532060000005,,,,,,,,,,,,,,,,,,,,,,,,,,,,,,,,,,,,,,,,,,,,,,,,,,,,,,,,,,Gegenwart,3.0938,584.5379369000002,584.5384454000014,584.5385506000002,584.5532060000005,587.6526661000007,587.6370919000001,587.6412951000002,587.6526661000007,587.6526661000007,587.6526661000007,587.6526661000007,589.636976400001,3,1.1614692000002833,0.17231129999890982,None,589.6525711000013,589.6525711000013,589.6525711000013,589.6525711000013,,,,,,,,,,,,,,,,,,,,,5900,1,2025-09-18_16h39.54.272,sm,2024.2.4,60.038496684088585,2025-09-18 16h40.37.984109 +0200,
76,0,76,,,,,,space,2.7430131000000983,None,None,3,1.4735994999991817,0.17523690000052738,None,0,0,0,0,,,,,0,0,0,0,,,,,76,0,76,0,589.6525711000013,,,,,,,,,,,,,,,,,,,,,,,,,,,,,,,,,,,,,,,,,,,,,,,,,,,,,,,,,,Maske,2.3085,589.6374921000006,589.6380762000008,589.6381855,589.6525711000013,591.9689333000006,591.9532767000001,591.9567829999996,591.9689333000006,591.9689333000006,591.9689333000006,591.9689333000006,593.9536336000001,3,1.4735994999991817,0.17523690000052738,None,593.9690745999997,593.9690745999997,593.9690745999997,593.9690745999997,,,,,,,,,,,,,,,,,,,,,5900,1,2025-09-18_16h39.54.272,sm,2024.2.4,60.038496684088585,2025-09-18 16h40.37.984109 +0200,
77,0,77,,,,,,space,2.7430131000000983,None,None,3,1.5125975999999355,0.1815593000010267,None,0,0,0,0,,,,,0,0,0,0,,,,,77,0,77,0,593.9690745999997,,,,,,,,,,,,,,,,,,,,,,,,,,,,,,,,,,,,,,,,,,,,,,,,,,,,,,,,,,Platz,3.3888,593.9541418999997,593.9549005000008,593.9550037999998,593.9690745999997,597.3685842000014,597.3529008000005,597.356466700001,597.3685842000014,597.3685842000014,597.3685842000014,597.3685842000014,599.3531337000004,3,1.5125975999999355,0.1815593000010267,None,599.3687373000012,599.3687373000012,599.3687373000012,599.3687373000012,,,,,,,,,,,,,,,,,,,,,5900,1,2025-09-18_16h39.54.272,sm,2024.2.4,60.038496684088585,2025-09-18 16h40.37.984109 +0200,
78,0,78,,,,,,space,2.7430131000000983,None,None,None,,,None,0,0,0,0,,,,,0,0,0,0,,,,,78,0,78,0,599.3687373000012,,,,,,,,,,,,,,,,,,,,,,,,,,,,,,,,,,,,,,,,,,,,,,,,,,,,,,,,,,Ecke,2.2202,599.3536442000004,599.3542921000007,599.3544001000009,599.3687373000012,601.6017607000013,601.5860339999999,601.5894073,601.6017607000013,601.6017607000013,601.6017607000013,601.6017607000013,603.586103900001,None,,,None,603.6016245999999,603.6016245999999,603.6016245999999,603.6016245999999,,,,,,,,,,,,,,,,,,,,,5900,1,2025-09-18_16h39.54.272,sm,2024.2.4,60.038496684088585,2025-09-18 16h40.37.984109 +0200,
79,0,79,,,,,,space,2.7430131000000983,None,None,3,1.1120007000008627,0.2901944999994157,None,0,0,0,0,,,,,0,0,0,0,,,,,79,0,79,0,603.6016245999999,,,,,,,,,,,,,,,,,,,,,,,,,,,,,,,,,,,,,,,,,,,,,,,,,,,,,,,,,,Rauch,3.9843,603.5865305999996,603.5870357000003,603.5871270999996,603.6016245999999,607.5848784000009,607.5696263999998,607.5745999999999,607.5848784000009,607.5848784000009,607.5848784000009,607.5848784000009,609.5692712,3,1.1120007000008627,0.2901944999994157,None,609.596799500001,609.596799500001,609.596799500001,609.596799500001,,,,,,,,,,,,,,,,,,,,,5900,1,2025-09-18_16h39.54.272,sm,2024.2.4,60.038496684088585,2025-09-18 16h40.37.984109 +0200,
0,0,0,,,,,2.0258,space,1.4667563000002701,None,None,3,1.2066755000014382,0.18350729999838222,None,0,0,0,0,,,,,1,0,1,0,0,79,79,41,0,0,0,0,655.2655193999999,,,,,,,,,,,,,,,,,,,,,,,,,,,,,,,,,,,,628.2270242000013,628.2273155000003,628.2342232999999,628.238104600001,628.238104600001,629.7170979000002,space,1.4667563000002701,None,629.717238700001,629.7337844000012,629.7337844000012,643.250872300001,None,643.258021900001,643.2659750000003,643.2662876666675,644.4766930000005,653.2661482666665,654.2670489000011,655.2655193999999,655.2497706000013,Klippe,2.0258,655.2510884000003,655.2517320999996,655.2518266000006,655.2655193999999,657.2984730999997,657.2829765000006,657.2871195000007,657.2984730999997,657.2984730999997,657.2984730999997,657.2984730999997,659.2834749000012,3,1.2066755000014382,0.18350729999838222,None,659.2992085000005,659.2992085000005,659.2992085000005,659.2992085000005,621.5843667000008,621.5844358000013,None,621.5909110000011,621.6004934000011,625.6006178000007,625.6006178000007,625.6006178000007,628.1670623999998,3,2.556002499999522,None,,,,,,,,,5900,1,2025-09-18_16h39.54.272,sm,2024.2.4,60.038496684088585,2025-09-18 16h40.37.984109 +0200,
1,0,1,,,,,,space,1.4667563000002701,None,None,3,0.9761120999992272,0.23840440000094532,None,0,0,0,0,,,,,1,0,1,0,,,,,1,0,1,0,659.2992085000005,,,,,,,,,,,,,,,,,,,,,,,,,,,,,,,,,,,,,,,,,,,,,,,,,,,,,,,,,,Krone,3.3321,659.2839878000013,659.284500400001,659.2846103000011,659.2992085000005,662.6323644000004,662.6159312,662.6192017000012,662.6323644000004,662.6323644000004,662.6323644000004,662.6323644000004,664.6160307999999,3,0.9761120999992272,0.23840440000094532,None,664.6317371000005,664.6317371000005,664.6317371000005,664.6317371000005,,,,,,,,,,,,,,,,,,,,,5900,1,2025-09-18_16h39.54.272,sm,2024.2.4,60.038496684088585,2025-09-18 16h40.37.984109 +0200,
2,0,2,,,,,,space,1.4667563000002701,None,None,3,1.1124338999998145,0.200901199999862,None,0,0,0,0,,,,,1,0,1,0,,,,,2,0,2,0,664.6317371000005,,,,,,,,,,,,,,,,,,,,,,,,,,,,,,,,,,,,,,,,,,,,,,,,,,,,,,,,,,Schloss,4.1781,664.6165426000007,664.6170517999999,664.6171537999999,664.6317371000005,668.8146218000002,668.7990160999998,668.802589500001,668.8146218000002,668.8146218000002,668.8146218000002,668.8146218000002,670.7990303000006,3,1.1124338999998145,0.200901199999862,None,670.8145550999998,670.8145550999998,670.8145550999998,670.8145550999998,,,,,,,,,,,,,,,,,,,,,5900,1,2025-09-18_16h39.54.272,sm,2024.2.4,60.038496684088585,2025-09-18 16h40.37.984109 +0200,
3,0,3,,,,,,space,1.4667563000002701,None,None,3,1.0316368999992847,0.14549070000066422,None,0,0,0,0,,,,,1,0,1,0,,,,,3,0,3,0,670.8145550999998,,,,,,,,,,,,,,,,,,,,,,,,,,,,,,,,,,,,,,,,,,,,,,,,,,,,,,,,,,Zahnpasta,2.4552,670.7995014000007,670.8000224000007,670.8001216000011,670.8145550999998,673.2810164000002,673.2655575000008,673.2699879000011,673.2810164000002,673.2810164000002,673.2810164000002,673.2810164000002,675.2654757,3,1.0316368999992847,0.14549070000066422,None,675.2810114000004,675.2810114000004,675.2810114000004,675.2810114000004,,,,,,,,,,,,,,,,,,,,,5900,1,2025-09-18_16h39.54.272,sm,2024.2.4,60.038496684088585,2025-09-18 16h40.37.984109 +0200,
4,0,4,,,,,,space,1.4667563000002701,None,None,3,1.0064916999999696,0.15600830000039423,None,0,0,0,0,,,,,1,0,1,0,,,,,4,0,4,0,675.2810114000004,,,,,,,,,,,,,,,,,,,,,,,,,,,,,,,,,,,,,,,,,,,,,,,,,,,,,,,,,,Schnürsenkel,2.4732,675.2659765000008,675.2665421000002,675.2666483000012,675.2810114000004,677.764020300001,677.7485747999999,677.7540872999998,677.764020300001,677.764020300001,677.764020300001,677.764020300001,679.7486545000011,3,1.0064916999999696,0.15600830000039423,None,679.7641748000005,679.7641748000005,679.7641748000005,679.7641748000005,,,,,,,,,,,,,,,,,,,,,5900,1,2025-09-18_16h39.54.272,sm,2024.2.4,60.038496684088585,2025-09-18 16h40.37.984109 +0200,
5,0,5,,,,,,space,1.4667563000002701,None,None,3,1.3639683999990666,0.20248150000043097,None,0,0,0,0,,,,,1,0,1,0,,,,,5,0,5,0,679.7641748000005,,,,,,,,,,,,,,,,,,,,,,,,,,,,,,,,,,,,,,,,,,,,,,,,,,,,,,,,,,Schlamm,2.62,679.7491616999996,679.7499138000003,679.7500192000007,679.7641748000005,682.396991900001,682.3819217,682.3856006000005,682.396991900001,682.396991900001,682.396991900001,682.396991900001,684.3815528000014,3,1.3639683999990666,0.20248150000043097,None,684.3971882000005,684.3971882000005,684.3971882000005,684.3971882000005,,,,,,,,,,,,,,,,,,,,,5900,1,2025-09-18_16h39.54.272,sm,2024.2.4,60.038496684088585,2025-09-18 16h40.37.984109 +0200,
6,0,6,,,,,,space,1.4667563000002701,None,None,None,,,None,0,0,0,0,,,,,1,0,1,0,,,,,6,0,6,0,684.3971882000005,,,,,,,,,,,,,,,,,,,,,,,,,,,,,,,,,,,,,,,,,,,,,,,,,,,,,,,,,,Gast,2.4505,684.3820582000008,684.382586400001,684.382705,684.3971882000005,686.8468595000013,686.8313276000008,686.8348808999999,686.8468595000013,686.8468595000013,686.8468595000013,686.8468595000013,688.8313116000008,None,,,None,688.8468506000008,688.8468506000008,688.8468506000008,688.8468506000008,,,,,,,,,,,,,,,,,,,,,5900,1,2025-09-18_16h39.54.272,sm,2024.2.4,60.038496684088585,2025-09-18 16h40.37.984109 +0200,
7,0,7,,,,,,space,1.4667563000002701,None,None,None,,,None,0,0,0,0,,,,,1,0,1,0,,,,,7,0,7,0,688.8468506000008,,,,,,,,,,,,,,,,,,,,,,,,,,,,,,,,,,,,,,,,,,,,,,,,,,,,,,,,,,Schleim,5.5483,688.8317583000007,688.8322492999996,688.8323479999999,688.8468506000008,694.3969232,694.3808741000012,694.3851605,694.3969232,694.3969232,694.3969232,694.3969232,696.3808386000001,None,,,None,696.3965316000013,696.3965316000013,696.3965316000013,696.3965316000013,,,,,,,,,,,,,,,,,,,,,5900,1,2025-09-18_16h39.54.272,sm,2024.2.4,60.038496684088585,2025-09-18 16h40.37.984109 +0200,
8,0,8,,,,,,space,1.4667563000002701,None,None,3,0.8934253999996145,0.20758670000031998,None,0,0,0,0,,,,,1,0,1,0,,,,,8,0,8,0,696.3965316000013,,,,,,,,,,,,,,,,,,,,,,,,,,,,,,,,,,,,,,,,,,,,,,,,,,,,,,,,,,Brise,2.1899,696.3813136000008,696.3818291999996,696.3819340000009,696.3965316000013,698.5961258999996,698.581002500001,698.5846890000012,698.5961258999996,698.5961258999996,698.5961258999996,698.5961258999996,700.5807067000005,3,0.8934253999996145,0.20758670000031998,None,700.5960972000012,700.5960972000012,700.5960972000012,700.5960972000012,,,,,,,,,,,,,,,,,,,,,5900,1,2025-09-18_16h39.54.272,sm,2024.2.4,60.038496684088585,2025-09-18 16h40.37.984109 +0200,
9,0,9,,,,,,space,1.4667563000002701,None,None,3,0.6455777999999555,0.15018889999919338,None,0,0,0,0,,,,,1,0,1,0,,,,,9,0,9,0,700.5960972000012,,,,,,,,,,,,,,,,,,,,,,,,,,,,,,,,,,,,,,,,,,,,,,,,,,,,,,,,,,Ordner,2.3398,700.5812134999996,700.5817327000004,700.5818357000007,700.5960972000012,702.9458425000012,702.9301773000007,702.9367553000011,702.9458425000012,702.9458425000012,702.9458425000012,702.9458425000012,704.9305889000007,3,0.6455777999999555,0.15018889999919338,None,704.9459411999997,704.9459411999997,704.9459411999997,704.9459411999997,,,,,,,,,,,,,,,,,,,,,5900,1,2025-09-18_16h39.54.272,sm,2024.2.4,60.038496684088585,2025-09-18 16h40.37.984109 +0200,
10,0,10,,,,,,space,1.4667563000002701,None,None,3,1.1040076000008412,0.26862230000006093,None,0,0,0,0,,,,,1,0,1,0,,,,,10,0,10,0,704.9459411999997,,,,,,,,,,,,,,,,,,,,,,,,,,,,,,,,,,,,,,,,,,,,,,,,,,,,,,,,,,Kappe,4.0992,704.9310917000003,704.9316033000014,704.9317068,704.9459411999997,709.0455457000007,709.0301231000012,709.0344142000013,709.0455457000007,709.0455457000007,709.0455457000007,709.0455457000007,711.0298201000005,3,1.1040076000008412,0.26862230000006093,None,711.0454360000003,711.0454360000003,711.0454360000003,711.0454360000003,,,,,,,,,,,,,,,,,,,,,5900,1,2025-09-18_16h39.54.272,sm,2024.2.4,60.038496684088585,2025-09-18 16h40.37.984109 +0200,
11,0,11,,,,,,space,1.4667563000002701,None,None,3,1.0149947999998403,0.20038719999865862,None,0,0,0,0,,,,,1,0,1,0,,,,,11,0,11,0,711.0454360000003,,,,,,,,,,,,,,,,,,,,,,,,,,,,,,,,,,,,,,,,,,,,,,,,,,,,,,,,,,Tisch,2.7809,711.0302900000006,711.030923100001,711.0310231000003,711.0454360000003,713.8287818000008,713.8133764000013,713.8172950999997,713.8287818000008,713.8287818000008,713.8287818000008,713.8287818000008,715.8131168,3,1.0149947999998403,0.20038719999865862,None,715.8287221999999,715.8287221999999,715.8287221999999,715.8287221999999,,,,,,,,,,,,,,,,,,,,,5900,1,2025-09-18_16h39.54.272,sm,2024.2.4,60.038496684088585,2025-09-18 16h40.37.984109 +0200,
12,0,12,,,,,,space,1.4667563000002701,None,None,None,,,None,0,0,0,0,,,,,1,0,1,0,,,,,12,0,12,0,715.8287221999999,,,,,,,,,,,,,,,,,,,,,,,,,,,,,,,,,,,,,,,,,,,,,,,,,,,,,,,,,,Publikum,2.2202,715.8136125000001,715.8143682000009,715.8144747000006,715.8287221999999,718.0616628000007,718.0460663000013,718.0495425000008,718.0616628000007,718.0616628000007,718.0616628000007,718.0616628000007,720.0460280999996,None,,,None,720.062302100001,720.062302100001,720.062302100001,720.062302100001,,,,,,,,,,,,,,,,,,,,,5900,1,2025-09-18_16h39.54.272,sm,2024.2.4,60.038496684088585,2025-09-18 16h40.37.984109 +0200,
13,0,13,,,,,,space,1.4667563000002701,None,None,None,,,None,0,0,0,0,,,,,1,0,1,0,,,,,13,0,13,0,720.062302100001,,,,,,,,,,,,,,,,,,,,,,,,,,,,,,,,,,,,,,,,,,,,,,,,,,,,,,,,,,Blut,2.4935,720.0464683999999,720.0470934000004,720.0471923000005,720.062302100001,722.5615921999997,722.5460187999997,722.5495002000007,722.5615921999997,722.5615921999997,722.5615921999997,722.5615921999997,724.5459045999996,None,,,None,724.5615358000014,724.5615358000014,724.5615358000014,724.5615358000014,,,,,,,,,,,,,,,,,,,,,5900,1,2025-09-18_16h39.54.272,sm,2024.2.4,60.038496684088585,2025-09-18 16h40.37.984109 +0200,
14,0,14,,,,,,space,1.4667563000002701,None,None,3,0.6681955000003654,0.2067337000007683,None,0,0,0,0,,,,,1,0,1,0,,,,,14,0,14,0,724.5615358000014,,,,,,,,,,,,,,,,,,,,,,,,,,,,,,,,,,,,,,,,,,,,,,,,,,,,,,,,,,Shampoo,2.5142,724.5463894000004,724.5469970000013,724.5471052000012,724.5615358000014,727.0778682,727.0625928000009,727.0668954000012,727.0778682,727.0778682,727.0778682,727.0778682,729.0626118,3,0.6681955000003654,0.2067337000007683,None,729.0783446000005,729.0783446000005,729.0783446000005,729.0783446000005,,,,,,,,,,,,,,,,,,,,,5900,1,2025-09-18_16h39.54.272,sm,2024.2.4,60.038496684088585,2025-09-18 16h40.37.984109 +0200,
15,0,15,,,,,,space,1.4667563000002701,None,None,3,0.9751572000004671,0.154168999999456,None,0,0,0,0,,,,,1,0,1,0,,,,,15,0,15,0,729.0783446000005,,,,,,,,,,,,,,,,,,,,,,,,,,,,,,,,,,,,,,,,,,,,,,,,,,,,,,,,,,Lokomotive,4.1805,729.0631505000001,729.0637968999999,729.0639632000002,729.0783446000005,733.260880400001,733.2453420000002,733.2496265999998,733.260880400001,733.260880400001,733.260880400001,733.260880400001,735.2452429000004,3,0.9751572000004671,0.154168999999456,None,735.2610287999996,735.2610287999996,735.2610287999996,735.2610287999996,,,,,,,,,,,,,,,,,,,,,5900,1,2025-09-18_16h39.54.272,sm,2024.2.4,60.038496684088585,2025-09-18 16h40.37.984109 +0200,
16,0,16,,,,,,space,1.4667563000002701,None,None,None,,,None,0,0,0,0,,,,,1,0,1,0,,,,,16,0,16,0,735.2610287999996,,,,,,,,,,,,,,,,,,,,,,,,,,,,,,,,,,,,,,,,,,,,,,,,,,,,,,,,,,Familie,2.5494,735.2457353999998,735.2463746000012,735.2464813000006,735.2610287999996,737.8105777000001,737.7950077000005,737.799002400001,737.8105777000001,737.8105777000001,737.8105777000001,737.8105777000001,739.7951778000006,None,,,None,739.8107008000006,739.8107008000006,739.8107008000006,739.8107008000006,,,,,,,,,,,,,,,,,,,,,5900,1,2025-09-18_16h39.54.272,sm,2024.2.4,60.038496684088585,2025-09-18 16h40.37.984109 +0200,
17,0,17,,,,,,space,1.4667563000002701,None,None,3,0.7841262999991159,0.2022778999998991,None,0,0,0,0,,,,,1,0,1,0,,,,,17,0,17,0,739.8107008000006,,,,,,,,,,,,,,,,,,,,,,,,,,,,,,,,,,,,,,,,,,,,,,,,,,,,,,,,,,Album,2.0256,739.7956549999999,739.7961778999997,739.796282700001,739.8107008000006,741.8437403999997,741.8281592000003,741.8329341000008,741.8437403999997,741.8437403999997,741.8437403999997,741.8437403999997,743.8283561000007,3,0.7841262999991159,0.2022778999998991,None,743.8439119000013,743.8439119000013,743.8439119000013,743.8439119000013,,,,,,,,,,,,,,,,,,,,,5900,1,2025-09-18_16h39.54.272,sm,2024.2.4,60.038496684088585,2025-09-18 16h40.37.984109 +0200,
18,0,18,,,,,,space,1.4667563000002701,None,None,3,0.828644200000781,0.15868349999982456,None,0,0,0,0,,,,,1,0,1,0,,,,,18,0,18,0,743.8439119000013,,,,,,,,,,,,,,,,,,,,,,,,,,,,,,,,,,,,,,,,,,,,,,,,,,,,,,,,,,Schwung,2.2306,743.8288613000004,743.8293752999998,743.829480800001,743.8439119000013,746.0764687999999,746.0610667000001,746.0646491999996,746.0764687999999,746.0764687999999,746.0764687999999,746.0764687999999,748.061204900001,3,0.828644200000781,0.15868349999982456,None,748.077303600001,748.077303600001,748.077303600001,748.077303600001,,,,,,,,,,,,,,,,,,,,,5900,1,2025-09-18_16h39.54.272,sm,2024.2.4,60.038496684088585,2025-09-18 16h40.37.984109 +0200,
19,0,19,,,,,,space,1.4667563000002701,None,None,3,0.6862543999995978,0.19954069999948842,None,0,0,0,0,,,,,1,0,1,0,,,,,19,0,19,0,748.077303600001,,,,,,,,,,,,,,,,,,,,,,,,,,,,,,,,,,,,,,,,,,,,,,,,,,,,,,,,,,Weinen,2.0136,748.0617125999997,748.0622187000008,748.0623240000004,748.077303600001,750.0934295000006,750.0777561000014,750.0817342999999,750.0934295000006,750.0934295000006,750.0934295000006,750.0934295000006,752.077657400001,3,0.6862543999995978,0.19954069999948842,None,752.0932677000001,752.0932677000001,752.0932677000001,752.0932677000001,,,,,,,,,,,,,,,,,,,,,5900,1,2025-09-18_16h39.54.272,sm,2024.2.4,60.038496684088585,2025-09-18 16h40.37.984109 +0200,
20,0,20,,,,,,space,1.4667563000002701,None,None,3,0.9087641000005533,0.16015609999885783,None,0,0,0,0,,,,,1,0,1,0,,,,,20,0,20,0,752.0932677000001,,,,,,,,,,,,,,,,,,,,,,,,,,,,,,,,,,,,,,,,,,,,,,,,,,,,,,,,,,Teller,3.5845,752.0781728000002,752.0788279000008,752.0789380000006,752.0932677000001,755.6931834999996,755.6772818000009,755.6813839000006,755.6931834999996,755.6931834999996,755.6931834999996,755.6931834999996,757.6773059999996,3,0.9087641000005533,0.16015609999885783,None,757.6929940000009,757.6929940000009,757.6929940000009,757.6929940000009,,,,,,,,,,,,,,,,,,,,,5900,1,2025-09-18_16h39.54.272,sm,2024.2.4,60.038496684088585,2025-09-18 16h40.37.984109 +0200,
21,0,21,,,,,,space,1.4667563000002701,None,None,3,0.729157199999463,0.18711120000079973,None,0,0,0,0,,,,,1,0,1,0,,,,,21,0,21,0,757.6929940000009,,,,,,,,,,,,,,,,,,,,,,,,,,,,,,,,,,,,,,,,,,,,,,,,,,,,,,,,,,Nebel,3.488,757.6778356000013,757.6783506000011,757.6784562000012,757.6929940000009,761.1931077000008,761.1769851000008,761.1809444999999,761.1931077000008,761.1931077000008,761.1931077000008,761.1931077000008,763.1769356000004,3,0.729157199999463,0.18711120000079973,None,763.1925220000012,763.1925220000012,763.1925220000012,763.1925220000012,,,,,,,,,,,,,,,,,,,,,5900,1,2025-09-18_16h39.54.272,sm,2024.2.4,60.038496684088585,2025-09-18 16h40.37.984109 +0200,
22,0,22,,,,,,space,1.4667563000002701,None,None,3,0.6856956999999966,0.3434833000010258,None,0,0,0,0,,,,,1,0,1,0,,,,,22,0,22,0,763.1925220000012,,,,,,,,,,,,,,,,,,,,,,,,,,,,,,,,,,,,,,,,,,,,,,,,,,,,,,,,,,Skizze,2.9377,763.177444500001,763.1779634000013,763.178075400001,763.1925220000012,766.1427669000004,766.126880400001,766.1309216000009,766.1427669000004,766.1427669000004,766.1427669000004,766.1427669000004,768.1266575999998,3,0.6856956999999966,0.3434833000010258,None,768.1425164000011,768.1425164000011,768.1425164000011,768.1425164000011,,,,,,,,,,,,,,,,,,,,,5900,1,2025-09-18_16h39.54.272,sm,2024.2.4,60.038496684088585,2025-09-18 16h40.37.984109 +0200,
23,0,23,,,,,,space,1.4667563000002701,None,None,3,1.21218989999943,0.1835305000004155,None,0,0,0,0,,,,,1,0,1,0,,,,,23,0,23,0,768.1425164000011,,,,,,,,,,,,,,,,,,,,,,,,,,,,,,,,,,,,,,,,,,,,,,,,,,,,,,,,,,Zunge,2.0507,768.1271316000002,768.1277707000008,768.1278713000011,768.1425164000011,770.2088760000006,770.1932293000009,770.1971900999997,770.2088760000006,770.2088760000006,770.2088760000006,770.2088760000006,772.1931416999996,3,1.21218989999943,0.1835305000004155,None,772.2087781999999,772.2087781999999,772.2087781999999,772.2087781999999,,,,,,,,,,,,,,,,,,,,,5900,1,2025-09-18_16h39.54.272,sm,2024.2.4,60.038496684088585,2025-09-18 16h40.37.984109 +0200,
24,0,24,,,,,,space,1.4667563000002701,None,None,None,,,None,0,0,0,0,,,,,1,0,1,0,,,,,24,0,24,0,772.2087781999999,,,,,,,,,,,,,,,,,,,,,,,,,,,,,,,,,,,,,,,,,,,,,,,,,,,,,,,,,,Gruppe,2.3949,772.1936464999999,772.1943284999998,772.1944371000009,772.2087781999999,774.6085295000012,774.592802000001,774.5972787999999,774.6085295000012,774.6085295000012,774.6085295000012,774.6085295000012,776.592819200001,None,,,None,776.6086004999997,776.6086004999997,776.6086004999997,776.6086004999997,,,,,,,,,,,,,,,,,,,,,5900,1,2025-09-18_16h39.54.272,sm,2024.2.4,60.038496684088585,2025-09-18 16h40.37.984109 +0200,
25,0,25,,,,,,space,1.4667563000002701,None,None,3,0.7661540999997669,0.19555430000036722,None,0,0,0,0,,,,,1,0,1,0,,,,,25,0,25,0,776.6086004999997,,,,,,,,,,,,,,,,,,,,,,,,,,,,,,,,,,,,,,,,,,,,,,,,,,,,,,,,,,Lava,3.0938,776.5932981000005,776.5938243,776.5939288999998,776.6086004999997,779.7081820000003,779.6925779000012,779.6960048000001,779.7081820000003,779.7081820000003,779.7081820000003,779.7081820000003,781.6926251000004,3,0.7661540999997669,0.19555430000036722,None,781.7080922000005,781.7080922000005,781.7080922000005,781.7080922000005,,,,,,,,,,,,,,,,,,,,,5900,1,2025-09-18_16h39.54.272,sm,2024.2.4,60.038496684088585,2025-09-18 16h40.37.984109 +0200,
26,0,26,,,,,,space,1.4667563000002701,None,None,3,1.0822130000015022,0.1874430999996548,None,0,0,0,0,,,,,1,0,1,0,,,,,26,0,26,0,781.7080922000005,,,,,,,,,,,,,,,,,,,,,,,,,,,,,,,,,,,,,,,,,,,,,,,,,,,,,,,,,,Nudeln,3.027,781.693130900001,781.6936454000006,781.6937488000003,781.7080922000005,784.7411563000005,784.7261532000011,784.7303995000002,784.7411563000005,784.7411563000005,784.7411563000005,784.7411563000005,786.7255837000012,3,1.0822130000015022,0.1874430999996548,None,786.7411078000005,786.7411078000005,786.7411078000005,786.7411078000005,,,,,,,,,,,,,,,,,,,,,5900,1,2025-09-18_16h39.54.272,sm,2024.2.4,60.038496684088585,2025-09-18 16h40.37.984109 +0200,
27,0,27,,,,,,space,1.4667563000002701,None,None,None,,,None,0,0,0,0,,,,,1,0,1,0,,,,,27,0,27,0,786.7411078000005,,,,,,,,,,,,,,,,,,,,,,,,,,,,,,,,,,,,,,,,,,,,,,,,,,,,,,,,,,Eltern,3.8189,786.7260311000009,786.7266474999997,786.7267389999997,786.7411078000005,790.5740844000011,790.5587797999997,790.5625104999999,790.5740844000011,790.5740844000011,790.5740844000011,790.5740844000011,792.5585521000012,None,,,None,792.5746844000005,792.5746844000005,792.5746844000005,792.5746844000005,,,,,,,,,,,,,,,,,,,,,5900,1,2025-09-18_16h39.54.272,sm,2024.2.4,60.038496684088585,2025-09-18 16h40.37.984109 +0200,
28,0,28,,,,,,space,1.4667563000002701,None,None,3,1.4775653000015154,0.1920786999999109,None,0,0,0,0,,,,,1,0,1,0,,,,,28,0,28,0,792.5746844000005,,,,,,,,,,,,,,,,,,,,,,,,,,,,,,,,,,,,,,,,,,,,,,,,,,,,,,,,,,Bücher,3.9591,792.5590298999996,792.5595606000006,792.5596655999998,792.5746844000005,796.540534400001,796.5249748000006,796.5286271000004,796.540534400001,796.540534400001,796.540534400001,796.540534400001,798.5248869000006,3,1.4775653000015154,0.1920786999999109,None,798.5405750999998,798.5405750999998,798.5405750999998,798.5405750999998,,,,,,,,,,,,,,,,,,,,,5900,1,2025-09-18_16h39.54.272,sm,2024.2.4,60.038496684088585,2025-09-18 16h40.37.984109 +0200,
29,0,29,,,,,,space,1.4667563000002701,None,None,3,1.3801077999996778,0.27765350000117905,None,0,0,0,0,,,,,1,0,1,0,,,,,29,0,29,0,798.5405750999998,,,,,,,,,,,,,,,,,,,,,,,,,,,,,,,,,,,,,,,,,,,,,,,,,,,,,,,,,,Poesie,2.6982,798.5253601000004,798.5260070000004,798.5261061000001,798.5405750999998,801.2403195000006,801.2244959,801.228031300001,801.2403195000006,801.2403195000006,801.2403195000006,801.2403195000006,803.2246886000012,3,1.3801077999996778,0.27765350000117905,None,803.2402904999999,803.2402904999999,803.2402904999999,803.2402904999999,,,,,,,,,,,,,,,,,,,,,5900,1,2025-09-18_16h39.54.272,sm,2024.2.4,60.038496684088585,2025-09-18 16h40.37.984109 +0200,
30,0,30,,,,,,space,1.4667563000002701,None,None,3,0.8507692999992287,0.1622893000003387,None,0,0,0,0,,,,,1,0,1,0,,,,,30,0,30,0,803.2402904999999,,,,,,,,,,,,,,,,,,,,,,,,,,,,,,,,,,,,,,,,,,,,,,,,,,,,,,,,,,Dachboden,3.9843,803.2251612,803.2256766999999,803.2257750999997,803.2402904999999,807.2401688999998,807.2248582000011,807.2291158999997,807.2401688999998,807.2401688999998,807.2401688999998,807.2401688999998,809.2244284000008,3,0.8507692999992287,0.1622893000003387,None,809.2404497000007,809.2404497000007,809.2404497000007,809.2404497000007,,,,,,,,,,,,,,,,,,,,,5900,1,2025-09-18_16h39.54.272,sm,2024.2.4,60.038496684088585,2025-09-18 16h40.37.984109 +0200,
31,0,31,,,,,,space,1.4667563000002701,None,None,3,0.9430354999985866,0.15563050000127987,None,0,0,0,0,,,,,1,0,1,0,,,,,31,0,31,0,809.2404497000007,,,,,,,,,,,,,,,,,,,,,,,,,,,,,,,,,,,,,,,,,,,,,,,,,,,,,,,,,,Winter,2.0629,809.2249330000013,809.2254694000003,809.2255748000007,809.2404497000007,811.306351700001,811.2905859000002,811.2961044000003,811.306351700001,811.306351700001,811.306351700001,811.306351700001,813.2909323000003,3,0.9430354999985866,0.15563050000127987,None,813.3064646000003,813.3064646000003,813.3064646000003,813.3064646000003,,,,,,,,,,,,,,,,,,,,,5900,1,2025-09-18_16h39.54.272,sm,2024.2.4,60.038496684088585,2025-09-18 16h40.37.984109 +0200,
32,0,32,,,,,,space,1.4667563000002701,None,None,3,1.0639929999997548,0.2104018999998516,None,0,0,0,0,,,,,1,0,1,0,,,,,32,0,32,0,813.3064646000003,,,,,,,,,,,,,,,,,,,,,,,,,,,,,,,,,,,,,,,,,,,,,,,,,,,,,,,,,,Telefon,3.0829,813.2914435000002,813.2919632000012,813.2920680999996,813.3064646000003,816.3895251000013,816.3736478999999,816.3769121000005,816.3895251000013,816.3895251000013,816.3895251000013,816.3895251000013,818.3740689000006,3,1.0639929999997548,0.2104018999998516,None,818.3894958000001,818.3894958000001,818.3894958000001,818.3894958000001,,,,,,,,,,,,,,,,,,,,,5900,1,2025-09-18_16h39.54.272,sm,2024.2.4,60.038496684088585,2025-09-18 16h40.37.984109 +0200,
33,0,33,,,,,,space,1.4667563000002701,None,None,3,0.6367332000008901,0.33015879999948083,None,0,0,0,0,,,,,1,0,1,0,,,,,33,0,33,0,818.3894958000001,,,,,,,,,,,,,,,,,,,,,,,,,,,,,,,,,,,,,,,,,,,,,,,,,,,,,,,,,,Karton,3.2951,818.374577300001,818.3750994000002,818.3752072000007,818.3894958000001,821.6895021,821.6731937000004,821.6766753000011,821.6895021,821.6895021,821.6895021,821.6895021,823.6737484000005,3,0.6367332000008901,0.33015879999948083,None,823.6891262000008,823.6891262000008,823.6891262000008,823.6891262000008,,,,,,,,,,,,,,,,,,,,,5900,1,2025-09-18_16h39.54.272,sm,2024.2.4,60.038496684088585,2025-09-18 16h40.37.984109 +0200,
34,0,34,,,,,,space,1.4667563000002701,None,None,3,0.7439598999990267,0.1751592000000528,None,0,0,0,0,,,,,1,0,1,0,,,,,34,0,34,0,823.6891262000008,,,,,,,,,,,,,,,,,,,,,,,,,,,,,,,,,,,,,,,,,,,,,,,,,,,,,,,,,,Stein,3.3824,823.6742541000003,823.6747721000011,823.6748751000014,823.6891262000008,827.0719755000009,827.0565684000012,827.0604641000009,827.0719755000009,827.0719755000009,827.0719755000009,827.0719755000009,829.0565323999999,3,0.7439598999990267,0.1751592000000528,None,829.0720858000004,829.0720858000004,829.0720858000004,829.0720858000004,,,,,,,,,,,,,,,,,,,,,5900,1,2025-09-18_16h39.54.272,sm,2024.2.4,60.038496684088585,2025-09-18 16h40.37.984109 +0200,
35,0,35,,,,,,space,1.4667563000002701,None,None,None,,,None,0,0,0,0,,,,,1,0,1,0,,,,,35,0,35,0,829.0720858000004,,,,,,,,,,,,,,,,,,,,,,,,,,,,,,,,,,,,,,,,,,,,,,,,,,,,,,,,,,Präsident,3.3888,829.0570426000013,829.0576036000002,829.0577128000004,829.0720858000004,832.4715713000005,832.4561078000006,832.4599507000003,832.4715713000005,832.4715713000005,832.4715713000005,832.4715713000005,834.4561837000001,None,,,None,834.4718434000006,834.4718434000006,834.4718434000006,834.4718434000006,,,,,,,,,,,,,,,,,,,,,5900,1,2025-09-18_16h39.54.272,sm,2024.2.4,60.038496684088585,2025-09-18 16h40.37.984109 +0200,
36,0,36,,,,,,space,1.4667563000002701,None,None,3,0.7876112999983889,0.19049630000154139,None,0,0,0,0,,,,,1,0,1,0,,,,,36,0,36,0,834.4718434000006,,,,,,,,,,,,,,,,,,,,,,,,,,,,,,,,,,,,,,,,,,,,,,,,,,,,,,,,,,Gipfel,2.8624,834.4566658000003,834.4573196000001,834.4574224999997,834.4718434000006,837.338351800001,837.322504400001,837.326607500001,837.338351800001,837.338351800001,837.338351800001,837.338351800001,839.3222987999998,3,0.7876112999983889,0.19049630000154139,None,839.3379636999998,839.3379636999998,839.3379636999998,839.3379636999998,,,,,,,,,,,,,,,,,,,,,5900,1,2025-09-18_16h39.54.272,sm,2024.2.4,60.038496684088585,2025-09-18 16h40.37.984109 +0200,
37,0,37,,,,,,space,1.4667563000002701,None,None,3,0.6608103999988089,0.16003380000074685,None,0,0,0,0,,,,,1,0,1,0,,,,,37,0,37,0,839.3379636999998,,,,,,,,,,,,,,,,,,,,,,,,,,,,,,,,,,,,,,,,,,,,,,,,,,,,,,,,,,Fiktion,3.2772,839.3227186000004,839.3231890999996,839.3232800000005,839.3379636999998,842.6210451999996,842.6057274000013,842.6108863999998,842.6210451999996,842.6210451999996,842.6210451999996,842.6210451999996,844.6056368999998,3,0.6608103999988089,0.16003380000074685,None,844.6213014000004,844.6213014000004,844.6213014000004,844.6213014000004,,,,,,,,,,,,,,,,,,,,,5900,1,2025-09-18_16h39.54.272,sm,2024.2.4,60.038496684088585,2025-09-18 16h40.37.984109 +0200,
38,0,38,,,,,,space,1.4667563000002701,None,None,3,1.3719614000001457,0.2018164999990404,None,0,0,0,0,,,,,1,0,1,0,,,,,38,0,38,0,844.6213014000004,,,,,,,,,,,,,,,,,,,,,,,,,,,,,,,,,,,,,,,,,,,,,,,,,,,,,,,,,,Raum,2.9443,844.6061107000005,844.6066091000012,844.6067122000004,844.6213014000004,847.5709222000005,847.5558133000013,847.5591280999997,847.5709222000005,847.5709222000005,847.5709222000005,847.5709222000005,849.5553447000002,3,1.3719614000001457,0.2018164999990404,None,849.5709630000001,849.5709630000001,849.5709630000001,849.5709630000001,,,,,,,,,,,,,,,,,,,,,5900,1,2025-09-18_16h39.54.272,sm,2024.2.4,60.038496684088585,2025-09-18 16h40.37.984109 +0200,
39,0,39,,,,,,space,1.4667563000002701,None,None,3,1.098974000000453,0.2805488999983936,None,0,0,0,0,,,,,1,0,1,0,,,,,39,0,39,0,849.5709630000001,,,,,,,,,,,,,,,,,,,,,,,,,,,,,,,,,,,,,,,,,,,,,,,,,,,,,,,,,,Schwarz,2.4153,849.5558548999998,849.5563789999997,849.5564840999996,849.5709630000001,851.9870377999996,851.9716234999996,851.9750832999998,851.9870377999996,851.9870377999996,851.9870377999996,851.9870377999996,853.9718494000008,3,1.098974000000453,0.2805488999983936,None,853.9874550000004,853.9874550000004,853.9874550000004,853.9874550000004,,,,,,,,,,,,,,,,,,,,,5900,1,2025-09-18_16h39.54.272,sm,2024.2.4,60.038496684088585,2025-09-18 16h40.37.984109 +0200,
40,0,40,,,,,,space,1.4667563000002701,None,None,None,,,None,0,0,0,0,,,,,1,0,1,0,,,,,40,0,40,0,853.9874550000004,,,,,,,,,,,,,,,,,,,,,,,,,,,,,,,,,,,,,,,,,,,,,,,,,,,,,,,,,,Ozean,2.0075,853.9723537999998,853.9729967000003,853.9731025000001,853.9874550000004,856.0037412000001,855.9880408000008,855.9916480000011,856.0037412000001,856.0037412000001,856.0037412000001,856.0037412000001,857.9881373000007,None,,,None,858.0038129000004,858.0038129000004,858.0038129000004,858.0038129000004,,,,,,,,,,,,,,,,,,,,,5900,1,2025-09-18_16h39.54.272,sm,2024.2.4,60.038496684088585,2025-09-18 16h40.37.984109 +0200,
41,0,41,,,,,,space,1.4667563000002701,None,None,3,1.3551338000015676,0.20685729999968316,None,0,0,0,0,,,,,1,0,1,0,,,,,41,0,41,0,858.0038129000004,,,,,,,,,,,,,,,,,,,,,,,,,,,,,,,,,,,,,,,,,,,,,,,,,,,,,,,,,,Glück,5.2303,857.9886115999998,857.9892934,857.9894015999998,858.0038129000004,863.2367203000013,863.2210204000003,863.2242286000001,863.2367203000013,863.2367203000013,863.2367203000013,863.2367203000013,865.2212271000008,3,1.3551338000015676,0.20685729999968316,None,865.2372723000008,865.2372723000008,865.2372723000008,865.2372723000008,,,,,,,,,,,,,,,,,,,,,5900,1,2025-09-18_16h39.54.272,sm,2024.2.4,60.038496684088585,2025-09-18 16h40.37.984109 +0200,
42,0,42,,,,,,space,1.4667563000002701,None,None,3,0.7282211000001553,0.17609499999889522,None,0,0,0,0,,,,,1,0,1,0,,,,,42,0,42,0,865.2372723000008,,,,,,,,,,,,,,,,,,,,,,,,,,,,,,,,,,,,,,,,,,,,,,,,,,,,,,,,,,Fernseher,3.1826,865.2216772000011,865.2221640999996,865.2222574999996,865.2372723000008,868.4196877000013,868.4040321000011,868.4080450000001,868.4196877000013,868.4196877000013,868.4196877000013,868.4196877000013,870.4042821000003,3,0.7282211000001553,0.17609499999889522,None,870.4197244999996,870.4197244999996,870.4197244999996,870.4197244999996,,,,,,,,,,,,,,,,,,,,,5900,1,2025-09-18_16h39.54.272,sm,2024.2.4,60.038496684088585,2025-09-18 16h40.37.984109 +0200,
43,0,43,,,,,,space,1.4667563000002701,None,None,3,0.9956566999990173,0.31981850000011036,None,0,0,0,0,,,,,1,0,1,0,,,,,43,0,43,0,870.4197244999996,,,,,,,,,,,,,,,,,,,,,,,,,,,,,,,,,,,,,,,,,,,,,,,,,,,,,,,,,,Krieg,3.9565,870.4048085000013,870.4054202999996,870.4055914,870.4197244999996,874.3860146000006,874.3705597000007,874.3757493000012,874.3860146000006,874.3860146000006,874.3860146000006,874.3860146000006,876.3703212,3,0.9956566999990173,0.31981850000011036,None,876.3860166000013,876.3860166000013,876.3860166000013,876.3860166000013,,,,,,,,,,,,,,,,,,,,,5900,1,2025-09-18_16h39.54.272,sm,2024.2.4,60.038496684088585,2025-09-18 16h40.37.984109 +0200,
44,0,44,,,,,,space,1.4667563000002701,None,None,None,,,None,0,0,0,0,,,,,1,0,1,0,,,,,44,0,44,0,876.3860166000013,,,,,,,,,,,,,,,,,,,,,,,,,,,,,,,,,,,,,,,,,,,,,,,,,,,,,,,,,,Elephant,4.7082,876.3707933000005,876.3713029999999,876.3714027000005,876.3860166000013,881.1025171000001,881.0863874000006,881.0894999000011,881.1025171000001,881.1025171000001,881.1025171000001,881.1025171000001,883.0868275000012,None,,,None,883.1025052000005,883.1025052000005,883.1025052000005,883.1025052000005,,,,,,,,,,,,,,,,,,,,,5900,1,2025-09-18_16h39.54.272,sm,2024.2.4,60.038496684088585,2025-09-18 16h40.37.984109 +0200,
45,0,45,,,,,,space,1.4667563000002701,None,None,None,,,None,0,0,0,0,,,,,1,0,1,0,,,,,45,0,45,0,883.1025052000005,,,,,,,,,,,,,,,,,,,,,,,,,,,,,,,,,,,,,,,,,,,,,,,,,,,,,,,,,,Akrobatin,2.4832,883.0872852000011,883.0879295000013,883.0880326000006,883.1025052000005,885.5851039999998,885.5696195,885.573190000001,885.5851039999998,885.5851039999998,885.5851039999998,885.5851039999998,887.5698995000002,None,,,None,887.5855217999997,887.5855217999997,887.5855217999997,887.5855217999997,,,,,,,,,,,,,,,,,,,,,5900,1,2025-09-18_16h39.54.272,sm,2024.2.4,60.038496684088585,2025-09-18 16h40.37.984109 +0200,
46,0,46,,,,,,space,1.4667563000002701,None,None,3,1.14953979999882,0.19877850000011676,None,0,0,0,0,,,,,1,0,1,0,,,,,46,0,46,0,887.5855217999997,,,,,,,,,,,,,,,,,,,,,,,,,,,,,,,,,,,,,,,,,,,,,,,,,,,,,,,,,,Feier,3.102,887.5703723000006,887.5708849000002,887.5709896000008,887.5855217999997,890.7017486000004,890.6861368999998,890.6895198000002,890.7017486000004,890.7017486000004,890.7017486000004,890.7017486000004,892.6862588000004,3,1.14953979999882,0.19877850000011676,None,892.7018540000008,892.7018540000008,892.7018540000008,892.7018540000008,,,,,,,,,,,,,,,,,,,,,5900,1,2025-09-18_16h39.54.272,sm,2024.2.4,60.038496684088585,2025-09-18 16h40.37.984109 +0200,
47,0,47,,,,,,space,1.4667563000002701,None,None,3,1.04211160000159,0.1635828999988007,None,0,0,0,0,,,,,1,0,1,0,,,,,47,0,47,0,892.7018540000008,,,,,,,,,,,,,,,,,,,,,,,,,,,,,,,,,,,,,,,,,,,,,,,,,,,,,,,,,,Spaß,2.8652,892.6867613000013,892.6872844000009,892.6873917000012,892.7018540000008,895.5688518000006,895.5525665000005,895.5559357000002,895.5688518000006,895.5688518000006,895.5688518000006,895.5688518000006,897.5526330000012,3,1.04211160000159,0.1635828999988007,None,897.5680232000013,897.5680232000013,897.5680232000013,897.5680232000013,,,,,,,,,,,,,,,,,,,,,5900,1,2025-09-18_16h39.54.272,sm,2024.2.4,60.038496684088585,2025-09-18 16h40.37.984109 +0200,
48,0,48,,,,,,space,1.4667563000002701,None,None,3,1.235744200001136,0.1919065000001865,None,0,0,0,0,,,,,1,0,1,0,,,,,48,0,48,0,897.5680232000013,,,,,,,,,,,,,,,,,,,,,,,,,,,,,,,,,,,,,,,,,,,,,,,,,,,,,,,,,,Hemd,2.207,897.553141800001,897.5536651000002,897.5537695000003,897.5680232000013,899.7854385999999,899.7688773999998,899.7723060999997,899.7854385999999,899.7854385999999,899.7854385999999,899.7854385999999,901.7688871000009,3,1.235744200001136,0.1919065000001865,None,901.7846487000006,901.7846487000006,901.7846487000006,901.7846487000006,,,,,,,,,,,,,,,,,,,,,5900,1,2025-09-18_16h39.54.272,sm,2024.2.4,60.038496684088585,2025-09-18 16h40.37.984109 +0200,
49,0,49,,,,,,space,1.4667563000002701,None,None,3,0.7818511000004946,0.39887590000034834,None,0,0,0,0,,,,,1,0,1,0,,,,,49,0,49,0,901.7846487000006,,,,,,,,,,,,,,,,,,,,,,,,,,,,,,,,,,,,,,,,,,,,,,,,,,,,,,,,,,Ringe,2.0054,901.7693930000005,901.7699465000005,901.770050000001,901.7846487000006,903.8010181999998,903.7855099999997,903.7904920000001,903.8010181999998,903.8010181999998,903.8010181999998,903.8010181999998,905.7853720000003,3,0.7818511000004946,0.39887590000034834,None,905.8009708000009,905.8009708000009,905.8009708000009,905.8009708000009,,,,,,,,,,,,,,,,,,,,,5900,1,2025-09-18_16h39.54.272,sm,2024.2.4,60.038496684088585,2025-09-18 16h40.37.984109 +0200,
50,0,50,,,,,,space,1.4667563000002701,None,None,None,,,None,0,0,0,0,,,,,1,0,1,0,,,,,50,0,50,0,905.8009708000009,,,,,,,,,,,,,,,,,,,,,,,,,,,,,,,,,,,,,,,,,,,,,,,,,,,,,,,,,,Spion,3.402,905.7858777000001,905.7866276000004,905.7867363000005,905.8009708000009,909.2174880000002,909.2016805000003,909.204901000001,909.2174880000002,909.2174880000002,909.2174880000002,909.2174880000002,911.2018693000009,None,,,None,911.2174498000004,911.2174498000004,911.2174498000004,911.2174498000004,,,,,,,,,,,,,,,,,,,,,5900,1,2025-09-18_16h39.54.272,sm,2024.2.4,60.038496684088585,2025-09-18 16h40.37.984109 +0200,
51,0,51,,,,,,space,1.4667563000002701,None,None,3,1.3972042000004876,0.26797090000036405,None,0,0,0,0,,,,,1,0,1,0,,,,,51,0,51,0,911.2174498000004,,,,,,,,,,,,,,,,,,,,,,,,,,,,,,,,,,,,,,,,,,,,,,,,,,,,,,,,,,Sterne,3.575,911.202350900001,911.2028609000008,911.2029659,911.2174498000004,914.8004514000004,914.7845083000011,914.7878156000006,914.8004514000004,914.8004514000004,914.8004514000004,914.8004514000004,916.7847956000005,3,1.3972042000004876,0.26797090000036405,None,916.8004380000002,916.8004380000002,916.8004380000002,916.8004380000002,,,,,,,,,,,,,,,,,,,,,5900,1,2025-09-18_16h39.54.272,sm,2024.2.4,60.038496684088585,2025-09-18 16h40.37.984109 +0200,
52,0,52,,,,,,space,1.4667563000002701,None,None,3,1.873067299999093,None,None,0,0,0,0,,,,,1,0,1,0,,,,,52,0,52,0,916.8004380000002,,,,,,,,,,,,,,,,,,,,,,,,,,,,,,,,,,,,,,,,,,,,,,,,,,,,,,,,,,Hilfe,3.9614,916.7853109999996,916.7858303000012,916.7859325000009,916.8004380000002,920.7668012000013,920.7511986999998,920.7557780999996,920.7668012000013,920.7668012000013,920.7668012000013,920.7668012000013,922.7514084000013,3,1.873067299999093,None,None,922.7668805000012,922.7668805000012,922.7668805000012,922.7668805000012,,,,,,,,,,,,,,,,,,,,,5900,1,2025-09-18_16h39.54.272,sm,2024.2.4,60.038496684088585,2025-09-18 16h40.37.984109 +0200,
53,0,53,,,,,,space,1.4667563000002701,None,None,None,,,None,0,0,0,0,,,,,1,0,1,0,,,,,53,0,53,0,922.7668805000012,,,,,,,,,,,,,,,,,,,,,,,,,,,,,,,,,,,,,,,,,,,,,,,,,,,,,,,,,,Ei,2.1702,922.7519130000001,922.7524673999997,922.7525713000014,922.7668805000012,924.9498401000001,924.9343077000012,924.937734000001,924.9498401000001,924.9498401000001,924.9498401000001,924.9498401000001,926.9343929000006,None,,,None,926.9498954999999,926.9498954999999,926.9498954999999,926.9498954999999,,,,,,,,,,,,,,,,,,,,,5900,1,2025-09-18_16h39.54.272,sm,2024.2.4,60.038496684088585,2025-09-18 16h40.37.984109 +0200,
54,0,54,,,,,,space,1.4667563000002701,None,None,3,1.4543833000006998,0.1954262999988714,None,0,0,0,0,,,,,1,0,1,0,,,,,54,0,54,0,926.9498954999999,,,,,,,,,,,,,,,,,,,,,,,,,,,,,,,,,,,,,,,,,,,,,,,,,,,,,,,,,,Brille,2.0138,926.9348662000011,926.9353838000006,926.9354875000008,926.9498954999999,928.9663797000012,928.9507095999998,928.9547598999998,928.9663797000012,928.9663797000012,928.9663797000012,928.9663797000012,930.9507810000014,3,1.4543833000006998,0.1954262999988714,None,930.9663378000005,930.9663378000005,930.9663378000005,930.9663378000005,,,,,,,,,,,,,,,,,,,,,5900,1,2025-09-18_16h39.54.272,sm,2024.2.4,60.038496684088585,2025-09-18 16h40.37.984109 +0200,
55,0,55,,,,,,space,1.4667563000002701,None,None,3,1.6320071999998618,None,None,0,0,0,0,,,,,1,0,1,0,,,,,55,0,55,0,930.9663378000005,,,,,,,,,,,,,,,,,,,,,,,,,,,,,,,,,,,,,,,,,,,,,,,,,,,,,,,,,,Geschichte,2.1554,930.951286200001,930.9518282999998,930.9519330000003,930.9663378000005,933.1327242999996,933.1172082000012,933.1214719,933.1327242999996,933.1327242999996,933.1327242999996,933.1327242999996,935.1173583,3,1.6320071999998618,None,None,935.1328733999999,935.1328733999999,935.1328733999999,935.1328733999999,,,,,,,,,,,,,,,,,,,,,5900,1,2025-09-18_16h39.54.272,sm,2024.2.4,60.038496684088585,2025-09-18 16h40.37.984109 +0200,
56,0,56,,,,,,space,1.4667563000002701,None,None,3,0.6194364999992104,0.18434920000072452,None,0,0,0,0,,,,,1,0,1,0,,,,,56,0,56,0,935.1328733999999,,,,,,,,,,,,,,,,,,,,,,,,,,,,,,,,,,,,,,,,,,,,,,,,,,,,,,,,,,Rolle,4.4444,935.1178626000001,935.1184126000007,935.1185169,935.1328733999999,939.5819528000011,939.566427400001,939.5705586000004,939.5819528000011,939.5819528000011,939.5819528000011,939.5819528000011,941.5669433000003,3,0.6194364999992104,0.18434920000072452,None,941.5822313000008,941.5822313000008,941.5822313000008,941.5822313000008,,,,,,,,,,,,,,,,,,,,,5900,1,2025-09-18_16h39.54.272,sm,2024.2.4,60.038496684088585,2025-09-18 16h40.37.984109 +0200,
57,0,57,,,,,,space,1.4667563000002701,None,None,3,0.9361152999990736,0.14666980000038166,None,0,0,0,0,,,,,1,0,1,0,,,,,57,0,57,0,941.5822313000008,,,,,,,,,,,,,,,,,,,,,,,,,,,,,,,,,,,,,,,,,,,,,,,,,,,,,,,,,,Zeigen,3.0719,941.5674462000006,941.5679780999999,941.5680812999999,941.5822313000008,944.6651803000004,944.6497275000002,944.652935600001,944.6651803000004,944.6651803000004,944.6651803000004,944.6651803000004,946.6498650000012,3,0.9361152999990736,0.14666980000038166,None,946.6654445000004,946.6654445000004,946.6654445000004,946.6654445000004,,,,,,,,,,,,,,,,,,,,,5900,1,2025-09-18_16h39.54.272,sm,2024.2.4,60.038496684088585,2025-09-18 16h40.37.984109 +0200,
58,0,58,,,,,,space,1.4667563000002701,None,None,3,0.9305825000010373,0.19049769999946875,None,0,0,0,0,,,,,1,0,1,0,,,,,58,0,58,0,946.6654445000004,,,,,,,,,,,,,,,,,,,,,,,,,,,,,,,,,,,,,,,,,,,,,,,,,,,,,,,,,,Bart,3.1408,946.6503740999997,946.6509027000011,946.6510084000001,946.6654445000004,949.814781000001,949.7993067000007,949.8022704000014,949.814781000001,949.814781000001,949.814781000001,949.814781000001,951.7996438999999,3,0.9305825000010373,0.19049769999946875,None,951.815265700001,951.815265700001,951.815265700001,951.815265700001,,,,,,,,,,,,,,,,,,,,,5900,1,2025-09-18_16h39.54.272,sm,2024.2.4,60.038496684088585,2025-09-18 16h40.37.984109 +0200,
59,0,59,,,,,,space,1.4667563000002701,None,None,3,0.7044476000010036,0.16396549999990384,None,0,0,0,0,,,,,1,0,1,0,,,,,59,0,59,0,951.815265700001,,,,,,,,,,,,,,,,,,,,,,,,,,,,,,,,,,,,,,,,,,,,,,,,,,,,,,,,,,Gras,2.3565,951.8001562000009,951.8006655999998,951.8007717,951.815265700001,954.1814396999998,954.1659980000004,954.1695486000008,954.1814396999998,954.1814396999998,954.1814396999998,954.1814396999998,956.165877200001,3,0.7044476000010036,0.16396549999990384,None,956.1819376000003,956.1819376000003,956.1819376000003,956.1819376000003,,,,,,,,,,,,,,,,,,,,,5900,1,2025-09-18_16h39.54.272,sm,2024.2.4,60.038496684088585,2025-09-18 16h40.37.984109 +0200,
60,0,60,,,,,,space,1.4667563000002701,None,None,3,1.9254557999993267,None,None,0,0,0,0,,,,,1,0,1,0,,,,,60,0,60,0,956.1819376000003,,,,,,,,,,,,,,,,,,,,,,,,,,,,,,,,,,,,,,,,,,,,,,,,,,,,,,,,,,Film,2.1785,956.1663829000008,956.1668917000006,956.1670016999997,956.1819376000003,958.3648861000001,958.3488557000001,958.3524396000012,958.3648861000001,958.3648861000001,958.3648861000001,958.3648861000001,960.3491290000002,3,1.9254557999993267,None,None,960.3645520000009,960.3645520000009,960.3645520000009,960.3645520000009,,,,,,,,,,,,,,,,,,,,,5900,1,2025-09-18_16h39.54.272,sm,2024.2.4,60.038496684088585,2025-09-18 16h40.37.984109 +0200,
61,0,61,,,,,,space,1.4667563000002701,None,None,None,,,None,0,0,0,0,,,,,1,0,1,0,,,,,61,0,61,0,960.3645520000009,,,,,,,,,,,,,,,,,,,,,,,,,,,,,,,,,,,,,,,,,,,,,,,,,,,,,,,,,,Tee,5.9447,960.3496235000002,960.3501749000006,960.3502776000005,960.3645520000009,966.3141034,966.2983291,966.3016642000002,966.3141034,966.3141034,966.3141034,966.3141034,968.2985956000011,None,,,None,968.3140131,968.3140131,968.3140131,968.3140131,,,,,,,,,,,,,,,,,,,,,5900,1,2025-09-18_16h39.54.272,sm,2024.2.4,60.038496684088585,2025-09-18 16h40.37.984109 +0200,
62,0,62,,,,,,space,1.4667563000002701,None,None,None,,,None,0,0,0,0,,,,,1,0,1,0,,,,,62,0,62,0,968.3140131,,,,,,,,,,,,,,,,,,,,,,,,,,,,,,,,,,,,,,,,,,,,,,,,,,,,,,,,,,Student,2.1531,968.2990647000006,968.2995970000011,968.2997007000013,968.3140131,970.4810421000002,970.4648279000012,970.4686987000005,970.4810421000002,970.4810421000002,970.4810421000002,970.4810421000002,972.4650706000011,None,,,None,972.4805974999999,972.4805974999999,972.4805974999999,972.4805974999999,,,,,,,,,,,,,,,,,,,,,5900,1,2025-09-18_16h39.54.272,sm,2024.2.4,60.038496684088585,2025-09-18 16h40.37.984109 +0200,
63,0,63,,,,,,space,1.4667563000002701,None,None,3,1.284037299999909,0.17352159999973082,None,0,0,0,0,,,,,1,0,1,0,,,,,63,0,63,0,972.4805974999999,,,,,,,,,,,,,,,,,,,,,,,,,,,,,,,,,,,,,,,,,,,,,,,,,,,,,,,,,,Nase,2.2922,972.4655442000003,972.4661913,972.4662977000007,972.4805974999999,974.7803731000004,974.7647916000005,974.7692351000005,974.7803731000004,974.7803731000004,974.7803731000004,974.7803731000004,976.7646912,3,1.284037299999909,0.17352159999973082,None,976.7803049000013,976.7803049000013,976.7803049000013,976.7803049000013,,,,,,,,,,,,,,,,,,,,,5900,1,2025-09-18_16h39.54.272,sm,2024.2.4,60.038496684088585,2025-09-18 16h40.37.984109 +0200,
64,0,64,,,,,,space,1.4667563000002701,None,None,3,0.9823463000011543,0.1704578999997466,None,0,0,0,0,,,,,1,0,1,0,,,,,64,0,64,0,976.7803049000013,,,,,,,,,,,,,,,,,,,,,,,,,,,,,,,,,,,,,,,,,,,,,,,,,,,,,,,,,,Dip,2.928,976.7652073000008,976.7657218000004,976.7658259,976.7803049000013,979.7133756000003,979.6977126000002,979.700718600001,979.7133756000003,979.7133756000003,979.7133756000003,979.7133756000003,981.6977638999997,3,0.9823463000011543,0.1704578999997466,None,981.7133154000003,981.7133154000003,981.7133154000003,981.7133154000003,,,,,,,,,,,,,,,,,,,,,5900,1,2025-09-18_16h39.54.272,sm,2024.2.4,60.038496684088585,2025-09-18 16h40.37.984109 +0200,
65,0,65,,,,,,space,1.4667563000002701,None,None,None,,,None,0,0,0,0,,,,,1,0,1,0,,,,,65,0,65,0,981.7133154000003,,,,,,,,,,,,,,,,,,,,,,,,,,,,,,,,,,,,,,,,,,,,,,,,,,,,,,,,,,Rose,2.0485,981.6982700999997,981.6987931000003,981.6989016000007,981.7133154000003,983.7629811000006,983.7475789,983.7508936000013,983.7629811000006,983.7629811000006,983.7629811000006,983.7629811000006,985.7480022,None,,,None,985.7632952000004,985.7632952000004,985.7632952000004,985.7632952000004,,,,,,,,,,,,,,,,,,,,,5900,1,2025-09-18_16h39.54.272,sm,2024.2.4,60.038496684088585,2025-09-18 16h40.37.984109 +0200,
66,0,66,,,,,,space,1.4667563000002701,None,None,3,1.1304765999993833,0.1795006000011199,None,0,0,0,0,,,,,1,0,1,0,,,,,66,0,66,0,985.7632952000004,,,,,,,,,,,,,,,,,,,,,,,,,,,,,,,,,,,,,,,,,,,,,,,,,,,,,,,,,,Geschäft,3.6249,985.7484755000005,985.7490658000006,985.7491738000008,985.7632952000004,989.3959195999996,989.3804612000004,989.3845141000002,989.3959195999996,989.3959195999996,989.3959195999996,989.3959195999996,991.3808242000014,3,1.1304765999993833,0.1795006000011199,None,991.3961605000004,991.3961605000004,991.3961605000004,991.3961605000004,,,,,,,,,,,,,,,,,,,,,5900,1,2025-09-18_16h39.54.272,sm,2024.2.4,60.038496684088585,2025-09-18 16h40.37.984109 +0200,
