thisN,thisTrialN,thisRepN,Cue,Target,Mediator1,Mediator2,iti,scanner_ready_press.keys,scanner_ready_press.rt,scanner_ready_press.duration,skip_trigger.keys,living_nonliving.keys,end_mapping.keys,living_nonliving.rt,living_nonliving.duration,blocks.thisRepN,blocks.thisTrialN,blocks.thisN,blocks.thisIndex,load_and_shuffle.thisRepN,load_and_shuffle.thisTrialN,load_and_shuffle.thisN,load_and_shuffle.thisIndex,runs.thisRepN,runs.thisTrialN,runs.thisN,runs.thisIndex,iti_loading_loop.thisRepN,iti_loading_loop.thisTrialN,iti_loading_loop.thisN,iti_loading_loop.thisIndex,semantic_mapping_run.thisRepN,semantic_mapping_run.thisTrialN,semantic_mapping_run.thisN,semantic_mapping_run.thisIndex,thisRow.t,notes,welcome.started,welcome_text.started,key_resp__welcome.started,welcome.stopped,key_resp__welcome.keys,key_resp__welcome.rt,key_resp__welcome.duration,scout.started,scout_text.started,key_resp.started,scout.stopped,key_resp.keys,key_resp.rt,key_resp.duration,instructions_semantic_mapping1.started,sm_instructions1_text.started,sm_instructions1_key.started,instructions_semantic_mapping1.stopped,sm_instructions1_key.keys,sm_instructions1_key.rt,sm_instructions1_key.duration,instructions_semantic_mapping2.started,sm_instructions2_text.started,sm_instructions2_key.started,instructions_semantic_mapping2.stopped,sm_instructions2_key.keys,sm_instructions2_key.rt,sm_instructions2_key.duration,reset_run.started,reset_run.stopped,shuffle_items.started,shuffle_items.stopped,set_up_runs.started,set_up_runs.stopped,load_iti.started,load_iti.stopped,prep_scanner.started,scanner_ready_press.started,ready_set_text.started,prep_scanner.stopped,runs.scanner_ready_press.keys,runs.scanner_ready_press.rt,runs.scanner_ready_press.duration,wait_for_trigger.started,starting_soon.started,skip_trigger.started,wait_for_trigger.stopped,runs.skip_trigger.keys,blank.started,begin_end_run_cross.started,sound_1.started,sound_1.stopped,sound_2.started,sound_2.stopped,blank.stopped,CurrentItem,CurrentITI,set_up_trial.started,set_up_trial.stopped,sm_iti.started,iti_cross.started,iti_cross.stopped,sm_iti.stopped,item.started,living_nonliving.started,end_mapping.started,living_nonliving_text.started,semantic_map_item.started,living_nonliving.stopped,end_mapping.stopped,living_nonliving_text.stopped,semantic_map_item.stopped,item.stopped,semantic_mapping_run.living_nonliving.keys,semantic_mapping_run.end_mapping.keys,semantic_mapping_run.living_nonliving.rt,semantic_mapping_run.living_nonliving.duration,fieldmap.started,fieldmap.stopped,runs.fm_key.keys,task_break.started,feeback_text.started,task_break_text.started,task_break_resp.started,feeback_text.stopped,task_break.stopped,runs.task_break_resp.keys,runs.task_break_resp.rt,runs.task_break_resp.duration,begin_end_run_cross.stopped,fm_text.started,fm_key.started,runs.fm_key.rt,runs.fm_key.duration,PID,MRI,date,expName,psychopyVersion,frameRate,expStart,
,,,,,,,,,,,,,,,,,,,,,,,,,,,,,,,,,,,,,,0.004048499999953492,0.018320999999559717,0.018320999999559717,33.1589727999999,space,33.12106060000042,None,,,,,,,,,,,,,,,,,,,,,,,,,,,,,,,,,,,,,,,,,,,,,,,,,,,,,,,,,,,,,,,,,,,,,,,,,,,,,,,,,,,,,,,,1269,1,2025-09-20_11h21.11.455,sm,2024.2.4,59.96253540771553,2025-09-20 11h21.25.241563 +0200,
,,,,,,,,,,,,,,,,,,,,,,,,,,,,,,,,,,,,,,,,,,,,,33.15909620000002,33.16901109999981,33.16901109999981,121.6782564999994,space,88.49862170000051,None,,,,,,,,,,,,,,,,,,,,,,,,,,,,,,,,,,,,,,,,,,,,,,,,,,,,,,,,,,,,,,,,,,,,,,,,,,,,,,,,,1269,1,2025-09-20_11h21.11.455,sm,2024.2.4,59.96253540771553,2025-09-20 11h21.25.241563 +0200,
,,,,,,,,,,,,,,,,,,,,,,,,,,,,,,,,,,,,,,,,,,,,,,,,,,,,121.67838639999991,121.69348039999932,121.69348039999932,131.42788299999938,2,9.728893499999685,None,,,,,,,,,,,,,,,,,,,,,,,,,,,,,,,,,,,,,,,,,,,,,,,,,,,,,,,,,,,,,,,,,,,,,,,,,,1269,1,2025-09-20_11h21.11.455,sm,2024.2.4,59.96253540771553,2025-09-20 11h21.25.241563 +0200,
,,,,,,,,,,,,,,,,,,,,,,,,,,,,,,,,,,,,,,,,,,,,,,,,,,,,,,,,,,,131.42799689999993,131.44271759999992,131.44271759999992,145.74381469999935,2,14.297775000000001,None,,,,,,,,,,,,,,,,,,,,,,,,,,,,,,,,,,,,,,,,,,,,,,,,,,,,,,,,,,,,,,,,,,,1269,1,2025-09-20_11h21.11.455,sm,2024.2.4,59.96253540771553,2025-09-20 11h21.25.241563 +0200,
0,0,0,Vulkan,Asche,Lava,Ausbruch,2.3448,space,3.513588200000413,None,None,None,None,,,0,0,0,0,0,79,79,63,0,0,0,0,0,79,79,11,0,0,0,0,207.7396749999998,,,,,,,,,,,,,,,,,,,,,,,,,,,,,,145.74468139999954,145.74527679999937,145.8209511999994,145.8212094999999,145.82572809999965,145.82600749999983,145.85479159999977,145.85498329999973,145.86164800000006,145.86557259999972,145.86557259999972,149.3933288999997,space,3.513588200000413,None,149.3934750999997,149.4104772999999,149.4104772999999,195.70884279999973,None,195.7181332,195.7271183999992,195.724190766666,196.93176119999953,205.72345146666638,206.7318022999998,207.72351759999947,Kante,2.3448,207.72494310000002,207.72562349999953,207.72887899999932,207.7396749999998,210.0892621999992,210.07419339999979,210.08000489999995,210.0892621999992,210.0892621999992,210.0892621999992,210.0892621999992,212.09031589999995,212.09031589999995,212.09031589999995,212.09031589999995,212.07434939999985,None,None,,,,,,,,,,,,,,,,,,,,1269,1,2025-09-20_11h21.11.455,sm,2024.2.4,59.96253540771553,2025-09-20 11h21.25.241563 +0200,
1,0,1,,,,,,space,3.513588200000413,None,None,3,None,1.1189556999997876,0.31216909999966447,0,0,0,0,,,,,0,0,0,0,,,,,1,0,1,0,212.09031589999995,,,,,,,,,,,,,,,,,,,,,,,,,,,,,,,,,,,,,,,,,,,,,,,,,,,,,,,,,Rot,2.1266,212.0748322999998,212.07548719999977,212.07559330000004,212.09031589999995,214.22293329999957,214.20723409999937,214.21156989999963,214.22293329999957,214.22293329999957,214.22293329999957,214.22293329999957,216.22313349999968,216.22313349999968,216.22313349999968,216.22313349999968,216.2073778999993,3,None,1.1189556999997876,0.31216909999966447,,,,,,,,,,,,,,,,,,1269,1,2025-09-20_11h21.11.455,sm,2024.2.4,59.96253540771553,2025-09-20 11h21.25.241563 +0200,
2,0,2,,,,,,space,3.513588200000413,None,None,3,None,1.2092247999999017,0.2922195000001011,0,0,0,0,,,,,0,0,0,0,,,,,2,0,2,0,216.22313349999968,,,,,,,,,,,,,,,,,,,,,,,,,,,,,,,,,,,,,,,,,,,,,,,,,,,,,,,,,Weiß,3.4446,216.20785929999965,216.20859259999997,216.20869799999946,216.22313349999968,219.67252049999934,219.65736500000003,219.66086369999994,219.67252049999934,219.67252049999934,219.67252049999934,219.67252049999934,221.6725803999998,221.6725803999998,221.6725803999998,221.6725803999998,221.6573303999994,3,None,1.2092247999999017,0.2922195000001011,,,,,,,,,,,,,,,,,,1269,1,2025-09-20_11h21.11.455,sm,2024.2.4,59.96253540771553,2025-09-20 11h21.25.241563 +0200,
3,0,3,,,,,,space,3.513588200000413,None,None,2,None,1.2615681999996013,0.2888143999998647,0,0,0,0,,,,,0,0,0,0,,,,,3,0,3,0,221.6725803999998,,,,,,,,,,,,,,,,,,,,,,,,,,,,,,,,,,,,,,,,,,,,,,,,,,,,,,,,,Vampir,2.6548,221.65784509999958,221.6585140999996,221.6586217999993,221.6725803999998,224.33879230000002,224.32356399999935,224.32757589999983,224.33879230000002,224.33879230000002,224.33879230000002,224.33879230000002,226.33892809999998,226.33892809999998,226.33892809999998,226.33892809999998,226.32341949999955,2,None,1.2615681999996013,0.2888143999998647,,,,,,,,,,,,,,,,,,1269,1,2025-09-20_11h21.11.455,sm,2024.2.4,59.96253540771553,2025-09-20 11h21.25.241563 +0200,
4,0,4,,,,,,space,3.513588200000413,None,None,3,None,1.3103965999998763,0.3449712999999974,0,0,0,0,,,,,0,0,0,0,,,,,4,0,4,0,226.33892809999998,,,,,,,,,,,,,,,,,,,,,,,,,,,,,,,,,,,,,,,,,,,,,,,,,,,,,,,,,Club,2.7596,226.32393489999959,226.3244434999997,226.32455299999947,226.33892809999998,229.10539729999982,229.09008749999975,229.09600640000008,229.10539729999982,229.10539729999982,229.10539729999982,229.10539729999982,231.10560929999974,231.10560929999974,231.10560929999974,231.10560929999974,231.08979139999974,3,None,1.3103965999998763,0.3449712999999974,,,,,,,,,,,,,,,,,,1269,1,2025-09-20_11h21.11.455,sm,2024.2.4,59.96253540771553,2025-09-20 11h21.25.241563 +0200,
5,0,5,,,,,,space,3.513588200000413,None,None,3,None,1.0831541999996261,0.3031768999999258,0,0,0,0,,,,,0,0,0,0,,,,,5,0,5,0,231.10560929999974,,,,,,,,,,,,,,,,,,,,,,,,,,,,,,,,,,,,,,,,,,,,,,,,,,,,,,,,,Afrika,2.3398,231.09031309999955,231.09081689999948,231.09092249999958,231.10560929999974,233.45516119999957,233.4395582999996,233.44298629999957,233.45516119999957,233.45516119999957,233.45516119999957,233.45516119999957,235.45517969999946,235.45517969999946,235.45517969999946,235.45517969999946,235.4393811,3,None,1.0831541999996261,0.3031768999999258,,,,,,,,,,,,,,,,,,1269,1,2025-09-20_11h21.11.455,sm,2024.2.4,59.96253540771553,2025-09-20 11h21.25.241563 +0200,
6,0,6,,,,,,space,3.513588200000413,None,None,3,None,0.9789848999998867,0.300112299999455,0,0,0,0,,,,,0,0,0,0,,,,,6,0,6,0,235.45517969999946,,,,,,,,,,,,,,,,,,,,,,,,,,,,,,,,,,,,,,,,,,,,,,,,,,,,,,,,,Anruf,2.3731,235.43989949999923,235.44040389999918,235.44051069999932,235.45517969999946,237.8382933999992,237.82232979999935,237.8257778999996,237.8382933999992,237.8382933999992,237.8382933999992,237.8382933999992,239.83817779999936,239.83817779999936,239.83817779999936,239.83817779999936,239.82259840000006,3,None,0.9789848999998867,0.300112299999455,,,,,,,,,,,,,,,,,,1269,1,2025-09-20_11h21.11.455,sm,2024.2.4,59.96253540771553,2025-09-20 11h21.25.241563 +0200,
7,0,7,,,,,,space,3.513588200000413,None,None,2,None,1.0989369999997507,0.2293870000003153,0,0,0,0,,,,,0,0,0,0,,,,,7,0,7,0,239.83817779999936,,,,,,,,,,,,,,,,,,,,,,,,,,,,,,,,,,,,,,,,,,,,,,,,,,,,,,,,,Anwalt,5.5338,239.8230825999999,239.82372379999924,239.82382199999938,239.83817779999936,245.37091299999975,245.35570139999982,245.36052449999988,245.37091299999975,245.37091299999975,245.37091299999975,245.37091299999975,247.3709192999995,247.3709192999995,247.3709192999995,247.3709192999995,247.35530239999935,2,None,1.0989369999997507,0.2293870000003153,,,,,,,,,,,,,,,,,,1269,1,2025-09-20_11h21.11.455,sm,2024.2.4,59.96253540771553,2025-09-20 11h21.25.241563 +0200,
8,0,8,,,,,,space,3.513588200000413,None,None,3,None,0.9836977999993906,0.29399130000001605,0,0,0,0,,,,,0,0,0,0,,,,,8,0,8,0,247.3709192999995,,,,,,,,,,,,,,,,,,,,,,,,,,,,,,,,,,,,,,,,,,,,,,,,,,,,,,,,,Skizze,2.5115,247.35573010000007,247.35643639999944,247.35652539999955,247.3709192999995,249.8874610999992,249.8721071,249.87625909999952,249.8874610999992,249.8874610999992,249.8874610999992,249.8874610999992,251.88741739999932,251.88741739999932,251.88741739999932,251.88741739999932,251.87174139999934,3,None,0.9836977999993906,0.29399130000001605,,,,,,,,,,,,,,,,,,1269,1,2025-09-20_11h21.11.455,sm,2024.2.4,59.96253540771553,2025-09-20 11h21.25.241563 +0200,
9,0,9,,,,,,space,3.513588200000413,None,None,3,None,1.2469756999998935,0.2782500000002983,0,0,0,0,,,,,0,0,0,0,,,,,9,0,9,0,251.88741739999932,,,,,,,,,,,,,,,,,,,,,,,,,,,,,,,,,,,,,,,,,,,,,,,,,,,,,,,,,Brief,5.4182,251.87222649999967,251.87278059999971,251.8728812999998,251.88741739999932,257.32049169999937,257.30487939999966,257.3079466999998,257.32049169999937,257.32049169999937,257.32049169999937,257.32049169999937,259.3204802,259.3204802,259.3204802,259.3204802,259.3048953999996,3,None,1.2469756999998935,0.2782500000002983,,,,,,,,,,,,,,,,,,1269,1,2025-09-20_11h21.11.455,sm,2024.2.4,59.96253540771553,2025-09-20 11h21.25.241563 +0200,
10,0,10,,,,,,space,3.513588200000413,None,None,2,None,0.953283900000315,0.26687549999951443,0,0,0,0,,,,,0,0,0,0,,,,,10,0,10,0,259.3204802,,,,,,,,,,,,,,,,,,,,,,,,,,,,,,,,,,,,,,,,,,,,,,,,,,,,,,,,,Professor,4.5325,259.3054048999993,259.3061514000001,259.3062554999997,259.3204802,263.85407289999966,263.8379847999995,263.84328060000007,263.85407289999966,263.85407289999966,263.85407289999966,263.85407289999966,265.8531908999994,265.8531908999994,265.8531908999994,265.8531908999994,265.8379277999993,2,None,0.953283900000315,0.26687549999951443,,,,,,,,,,,,,,,,,,1269,1,2025-09-20_11h21.11.455,sm,2024.2.4,59.96253540771553,2025-09-20 11h21.25.241563 +0200,
11,0,11,,,,,,space,3.513588200000413,None,None,3,None,1.1202737999992678,0.675605600000381,0,0,0,0,,,,,0,0,0,0,,,,,11,0,11,0,265.8531908999994,,,,,,,,,,,,,,,,,,,,,,,,,,,,,,,,,,,,,,,,,,,,,,,,,,,,,,,,,Bücher,3.2643,265.83844169999975,265.83923549999963,265.83934109999973,265.8531908999994,269.11995059999936,269.10436109999955,269.10838650000005,269.11995059999936,269.11995059999936,269.11995059999936,269.11995059999936,271.1197543999997,271.1197543999997,271.1197543999997,271.1197543999997,271.1040104999993,3,None,1.1202737999992678,0.675605600000381,,,,,,,,,,,,,,,,,,1269,1,2025-09-20_11h21.11.455,sm,2024.2.4,59.96253540771553,2025-09-20 11h21.25.241563 +0200,
12,0,12,,,,,,space,3.513588200000413,None,None,3,None,1.0378804000001765,0.24617249999937485,0,0,0,0,,,,,0,0,0,0,,,,,12,0,12,0,271.1197543999997,,,,,,,,,,,,,,,,,,,,,,,,,,,,,,,,,,,,,,,,,,,,,,,,,,,,,,,,,Chips,3.5341,271.1045469999999,271.1050679,271.1051754,271.1197543999997,274.66949769999974,274.65403759999936,274.65785890000006,274.66949769999974,274.66949769999974,274.66949769999974,274.66949769999974,276.66927529999975,276.66927529999975,276.66927529999975,276.66927529999975,276.65366839999933,3,None,1.0378804000001765,0.24617249999937485,,,,,,,,,,,,,,,,,,1269,1,2025-09-20_11h21.11.455,sm,2024.2.4,59.96253540771553,2025-09-20 11h21.25.241563 +0200,
13,0,13,,,,,,space,3.513588200000413,None,None,3,None,1.2441834000001109,0.24337969999942288,0,0,0,0,,,,,0,0,0,0,,,,,13,0,13,0,276.66927529999975,,,,,,,,,,,,,,,,,,,,,,,,,,,,,,,,,,,,,,,,,,,,,,,,,,,,,,,,,Kapitel,2.248,276.65420619999986,276.6548251999993,276.65494059999946,276.66927529999975,278.9189990999994,278.90387219999957,278.9086230999992,278.9189990999994,278.9189990999994,278.9189990999994,278.9189990999994,280.9188856999999,280.9188856999999,280.9188856999999,280.9188856999999,280.9033872,3,None,1.2441834000001109,0.24337969999942288,,,,,,,,,,,,,,,,,,1269,1,2025-09-20_11h21.11.455,sm,2024.2.4,59.96253540771553,2025-09-20 11h21.25.241563 +0200,
14,0,14,,,,,,space,3.513588200000413,None,None,3,None,1.395745299999362,0.298217300000033,0,0,0,0,,,,,0,0,0,0,,,,,14,0,14,0,280.9188856999999,,,,,,,,,,,,,,,,,,,,,,,,,,,,,,,,,,,,,,,,,,,,,,,,,,,,,,,,,Rauch,3.4102,280.90381459999935,280.90429349999977,280.9043836999999,280.9188856999999,284.33538189999945,284.3197470999994,284.32305689999976,284.33538189999945,284.33538189999945,284.33538189999945,284.33538189999945,286.3355216,286.3355216,286.3355216,286.3355216,286.31996249999975,3,None,1.395745299999362,0.298217300000033,,,,,,,,,,,,,,,,,,1269,1,2025-09-20_11h21.11.455,sm,2024.2.4,59.96253540771553,2025-09-20 11h21.25.241563 +0200,
15,0,15,,,,,,space,3.513588200000413,None,None,2,None,1.1474324999999226,0.24999360000037996,0,0,0,0,,,,,0,0,0,0,,,,,15,0,15,0,286.3355216,,,,,,,,,,,,,,,,,,,,,,,,,,,,,,,,,,,,,,,,,,,,,,,,,,,,,,,,,Spion,2.8567,286.3204692999998,286.32107709999946,286.32118249999985,286.3355216,289.20166999999947,289.1862607999992,289.1898541999999,289.20166999999947,289.20166999999947,289.20166999999947,289.20166999999947,291.2018002999994,291.2018002999994,291.2018002999994,291.2018002999994,291.186369,2,None,1.1474324999999226,0.24999360000037996,,,,,,,,,,,,,,,,,,1269,1,2025-09-20_11h21.11.455,sm,2024.2.4,59.96253540771553,2025-09-20 11h21.25.241563 +0200,
16,0,16,,,,,,space,3.513588200000413,None,None,3,None,0.8592630000002828,0.2792540000000372,0,0,0,0,,,,,0,0,0,0,,,,,16,0,16,0,291.2018002999994,,,,,,,,,,,,,,,,,,,,,,,,,,,,,,,,,,,,,,,,,,,,,,,,,,,,,,,,,Zeitung,3.3171,291.1868822999995,291.1874420999993,291.18754959999933,291.2018002999994,294.5182552999995,294.50276609999946,294.50907349999943,294.5182552999995,294.5182552999995,294.5182552999995,294.5182552999995,296.51829029999953,296.51829029999953,296.51829029999953,296.51829029999953,296.50253040000007,3,None,0.8592630000002828,0.2792540000000372,,,,,,,,,,,,,,,,,,1269,1,2025-09-20_11h21.11.455,sm,2024.2.4,59.96253540771553,2025-09-20 11h21.25.241563 +0200,
17,0,17,,,,,,space,3.513588200000413,None,None,3,None,0.950041400000373,0.24735289999989618,0,0,0,0,,,,,0,0,0,0,,,,,17,0,17,0,296.51829029999953,,,,,,,,,,,,,,,,,,,,,,,,,,,,,,,,,,,,,,,,,,,,,,,,,,,,,,,,,Knie,2.1584,296.50304329999926,296.50356809999994,296.50367539999934,296.51829029999953,298.68461260000004,298.6690927999998,298.6723947999999,298.68461260000004,298.68461260000004,298.68461260000004,298.68461260000004,300.6849248999997,300.6849248999997,300.6849248999997,300.6849248999997,300.6689415999999,3,None,0.950041400000373,0.24735289999989618,,,,,,,,,,,,,,,,,,1269,1,2025-09-20_11h21.11.455,sm,2024.2.4,59.96253540771553,2025-09-20 11h21.25.241563 +0200,
18,0,18,,,,,,space,3.513588200000413,None,None,3,None,1.282278600000609,0.25736049999977695,0,0,0,0,,,,,0,0,0,0,,,,,18,0,18,0,300.6849248999997,,,,,,,,,,,,,,,,,,,,,,,,,,,,,,,,,,,,,,,,,,,,,,,,,,,,,,,,,Gipfel,3.0533,300.6694607999998,300.6699693999999,300.67007549999926,300.6849248999997,303.75106159999996,303.73522090000006,303.73854069999925,303.75106159999996,303.75106159999996,303.75106159999996,303.75106159999996,305.7510333,305.7510333,305.7510333,305.7510333,305.73525269999936,3,None,1.282278600000609,0.25736049999977695,,,,,,,,,,,,,,,,,,1269,1,2025-09-20_11h21.11.455,sm,2024.2.4,59.96253540771553,2025-09-20 11h21.25.241563 +0200,
19,0,19,,,,,,space,3.513588200000413,None,None,3,None,0.9849713000003248,0.23429940000005445,0,0,0,0,,,,,0,0,0,0,,,,,19,0,19,0,305.7510333,,,,,,,,,,,,,,,,,,,,,,,,,,,,,,,,,,,,,,,,,,,,,,,,,,,,,,,,,Zapfen,3.6881,305.7357029999994,305.73618889999943,305.7362801999998,305.7510333,309.45067279999967,309.4351861999994,309.44005899999956,309.45067279999967,309.45067279999967,309.45067279999967,309.45067279999967,311.4506937999995,311.4506937999995,311.4506937999995,311.4506937999995,311.43523359999926,3,None,0.9849713000003248,0.23429940000005445,,,,,,,,,,,,,,,,,,1269,1,2025-09-20_11h21.11.455,sm,2024.2.4,59.96253540771553,2025-09-20 11h21.25.241563 +0200,
20,0,20,,,,,,space,3.513588200000413,None,None,3,None,1.0307401999998547,0.2692813000003298,0,0,0,0,,,,,0,0,0,0,,,,,20,0,20,0,311.4506937999995,,,,,,,,,,,,,,,,,,,,,,,,,,,,,,,,,,,,,,,,,,,,,,,,,,,,,,,,,Gras,2.4159,311.43574179999996,311.43626349999977,311.4363694999993,311.4506937999995,313.86699729999964,313.85169289999976,313.85538240000005,313.86699729999964,313.86699729999964,313.86699729999964,313.86699729999964,315.8671214999995,315.8671214999995,315.8671214999995,315.8671214999995,315.8521062,3,None,1.0307401999998547,0.2692813000003298,,,,,,,,,,,,,,,,,,1269,1,2025-09-20_11h21.11.455,sm,2024.2.4,59.96253540771553,2025-09-20 11h21.25.241563 +0200,
21,0,21,,,,,,space,3.513588200000413,None,None,3,None,1.0813437999995585,0.28705510000054346,0,0,0,0,,,,,0,0,0,0,,,,,21,0,21,0,315.8671214999995,,,,,,,,,,,,,,,,,,,,,,,,,,,,,,,,,,,,,,,,,,,,,,,,,,,,,,,,,Waschbecken,2.8488,315.8526230999996,315.8532828999996,315.8533878999997,315.8671214999995,318.71741459999976,318.7014406999997,318.7057931999998,318.71741459999976,318.71741459999976,318.71741459999976,318.71741459999976,320.7167284999996,320.7167284999996,320.7167284999996,320.7167284999996,320.7013182999999,3,None,1.0813437999995585,0.28705510000054346,,,,,,,,,,,,,,,,,,1269,1,2025-09-20_11h21.11.455,sm,2024.2.4,59.96253540771553,2025-09-20 11h21.25.241563 +0200,
22,0,22,,,,,,space,3.513588200000413,None,None,3,None,1.1044450999997935,0.26222969999980705,0,0,0,0,,,,,0,0,0,0,,,,,22,0,22,0,320.7167284999996,,,,,,,,,,,,,,,,,,,,,,,,,,,,,,,,,,,,,,,,,,,,,,,,,,,,,,,,,Stein,2.6958,320.70176319999973,320.70222620000004,320.7023101999994,320.7167284999996,323.41641679999975,323.40078559999984,323.40420639999957,323.41641679999975,323.41641679999975,323.41641679999975,323.41641679999975,325.4164824999998,325.4164824999998,325.4164824999998,325.4164824999998,325.4010000999997,3,None,1.1044450999997935,0.26222969999980705,,,,,,,,,,,,,,,,,,1269,1,2025-09-20_11h21.11.455,sm,2024.2.4,59.96253540771553,2025-09-20 11h21.25.241563 +0200,
23,0,23,,,,,,space,3.513588200000413,None,None,3,None,0.7047357000001284,0.2931674000001294,0,0,0,0,,,,,0,0,0,0,,,,,23,0,23,0,325.4164824999998,,,,,,,,,,,,,,,,,,,,,,,,,,,,,,,,,,,,,,,,,,,,,,,,,,,,,,,,,Hose,2.3722,325.4015099999997,325.4020146999992,325.40212449999945,325.4164824999998,327.79949619999934,327.7841510999997,327.78954669999985,327.79949619999934,327.79949619999934,327.79949619999934,327.79949619999934,329.7998527999998,329.7998527999998,329.7998527999998,329.7998527999998,329.7839811999993,3,None,0.7047357000001284,0.2931674000001294,,,,,,,,,,,,,,,,,,1269,1,2025-09-20_11h21.11.455,sm,2024.2.4,59.96253540771553,2025-09-20 11h21.25.241563 +0200,
24,0,24,,,,,,space,3.513588200000413,None,None,3,None,1.489830699999402,0.3570909000000029,0,0,0,0,,,,,0,0,0,0,,,,,24,0,24,0,329.7998527999998,,,,,,,,,,,,,,,,,,,,,,,,,,,,,,,,,,,,,,,,,,,,,,,,,,,,,,,,,Atem,3.0272,329.7845112999994,329.7850420999994,329.78514749999977,329.7998527999998,332.83264710000003,332.8168605000001,332.82024889999957,332.83264710000003,332.83264710000003,332.83264710000003,332.83264710000003,334.8326241999994,334.8326241999994,334.8326241999994,334.8326241999994,334.81712399999924,3,None,1.489830699999402,0.3570909000000029,,,,,,,,,,,,,,,,,,1269,1,2025-09-20_11h21.11.455,sm,2024.2.4,59.96253540771553,2025-09-20 11h21.25.241563 +0200,
25,0,25,,,,,,space,3.513588200000413,None,None,2,None,1.3651503999999477,0.2869453000002977,0,0,0,0,,,,,0,0,0,0,,,,,25,0,25,0,334.8326241999994,,,,,,,,,,,,,,,,,,,,,,,,,,,,,,,,,,,,,,,,,,,,,,,,,,,,,,,,,Besucher,2.6471,334.81763109999974,334.8181463000001,334.8182526999999,334.8326241999994,337.4823958999996,337.46692110000004,337.47112819999984,337.4823958999996,337.4823958999996,337.4823958999996,337.4823958999996,339.48238239999955,339.48238239999955,339.48238239999955,339.48238239999955,339.4669568999998,2,None,1.3651503999999477,0.2869453000002977,,,,,,,,,,,,,,,,,,1269,1,2025-09-20_11h21.11.455,sm,2024.2.4,59.96253540771553,2025-09-20 11h21.25.241563 +0200,
26,0,26,,,,,,space,3.513588200000413,None,None,3,None,1.1444925999994666,0.31808660000024247,0,0,0,0,,,,,0,0,0,0,,,,,26,0,26,0,339.48238239999955,,,,,,,,,,,,,,,,,,,,,,,,,,,,,,,,,,,,,,,,,,,,,,,,,,,,,,,,,Golf,2.1586,339.4674680999997,339.46798899999976,339.4681017999992,339.48238239999955,341.6487434999999,341.6334788999993,341.63784679999935,341.6487434999999,341.6487434999999,341.6487434999999,341.6487434999999,343.6489469999997,343.6489469999997,343.6489469999997,343.6489469999997,343.6330742,3,None,1.1444925999994666,0.31808660000024247,,,,,,,,,,,,,,,,,,1269,1,2025-09-20_11h21.11.455,sm,2024.2.4,59.96253540771553,2025-09-20 11h21.25.241563 +0200,
27,0,27,,,,,,space,3.513588200000413,None,None,2,None,1.0194623000006686,0.3919919999998456,0,0,0,0,,,,,0,0,0,0,,,,,27,0,27,0,343.6489469999997,,,,,,,,,,,,,,,,,,,,,,,,,,,,,,,,,,,,,,,,,,,,,,,,,,,,,,,,,Wurm,3.5291,343.6334833000001,343.63417669999944,343.6342625999996,343.6489469999997,347.18280589999995,347.1664231999994,347.16986689999976,347.18280589999995,347.18280589999995,347.18280589999995,347.18280589999995,349.181834,349.181834,349.181834,349.181834,349.1664727999996,2,None,1.0194623000006686,0.3919919999998456,,,,,,,,,,,,,,,,,,1269,1,2025-09-20_11h21.11.455,sm,2024.2.4,59.96253540771553,2025-09-20 11h21.25.241563 +0200,
28,0,28,,,,,,space,3.513588200000413,None,None,3,None,1.6354827000004661,0.26504560000012134,0,0,0,0,,,,,0,0,0,0,,,,,28,0,28,0,349.181834,,,,,,,,,,,,,,,,,,,,,,,,,,,,,,,,,,,,,,,,,,,,,,,,,,,,,,,,,Hand,3.3946,349.1669820999996,349.16773099999955,349.1678419,349.181834,352.5814137999996,352.5657435999992,352.56895689999965,352.5814137999996,352.5814137999996,352.5814137999996,352.5814137999996,354.5814598999996,354.5814598999996,354.5814598999996,354.5814598999996,354.56609599999956,3,None,1.6354827000004661,0.26504560000012134,,,,,,,,,,,,,,,,,,1269,1,2025-09-20_11h21.11.455,sm,2024.2.4,59.96253540771553,2025-09-20 11h21.25.241563 +0200,
29,0,29,,,,,,space,3.513588200000413,None,None,3,None,1.1562142000002495,0.31655309999950987,0,0,0,0,,,,,0,0,0,0,,,,,29,0,29,0,354.5814598999996,,,,,,,,,,,,,,,,,,,,,,,,,,,,,,,,,,,,,,,,,,,,,,,,,,,,,,,,,Sauber,3.2258,354.5666113999996,354.56724719999966,354.5673586999992,354.5814598999996,357.8144188999995,357.79911449999963,357.8029287999998,357.8144188999995,357.8144188999995,357.8144188999995,357.8144188999995,359.8145128999995,359.8145128999995,359.8145128999995,359.8145128999995,359.7990807999995,3,None,1.1562142000002495,0.31655309999950987,,,,,,,,,,,,,,,,,,1269,1,2025-09-20_11h21.11.455,sm,2024.2.4,59.96253540771553,2025-09-20 11h21.25.241563 +0200,
30,0,30,,,,,,space,3.513588200000413,None,None,3,None,1.0571446000003561,0.24236199999995733,0,0,0,0,,,,,0,0,0,0,,,,,30,0,30,0,359.8145128999995,,,,,,,,,,,,,,,,,,,,,,,,,,,,,,,,,,,,,,,,,,,,,,,,,,,,,,,,,Sendung,2.5093,359.79959189999954,359.8002428,359.80035119999957,359.8145128999995,362.3309856999995,362.315603,362.3196247999995,362.3309856999995,362.3309856999995,362.3309856999995,362.3309856999995,364.3309841,364.3309841,364.3309841,364.3309841,364.3155435999997,3,None,1.0571446000003561,0.24236199999995733,,,,,,,,,,,,,,,,,,1269,1,2025-09-20_11h21.11.455,sm,2024.2.4,59.96253540771553,2025-09-20 11h21.25.241563 +0200,
31,0,31,,,,,,space,3.513588200000413,None,None,3,None,1.4746835000005376,0.2653342999992674,0,0,0,0,,,,,0,0,0,0,,,,,31,0,31,0,364.3309841,,,,,,,,,,,,,,,,,,,,,,,,,,,,,,,,,,,,,,,,,,,,,,,,,,,,,,,,,Gegenwart,2.4427,364.31605189999937,364.31655219999993,364.31665840000005,364.3309841,366.7806578999998,366.76506379999955,366.76892729999963,366.7806578999998,366.7806578999998,366.7806578999998,366.7806578999998,368.7808895999997,368.7808895999997,368.7808895999997,368.7808895999997,368.76518679999936,3,None,1.4746835000005376,0.2653342999992674,,,,,,,,,,,,,,,,,,1269,1,2025-09-20_11h21.11.455,sm,2024.2.4,59.96253540771553,2025-09-20 11h21.25.241563 +0200,
32,0,32,,,,,,space,3.513588200000413,None,None,3,None,1.3495229999998628,0.33908549999978277,0,0,0,0,,,,,0,0,0,0,,,,,32,0,32,0,368.7808895999997,,,,,,,,,,,,,,,,,,,,,,,,,,,,,,,,,,,,,,,,,,,,,,,,,,,,,,,,,Schlüssel,4.2735,368.76570959999935,368.7662135999999,368.76632269999936,368.7808895999997,373.06463619999977,373.0479547999994,373.0521798,373.06463619999977,373.06463619999977,373.06463619999977,373.06463619999977,375.0637004,375.0637004,375.0637004,375.0637004,375.04816839999967,3,None,1.3495229999998628,0.33908549999978277,,,,,,,,,,,,,,,,,,1269,1,2025-09-20_11h21.11.455,sm,2024.2.4,59.96253540771553,2025-09-20 11h21.25.241563 +0200,
33,0,33,,,,,,space,3.513588200000413,None,None,3,None,0.898036200000206,0.3021888000002946,0,0,0,0,,,,,0,0,0,0,,,,,33,0,33,0,375.0637004,,,,,,,,,,,,,,,,,,,,,,,,,,,,,,,,,,,,,,,,,,,,,,,,,,,,,,,,,Nudeln,2.1088,375.0486928,375.0494284999995,375.04953320000004,375.0637004,377.1801753999998,377.16446839999935,377.1687992999996,377.1801753999998,377.1801753999998,377.1801753999998,377.1801753999998,379.18005769999945,379.18005769999945,379.18005769999945,379.18005769999945,379.1641749999999,3,None,0.898036200000206,0.3021888000002946,,,,,,,,,,,,,,,,,,1269,1,2025-09-20_11h21.11.455,sm,2024.2.4,59.96253540771553,2025-09-20 11h21.25.241563 +0200,
34,0,34,,,,,,space,3.513588200000413,None,None,2,None,1.301472800000738,0.2891459999991639,0,0,0,0,,,,,0,0,0,0,,,,,34,0,34,0,379.18005769999945,,,,,,,,,,,,,,,,,,,,,,,,,,,,,,,,,,,,,,,,,,,,,,,,,,,,,,,,,Blumen,2.6103,379.1646063999997,379.1650876999993,379.1651766999994,379.18005769999945,381.7965134999995,381.7811431,381.7852342999995,381.7965134999995,381.7965134999995,381.7965134999995,381.7965134999995,383.7965343999995,383.7965343999995,383.7965343999995,383.7965343999995,383.78113179999946,2,None,1.301472800000738,0.2891459999991639,,,,,,,,,,,,,,,,,,1269,1,2025-09-20_11h21.11.455,sm,2024.2.4,59.96253540771553,2025-09-20 11h21.25.241563 +0200,
35,0,35,,,,,,space,3.513588200000413,None,None,2,None,1.9393589000001157,None,0,0,0,0,,,,,0,0,0,0,,,,,35,0,35,0,383.7965343999995,,,,,,,,,,,,,,,,,,,,,,,,,,,,,,,,,,,,,,,,,,,,,,,,,,,,,,,,,Geschwister,2.6752,383.78164409999954,383.7821544999997,383.7822613999997,383.7965343999995,386.47927059999984,386.46383979999973,386.4672824999998,386.47927059999984,386.47927059999984,386.47927059999984,386.47927059999984,388.47978089999924,388.47978089999924,388.47978089999924,388.47978089999924,388.4639381999996,2,None,1.9393589000001157,None,,,,,,,,,,,,,,,,,,1269,1,2025-09-20_11h21.11.455,sm,2024.2.4,59.96253540771553,2025-09-20 11h21.25.241563 +0200,
36,0,36,,,,,,space,3.513588200000413,None,None,3,None,1.8197774000000209,None,0,0,0,0,,,,,0,0,0,0,,,,,36,0,36,0,388.47978089999924,,,,,,,,,,,,,,,,,,,,,,,,,,,,,,,,,,,,,,,,,,,,,,,,,,,,,,,,,Wissen,2.9067,388.46446469999955,388.46503979999943,388.46514969999953,388.47978089999924,391.3955587999999,391.38032589999966,391.38376289999997,391.3955587999999,391.3955587999999,391.3955587999999,391.3955587999999,393.3958107999997,393.3958107999997,393.3958107999997,393.3958107999997,393.38040659999933,3,None,1.8197774000000209,None,,,,,,,,,,,,,,,,,,1269,1,2025-09-20_11h21.11.455,sm,2024.2.4,59.96253540771553,2025-09-20 11h21.25.241563 +0200,
37,0,37,,,,,,space,3.513588200000413,None,None,3,None,1.4447871000002124,0.4537894999994023,0,0,0,0,,,,,0,0,0,0,,,,,37,0,37,0,393.3958107999997,,,,,,,,,,,,,,,,,,,,,,,,,,,,,,,,,,,,,,,,,,,,,,,,,,,,,,,,,Trauben,2.2332,393.3809179,393.3816922999995,393.3818590000001,393.3958107999997,395.6291019999999,395.613883,395.61787339999955,395.6291019999999,395.6291019999999,395.6291019999999,395.6291019999999,397.6289588999998,397.6289588999998,397.6289588999998,397.6289588999998,397.6131269999996,3,None,1.4447871000002124,0.4537894999994023,,,,,,,,,,,,,,,,,,1269,1,2025-09-20_11h21.11.455,sm,2024.2.4,59.96253540771553,2025-09-20 11h21.25.241563 +0200,
38,0,38,,,,,,space,3.513588200000413,None,None,3,None,1.4091810999998415,0.2748666999996203,0,0,0,0,,,,,0,0,0,0,,,,,38,0,38,0,397.6289588999998,,,,,,,,,,,,,,,,,,,,,,,,,,,,,,,,,,,,,,,,,,,,,,,,,,,,,,,,,Angriff,2.0706,397.6135598999999,397.6140252999994,397.61411469999985,397.6289588999998,399.7121705999998,399.69650939999974,399.70037389999925,399.7121705999998,399.7121705999998,399.7121705999998,399.7121705999998,401.7121540999997,401.7121540999997,401.7121540999997,401.7121540999997,401.69648309999957,3,None,1.4091810999998415,0.2748666999996203,,,,,,,,,,,,,,,,,,1269,1,2025-09-20_11h21.11.455,sm,2024.2.4,59.96253540771553,2025-09-20 11h21.25.241563 +0200,
39,0,39,,,,,,space,3.513588200000413,None,None,3,None,1.153808800000661,0.33304689999931725,0,0,0,0,,,,,0,0,0,0,,,,,39,0,39,0,401.7121540999997,,,,,,,,,,,,,,,,,,,,,,,,,,,,,,,,,,,,,,,,,,,,,,,,,,,,,,,,,Harmonie,2.6732,401.69696209999984,401.69745499999954,401.6975537999997,401.7121540999997,404.3951533999998,404.3793055999995,404.3827007,404.3951533999998,404.3951533999998,404.3951533999998,404.3951533999998,406.3952804999999,406.3952804999999,406.3952804999999,406.3952804999999,406.3796034999996,3,None,1.153808800000661,0.33304689999931725,,,,,,,,,,,,,,,,,,1269,1,2025-09-20_11h21.11.455,sm,2024.2.4,59.96253540771553,2025-09-20 11h21.25.241563 +0200,
40,0,40,,,,,,space,3.513588200000413,None,None,3,None,0.8431171000001996,0.26619510000000446,0,0,0,0,,,,,0,0,0,0,,,,,40,0,40,0,406.3952804999999,,,,,,,,,,,,,,,,,,,,,,,,,,,,,,,,,,,,,,,,,,,,,,,,,,,,,,,,,Tasche,2.795,406.3801154999992,406.38061689999995,406.3807219,406.3952804999999,409.1948935999999,409.17960309999944,409.18460099999993,409.1948935999999,409.1948935999999,409.1948935999999,409.1948935999999,411.19539929999974,411.19539929999974,411.19539929999974,411.19539929999974,411.17932010000004,3,None,0.8431171000001996,0.26619510000000446,,,,,,,,,,,,,,,,,,1269,1,2025-09-20_11h21.11.455,sm,2024.2.4,59.96253540771553,2025-09-20 11h21.25.241563 +0200,
41,0,41,,,,,,space,3.513588200000413,None,None,3,None,1.0333118000007744,0.3924210999994102,0,0,0,0,,,,,0,0,0,0,,,,,41,0,41,0,411.19539929999974,,,,,,,,,,,,,,,,,,,,,,,,,,,,,,,,,,,,,,,,,,,,,,,,,,,,,,,,,Maske,2.0168,411.1798294,411.1805678999999,411.1806796000001,411.19539929999974,413.2118787999998,413.19582159999936,413.19983389999925,413.2118787999998,413.2118787999998,413.2118787999998,413.2118787999998,415.2118453999992,415.2118453999992,415.2118453999992,415.2118453999992,415.1963668999997,3,None,1.0333118000007744,0.3924210999994102,,,,,,,,,,,,,,,,,,1269,1,2025-09-20_11h21.11.455,sm,2024.2.4,59.96253540771553,2025-09-20 11h21.25.241563 +0200,
42,0,42,,,,,,space,3.513588200000413,None,None,3,None,1.067920999999842,0.2801772000002529,0,0,0,0,,,,,0,0,0,0,,,,,42,0,42,0,415.2118453999992,,,,,,,,,,,,,,,,,,,,,,,,,,,,,,,,,,,,,,,,,,,,,,,,,,,,,,,,,Zimt,3.3256,415.1968760999998,415.19745429999966,415.1975593999996,415.2118453999992,418.5440942999994,418.52861219999977,418.5314282999998,418.5440942999994,418.5440942999994,418.5440942999994,418.5440942999994,420.5444211999993,420.5444211999993,420.5444211999993,420.5444211999993,420.5286983999995,3,None,1.067920999999842,0.2801772000002529,,,,,,,,,,,,,,,,,,1269,1,2025-09-20_11h21.11.455,sm,2024.2.4,59.96253540771553,2025-09-20 11h21.25.241563 +0200,
43,0,43,,,,,,space,3.513588200000413,None,None,3,None,1.0853766999998697,0.2896178000000873,0,0,0,0,,,,,0,0,0,0,,,,,43,0,43,0,420.5444211999993,,,,,,,,,,,,,,,,,,,,,,,,,,,,,,,,,,,,,,,,,,,,,,,,,,,,,,,,,Sturm,2.0448,420.52922129999934,420.5297351999998,420.5298419999999,420.5444211999993,422.5941473999992,422.57871989999967,422.5828739999997,422.5941473999992,422.5941473999992,422.5941473999992,422.5941473999992,424.594118,424.594118,424.594118,424.594118,424.5783117000001,3,None,1.0853766999998697,0.2896178000000873,,,,,,,,,,,,,,,,,,1269,1,2025-09-20_11h21.11.455,sm,2024.2.4,59.96253540771553,2025-09-20 11h21.25.241563 +0200,
44,0,44,,,,,,space,3.513588200000413,None,None,3,None,0.981955499999458,0.2833059000004141,0,0,0,0,,,,,0,0,0,0,,,,,44,0,44,0,424.594118,,,,,,,,,,,,,,,,,,,,,,,,,,,,,,,,,,,,,,,,,,,,,,,,,,,,,,,,,Asche,3.271,424.5787440999993,424.5792062999999,424.5792965999999,424.594118,427.87726979999934,427.8618674999998,427.86586629999965,427.87726979999934,427.87726979999934,427.87726979999934,427.87726979999934,429.8772657999998,429.8772657999998,429.8772657999998,429.8772657999998,429.86148950000006,3,None,0.981955499999458,0.2833059000004141,,,,,,,,,,,,,,,,,,1269,1,2025-09-20_11h21.11.455,sm,2024.2.4,59.96253540771553,2025-09-20 11h21.25.241563 +0200,
45,0,45,,,,,,space,3.513588200000413,None,None,3,None,1.100552100000641,0.26268809999965015,0,0,0,0,,,,,0,0,0,0,,,,,45,0,45,0,429.8772657999998,,,,,,,,,,,,,,,,,,,,,,,,,,,,,,,,,,,,,,,,,,,,,,,,,,,,,,,,,Bus,3.5877,429.86199529999976,429.8627356999996,429.8628467999997,429.8772657999998,433.4768888999997,433.4612972999994,433.4645832999995,433.4768888999997,433.4768888999997,433.4768888999997,433.4768888999997,435.4766581999993,435.4766581999993,435.4766581999993,435.4766581999993,435.4611735999997,3,None,1.100552100000641,0.26268809999965015,,,,,,,,,,,,,,,,,,1269,1,2025-09-20_11h21.11.455,sm,2024.2.4,59.96253540771553,2025-09-20 11h21.25.241563 +0200,
46,0,46,,,,,,space,3.513588200000413,None,None,3,None,1.1344793000007485,0.27955199999996694,0,0,0,0,,,,,0,0,0,0,,,,,46,0,46,0,435.4766581999993,,,,,,,,,,,,,,,,,,,,,,,,,,,,,,,,,,,,,,,,,,,,,,,,,,,,,,,,,Kuchen ,3.4561,435.4617387999997,435.46226449999995,435.46237029999975,435.4766581999993,438.94298489999983,438.927772,438.93180649999977,438.94298489999983,438.94298489999983,438.94298489999983,438.94298489999983,440.9433188999992,440.9433188999992,440.9433188999992,440.9433188999992,440.92768909999995,3,None,1.1344793000007485,0.27955199999996694,,,,,,,,,,,,,,,,,,1269,1,2025-09-20_11h21.11.455,sm,2024.2.4,59.96253540771553,2025-09-20 11h21.25.241563 +0200,
47,0,47,,,,,,space,3.513588200000413,None,None,3,None,1.4694413999995959,0.22787330000028305,0,0,0,0,,,,,0,0,0,0,,,,,47,0,47,0,440.9433188999992,,,,,,,,,,,,,,,,,,,,,,,,,,,,,,,,,,,,,,,,,,,,,,,,,,,,,,,,,Film,2.8292,440.92819299999974,440.9288386999997,440.92894720000004,440.9433188999992,443.7764387999996,443.76039390000005,443.7675298999993,443.7764387999996,443.7764387999996,443.7764387999996,443.7764387999996,445.7763006999994,445.7763006999994,445.7763006999994,445.7763006999994,445.76070829999935,3,None,1.4694413999995959,0.22787330000028305,,,,,,,,,,,,,,,,,,1269,1,2025-09-20_11h21.11.455,sm,2024.2.4,59.96253540771553,2025-09-20 11h21.25.241563 +0200,
48,0,48,,,,,,space,3.513588200000413,None,None,3,None,1.2893637999995917,0.40399280000019644,0,0,0,0,,,,,0,0,0,0,,,,,48,0,48,0,445.7763006999994,,,,,,,,,,,,,,,,,,,,,,,,,,,,,,,,,,,,,,,,,,,,,,,,,,,,,,,,,Netz,2.3546,445.7612167999996,445.7618950999995,445.76200439999957,445.7763006999994,448.1427300999994,448.1272483999992,448.1304492999998,448.1427300999994,448.1427300999994,448.1427300999994,448.1427300999994,450.14280469999994,450.14280469999994,450.14280469999994,450.14280469999994,450.1271014999993,3,None,1.2893637999995917,0.40399280000019644,,,,,,,,,,,,,,,,,,1269,1,2025-09-20_11h21.11.455,sm,2024.2.4,59.96253540771553,2025-09-20 11h21.25.241563 +0200,
49,0,49,,,,,,space,3.513588200000413,None,None,3,None,0.7647816999997303,0.2503260000003138,0,0,0,0,,,,,0,0,0,0,,,,,49,0,49,0,450.14280469999994,,,,,,,,,,,,,,,,,,,,,,,,,,,,,,,,,,,,,,,,,,,,,,,,,,,,,,,,,Ordner,3.7702,450.12761319999936,450.1281973999994,450.1283046999997,450.14280469999994,453.9258542999996,453.91003589999946,453.9164863999995,453.9258542999996,453.9258542999996,453.9258542999996,453.9258542999996,455.9256773999996,455.9256773999996,455.9256773999996,455.9256773999996,455.9100770999994,3,None,0.7647816999997303,0.2503260000003138,,,,,,,,,,,,,,,,,,1269,1,2025-09-20_11h21.11.455,sm,2024.2.4,59.96253540771553,2025-09-20 11h21.25.241563 +0200,
50,0,50,,,,,,space,3.513588200000413,None,None,3,None,1.2791064999992159,0.18641030000071623,0,0,0,0,,,,,0,0,0,0,,,,,50,0,50,0,455.9256773999996,,,,,,,,,,,,,,,,,,,,,,,,,,,,,,,,,,,,,,,,,,,,,,,,,,,,,,,,,Bart,3.0145,455.91058989999965,455.9110955999995,455.9112034,455.9256773999996,458.9419146,458.9262097000001,458.92937509999956,458.9419146,458.9419146,458.9419146,458.9419146,460.9421083999996,460.9421083999996,460.9421083999996,460.9421083999996,460.9268304999996,3,None,1.2791064999992159,0.18641030000071623,,,,,,,,,,,,,,,,,,1269,1,2025-09-20_11h21.11.455,sm,2024.2.4,59.96253540771553,2025-09-20 11h21.25.241563 +0200,
51,0,51,,,,,,space,3.513588200000413,None,None,3,None,1.475277399999868,0.25996739999936835,0,0,0,0,,,,,0,0,0,0,,,,,51,0,51,0,460.9421083999996,,,,,,,,,,,,,,,,,,,,,,,,,,,,,,,,,,,,,,,,,,,,,,,,,,,,,,,,,Essen,2.4441,460.92733939999925,460.92785209999965,460.9279607999997,460.9421083999996,463.3917187999996,463.37595429999965,463.37911579999945,463.3917187999996,463.3917187999996,463.3917187999996,463.3917187999996,465.39175479999994,465.39175479999994,465.39175479999994,465.39175479999994,465.3760158999994,3,None,1.475277399999868,0.25996739999936835,,,,,,,,,,,,,,,,,,1269,1,2025-09-20_11h21.11.455,sm,2024.2.4,59.96253540771553,2025-09-20 11h21.25.241563 +0200,
52,0,52,,,,,,space,3.513588200000413,None,None,3,None,0.8879649999998946,0.23996140000053856,0,0,0,0,,,,,0,0,0,0,,,,,52,0,52,0,465.39175479999994,,,,,,,,,,,,,,,,,,,,,,,,,,,,,,,,,,,,,,,,,,,,,,,,,,,,,,,,,Humor,3.8781,465.37644529999943,465.3769284,465.37701879999986,465.39175479999994,469.27496059999976,469.2593047999999,469.2632810999994,469.27496059999976,469.27496059999976,469.27496059999976,469.27496059999976,471.27478019999944,471.27478019999944,471.27478019999944,471.27478019999944,471.25920679999945,3,None,0.8879649999998946,0.23996140000053856,,,,,,,,,,,,,,,,,,1269,1,2025-09-20_11h21.11.455,sm,2024.2.4,59.96253540771553,2025-09-20 11h21.25.241563 +0200,
53,0,53,,,,,,space,3.513588200000413,None,None,3,None,0.9603045000003476,0.4286658000000898,0,0,0,0,,,,,0,0,0,0,,,,,53,0,53,0,471.27478019999944,,,,,,,,,,,,,,,,,,,,,,,,,,,,,,,,,,,,,,,,,,,,,,,,,,,,,,,,,Gel,2.4786,471.2597191999994,471.2604618999994,471.26056999999946,471.27478019999944,473.75783429999956,473.7421719999993,473.7459394999996,473.75783429999956,473.75783429999956,473.75783429999956,473.75783429999956,475.7579231999998,475.7579231999998,475.7579231999998,475.7579231999998,475.7424167999998,3,None,0.9603045000003476,0.4286658000000898,,,,,,,,,,,,,,,,,,1269,1,2025-09-20_11h21.11.455,sm,2024.2.4,59.96253540771553,2025-09-20 11h21.25.241563 +0200,
54,0,54,,,,,,space,3.513588200000413,None,None,3,None,0.9543725999992603,0.2603843000006236,0,0,0,0,,,,,0,0,0,0,,,,,54,0,54,0,475.7579231999998,,,,,,,,,,,,,,,,,,,,,,,,,,,,,,,,,,,,,,,,,,,,,,,,,,,,,,,,,Strand,2.3572,475.7429284,475.7435287999997,475.7436351999995,475.7579231999998,478.12384139999995,478.1088055,478.11202069999945,478.12384139999995,478.12384139999995,478.12384139999995,478.12384139999995,480.1242837,480.1242837,480.1242837,480.1242837,480.10855249999986,3,None,0.9543725999992603,0.2603843000006236,,,,,,,,,,,,,,,,,,1269,1,2025-09-20_11h21.11.455,sm,2024.2.4,59.96253540771553,2025-09-20 11h21.25.241563 +0200,
55,0,55,,,,,,space,3.513588200000413,None,None,3,None,0.9153303000002779,0.310377900000276,0,0,0,0,,,,,0,0,0,0,,,,,55,0,55,0,480.1242837,,,,,,,,,,,,,,,,,,,,,,,,,,,,,,,,,,,,,,,,,,,,,,,,,,,,,,,,,Raum,3.5951,480.1090658999992,480.1095773999996,480.1096843999994,480.1242837,483.723884,483.7082980999994,483.7114337999992,483.723884,483.723884,483.723884,483.723884,485.7238267999992,485.7238267999992,485.7238267999992,485.7238267999992,485.7083853999993,3,None,0.9153303000002779,0.310377900000276,,,,,,,,,,,,,,,,,,1269,1,2025-09-20_11h21.11.455,sm,2024.2.4,59.96253540771553,2025-09-20 11h21.25.241563 +0200,
56,0,56,,,,,,space,3.513588200000413,None,None,2,None,0.9165363000001889,0.24852999999984604,0,0,0,0,,,,,0,0,0,0,,,,,56,0,56,0,485.7238267999992,,,,,,,,,,,,,,,,,,,,,,,,,,,,,,,,,,,,,,,,,,,,,,,,,,,,,,,,,Leute,4.1747,485.70889839999927,485.70940809999956,485.7095129999998,485.7238267999992,489.9066821999995,489.89092789999995,489.89418899999964,489.9066821999995,489.9066821999995,489.9066821999995,489.9066821999995,491.90701889999946,491.90701889999946,491.90701889999946,491.90701889999946,491.8913817999992,2,None,0.9165363000001889,0.24852999999984604,,,,,,,,,,,,,,,,,,1269,1,2025-09-20_11h21.11.455,sm,2024.2.4,59.96253540771553,2025-09-20 11h21.25.241563 +0200,
57,0,57,,,,,,space,3.513588200000413,None,None,3,None,1.1075626000001648,0.267288500000177,0,0,0,0,,,,,0,0,0,0,,,,,57,0,57,0,491.90701889999946,,,,,,,,,,,,,,,,,,,,,,,,,,,,,,,,,,,,,,,,,,,,,,,,,,,,,,,,,Schlamm,2.0913,491.8918946999993,491.8923998,491.8925053999992,491.90701889999946,494.00657369999954,493.9909908999998,493.99505659999977,494.00657369999954,494.00657369999954,494.00657369999954,494.00657369999954,496.00659389999964,496.00659389999964,496.00659389999964,496.00659389999964,495.9912921999994,3,None,1.1075626000001648,0.267288500000177,,,,,,,,,,,,,,,,,,1269,1,2025-09-20_11h21.11.455,sm,2024.2.4,59.96253540771553,2025-09-20 11h21.25.241563 +0200,
58,0,58,,,,,,space,3.513588200000413,None,None,3,None,1.7632879000002504,None,0,0,0,0,,,,,0,0,0,0,,,,,58,0,58,0,496.00659389999964,,,,,,,,,,,,,,,,,,,,,,,,,,,,,,,,,,,,,,,,,,,,,,,,,,,,,,,,,Blatt,2.6508,495.9918190999997,495.9925085999994,495.9926177999996,496.00659389999964,498.65641289999985,498.64072359999955,498.6443485,498.65641289999985,498.65641289999985,498.65641289999985,498.65641289999985,500.65653010000005,500.65653010000005,500.65653010000005,500.65653010000005,500.6408346999997,3,None,1.7632879000002504,None,,,,,,,,,,,,,,,,,,1269,1,2025-09-20_11h21.11.455,sm,2024.2.4,59.96253540771553,2025-09-20 11h21.25.241563 +0200,
59,0,59,,,,,,space,3.513588200000413,None,None,3,None,1.1462260999996943,0.26232160000017757,0,0,0,0,,,,,0,0,0,0,,,,,59,0,59,0,500.65653010000005,,,,,,,,,,,,,,,,,,,,,,,,,,,,,,,,,,,,,,,,,,,,,,,,,,,,,,,,,Tee,2.408,500.64132319999953,500.64185259999977,500.64194899999984,500.65653010000005,503.0738142,503.0570310999992,503.06004719999964,503.0738142,503.0738142,503.0738142,503.0738142,505.0727881999992,505.0727881999992,505.0727881999992,505.0727881999992,505.0572853999993,3,None,1.1462260999996943,0.26232160000017757,,,,,,,,,,,,,,,,,,1269,1,2025-09-20_11h21.11.455,sm,2024.2.4,59.96253540771553,2025-09-20 11h21.25.241563 +0200,
60,0,60,,,,,,space,3.513588200000413,None,None,3,None,1.635715500000515,0.2543378999998822,0,0,0,0,,,,,0,0,0,0,,,,,60,0,60,0,505.0727881999992,,,,,,,,,,,,,,,,,,,,,,,,,,,,,,,,,,,,,,,,,,,,,,,,,,,,,,,,,Juwel,2.0913,505.0578085999996,505.05831659999967,505.05842439999924,505.0727881999992,507.1723243999995,507.1569841999999,507.1644030999996,507.1723243999995,507.1723243999995,507.1723243999995,507.1723243999995,509.17254669999966,509.17254669999966,509.17254669999966,509.17254669999966,509.15713419999975,3,None,1.635715500000515,0.2543378999998822,,,,,,,,,,,,,,,,,,1269,1,2025-09-20_11h21.11.455,sm,2024.2.4,59.96253540771553,2025-09-20 11h21.25.241563 +0200,
61,0,61,,,,,,space,3.513588200000413,None,None,3,None,1.1153884000004837,0.35249839999960386,0,0,0,0,,,,,0,0,0,0,,,,,61,0,61,0,509.17254669999966,,,,,,,,,,,,,,,,,,,,,,,,,,,,,,,,,,,,,,,,,,,,,,,,,,,,,,,,,Arbeit,2.193,509.1576516999994,509.1581693999997,509.1582731999997,509.17254669999966,511.3721566999993,511.3565615999996,511.3602314,511.3721566999993,511.3721566999993,511.3721566999993,511.3721566999993,513.3722902999998,513.3722902999998,513.3722902999998,513.3722902999998,513.3568294999995,3,None,1.1153884000004837,0.35249839999960386,,,,,,,,,,,,,,,,,,1269,1,2025-09-20_11h21.11.455,sm,2024.2.4,59.96253540771553,2025-09-20 11h21.25.241563 +0200,
62,0,62,,,,,,space,3.513588200000413,None,None,2,None,0.9262278000005608,0.32667289999972127,0,0,0,0,,,,,0,0,0,0,,,,,62,0,62,0,513.3722902999998,,,,,,,,,,,,,,,,,,,,,,,,,,,,,,,,,,,,,,,,,,,,,,,,,,,,,,,,,Präsident,3.8276,513.3573358999993,513.3579921,513.3580991999997,513.3722902999998,517.2051775999998,517.1898576999993,517.1935497999993,517.2051775999998,517.2051775999998,517.2051775999998,517.2051775999998,519.2053741999998,519.2053741999998,519.2053741999998,519.2053741999998,519.1895341999998,2,None,0.9262278000005608,0.32667289999972127,,,,,,,,,,,,,,,,,,1269,1,2025-09-20_11h21.11.455,sm,2024.2.4,59.96253540771553,2025-09-20 11h21.25.241563 +0200,
63,0,63,,,,,,space,3.513588200000413,None,None,3,None,1.023217900000418,0.2154064999995171,0,0,0,0,,,,,0,0,0,0,,,,,63,0,63,0,519.2053741999998,,,,,,,,,,,,,,,,,,,,,,,,,,,,,,,,,,,,,,,,,,,,,,,,,,,,,,,,,Himmel,4.2706,519.1900553999994,519.1905676999995,519.190681,519.2053741999998,523.4884211999997,523.4725382999995,523.4756374999997,523.4884211999997,523.4884211999997,523.4884211999997,523.4884211999997,525.4883980999994,525.4883980999994,525.4883980999994,525.4883980999994,525.4729721999993,3,None,1.023217900000418,0.2154064999995171,,,,,,,,,,,,,,,,,,1269,1,2025-09-20_11h21.11.455,sm,2024.2.4,59.96253540771553,2025-09-20 11h21.25.241563 +0200,
64,0,64,,,,,,space,3.513588200000413,None,None,3,None,1.1624751999997898,0.2568271000000095,0,0,0,0,,,,,0,0,0,0,,,,,64,0,64,0,525.4883980999994,,,,,,,,,,,,,,,,,,,,,,,,,,,,,,,,,,,,,,,,,,,,,,,,,,,,,,,,,Spülung,2.2139,525.4734863999993,525.4740002999997,525.4741079999994,525.4883980999994,527.7047253999999,527.6891824999993,527.6926027999998,527.7047253999999,527.7047253999999,527.7047253999999,527.7047253999999,529.7047809999995,529.7047809999995,529.7047809999995,529.7047809999995,529.6892896999998,3,None,1.1624751999997898,0.2568271000000095,,,,,,,,,,,,,,,,,,1269,1,2025-09-20_11h21.11.455,sm,2024.2.4,59.96253540771553,2025-09-20 11h21.25.241563 +0200,
65,0,65,,,,,,space,3.513588200000413,None,None,3,None,1.083364199999778,0.3430231000002095,0,0,0,0,,,,,0,0,0,0,,,,,65,0,65,0,529.7047809999995,,,,,,,,,,,,,,,,,,,,,,,,,,,,,,,,,,,,,,,,,,,,,,,,,,,,,,,,,Fuß,2.6819,529.6897994999999,529.6903761999993,529.6904820999998,529.7047809999995,532.3880463999994,532.3721649999998,532.3760042999993,532.3880463999994,532.3880463999994,532.3880463999994,532.3880463999994,534.3878674999996,534.3878674999996,534.3878674999996,534.3878674999996,534.3721183999996,3,None,1.083364199999778,0.3430231000002095,,,,,,,,,,,,,,,,,,1269,1,2025-09-20_11h21.11.455,sm,2024.2.4,59.96253540771553,2025-09-20 11h21.25.241563 +0200,
66,0,66,,,,,,space,3.513588200000413,None,None,3,None,1.0608432999997603,0.3067767000002277,0,0,0,0,,,,,0,0,0,0,,,,,66,0,66,0,534.3878674999996,,,,,,,,,,,,,,,,,,,,,,,,,,,,,,,,,,,,,,,,,,,,,,,,,,,,,,,,,Kappe,2.295,534.3726288999997,534.3731395999994,534.3732482999994,534.3878674999996,536.6872524,536.6719088999998,536.6775011,536.6872524,536.6872524,536.6872524,536.6872524,538.6876311999995,538.6876311999995,538.6876311999995,538.6876311999995,538.6720295999994,3,None,1.0608432999997603,0.3067767000002277,,,,,,,,,,,,,,,,,,1269,1,2025-09-20_11h21.11.455,sm,2024.2.4,59.96253540771553,2025-09-20 11h21.25.241563 +0200,
67,0,67,,,,,,space,3.513588200000413,None,None,2,None,0.840186200000062,0.2792922999997245,0,0,0,0,,,,,0,0,0,0,,,,,67,0,67,0,538.6876311999995,,,,,,,,,,,,,,,,,,,,,,,,,,,,,,,,,,,,,,,,,,,,,,,,,,,,,,,,,Vogel,3.1846,538.6725429999997,538.6730603999995,538.6731702999996,538.6876311999995,541.8869814999998,541.8715063999998,541.8749924999993,541.8869814999998,541.8869814999998,541.8869814999998,541.8869814999998,543.8872257999992,543.8872257999992,543.8872257999992,543.8872257999992,543.8717522999996,2,None,0.840186200000062,0.2792922999997245,,,,,,,,,,,,,,,,,,1269,1,2025-09-20_11h21.11.455,sm,2024.2.4,59.96253540771553,2025-09-20 11h21.25.241563 +0200,
68,0,68,,,,,,space,3.513588200000413,None,None,3,None,1.328028500000073,0.2561833999998271,0,0,0,0,,,,,0,0,0,0,,,,,68,0,68,0,543.8872257999992,,,,,,,,,,,,,,,,,,,,,,,,,,,,,,,,,,,,,,,,,,,,,,,,,,,,,,,,,Erbe,2.1593,543.8722616999994,543.8728395999997,543.8729481999999,543.8872257999992,546.0537620999994,546.0381907000001,546.0417155999994,546.0537620999994,546.0537620999994,546.0537620999994,546.0537620999994,548.0536843999998,548.0536843999998,548.0536843999998,548.0536843999998,548.0379982999993,3,None,1.328028500000073,0.2561833999998271,,,,,,,,,,,,,,,,,,1269,1,2025-09-20_11h21.11.455,sm,2024.2.4,59.96253540771553,2025-09-20 11h21.25.241563 +0200,
69,0,69,,,,,,space,3.513588200000413,None,None,3,None,1.195161999999982,0.3005997000000207,0,0,0,0,,,,,0,0,0,0,,,,,69,0,69,0,548.0536843999998,,,,,,,,,,,,,,,,,,,,,,,,,,,,,,,,,,,,,,,,,,,,,,,,,,,,,,,,,Arm,2.0602,548.0385147999996,548.0390319999997,548.0391411999999,548.0536843999998,550.1200752999994,550.1044910999999,550.1080987999994,550.1200752999994,550.1200752999994,550.1200752999994,550.1200752999994,552.1200629999994,552.1200629999994,552.1200629999994,552.1200629999994,552.1046879999994,3,None,1.195161999999982,0.3005997000000207,,,,,,,,,,,,,,,,,,1269,1,2025-09-20_11h21.11.455,sm,2024.2.4,59.96253540771553,2025-09-20 11h21.25.241563 +0200,
70,0,70,,,,,,space,3.513588200000413,None,None,2,None,1.3119340000002921,0.2382867999995142,0,0,0,0,,,,,0,0,0,0,,,,,70,0,70,0,552.1200629999994,,,,,,,,,,,,,,,,,,,,,,,,,,,,,,,,,,,,,,,,,,,,,,,,,,,,,,,,,Kunde,2.1955,552.1051963,552.1057862999996,552.1058911,552.1200629999994,554.3198921999992,554.3043303999993,554.3077008999999,554.3198921999992,554.3198921999992,554.3198921999992,554.3198921999992,556.3198911999998,556.3198911999998,556.3198911999998,556.3198911999998,556.3041438999999,2,None,1.3119340000002921,0.2382867999995142,,,,,,,,,,,,,,,,,,1269,1,2025-09-20_11h21.11.455,sm,2024.2.4,59.96253540771553,2025-09-20 11h21.25.241563 +0200,
71,0,71,,,,,,space,3.513588200000413,None,None,3,None,1.057469299999866,0.27017520000026707,0,0,0,0,,,,,0,0,0,0,,,,,71,0,71,0,556.3198911999998,,,,,,,,,,,,,,,,,,,,,,,,,,,,,,,,,,,,,,,,,,,,,,,,,,,,,,,,,Foto,3.985,556.3046595999995,556.3053143999996,556.3054223999998,556.3198911999998,560.3195833999998,560.3041650999994,560.308145,560.3195833999998,560.3195833999998,560.3195833999998,560.3195833999998,562.3195271999994,562.3195271999994,562.3195271999994,562.3195271999994,562.3039699000001,3,None,1.057469299999866,0.27017520000026707,,,,,,,,,,,,,,,,,,1269,1,2025-09-20_11h21.11.455,sm,2024.2.4,59.96253540771553,2025-09-20 11h21.25.241563 +0200,
72,0,72,,,,,,space,3.513588200000413,None,None,2,None,1.3451881000000867,0.2593434000000343,0,0,0,0,,,,,0,0,0,0,,,,,72,0,72,0,562.3195271999994,,,,,,,,,,,,,,,,,,,,,,,,,,,,,,,,,,,,,,,,,,,,,,,,,,,,,,,,,Handwerker,2.7961,562.3044824999997,562.3051191999994,562.3052251999998,562.3195271999994,565.1191025999997,565.1035507999995,565.1079035999992,565.1191025999997,565.1191025999997,565.1191025999997,565.1191025999997,567.1192687999992,567.1192687999992,567.1192687999992,567.1192687999992,567.1036116999994,2,None,1.3451881000000867,0.2593434000000343,,,,,,,,,,,,,,,,,,1269,1,2025-09-20_11h21.11.455,sm,2024.2.4,59.96253540771553,2025-09-20 11h21.25.241563 +0200,
73,0,73,,,,,,space,3.513588200000413,None,None,3,None,0.8897004000000379,0.24337999999988824,0,0,0,0,,,,,0,0,0,0,,,,,73,0,73,0,567.1192687999992,,,,,,,,,,,,,,,,,,,,,,,,,,,,,,,,,,,,,,,,,,,,,,,,,,,,,,,,,Sicherheit,2.6237,567.1041287999997,567.104668,567.1047761999998,567.1192687999992,569.7523582999993,569.7369491,569.7413270999996,569.7523582999993,569.7523582999993,569.7523582999993,569.7523582999993,571.7523482999995,571.7523482999995,571.7523482999995,571.7523482999995,571.7363084999997,3,None,0.8897004000000379,0.24337999999988824,,,,,,,,,,,,,,,,,,1269,1,2025-09-20_11h21.11.455,sm,2024.2.4,59.96253540771553,2025-09-20 11h21.25.241563 +0200,
74,0,74,,,,,,space,3.513588200000413,None,None,2,None,0.919234800000595,0.147601399999985,0,0,0,0,,,,,0,0,0,0,,,,,74,0,74,0,571.7523482999995,,,,,,,,,,,,,,,,,,,,,,,,,,,,,,,,,,,,,,,,,,,,,,,,,,,,,,,,,Hase,4.5693,571.7367209999993,571.7374700999999,571.737556,571.7523482999995,576.3353585999994,576.3196813999994,576.3232582,576.3353585999994,576.3353585999994,576.3353585999994,576.3353585999994,578.3356062999992,578.3356062999992,578.3356062999992,578.3356062999992,578.3198225999995,2,None,0.919234800000595,0.147601399999985,,,,,,,,,,,,,,,,,,1269,1,2025-09-20_11h21.11.455,sm,2024.2.4,59.96253540771553,2025-09-20 11h21.25.241563 +0200,
75,0,75,,,,,,space,3.513588200000413,None,None,3,None,0.9494909000004554,0.36322500000005675,0,0,0,0,,,,,0,0,0,0,,,,,75,0,75,0,578.3356062999992,,,,,,,,,,,,,,,,,,,,,,,,,,,,,,,,,,,,,,,,,,,,,,,,,,,,,,,,,Flut,4.7866,578.3203186999999,578.3208246999993,578.3209303999993,578.3356062999992,583.1349070999995,583.1190739999993,583.1225540999994,583.1349070999995,583.1349070999995,583.1349070999995,583.1349070999995,585.1346217999999,585.1346217999999,585.1346217999999,585.1346217999999,585.1192081999998,3,None,0.9494909000004554,0.36322500000005675,,,,,,,,,,,,,,,,,,1269,1,2025-09-20_11h21.11.455,sm,2024.2.4,59.96253540771553,2025-09-20 11h21.25.241563 +0200,
76,0,76,,,,,,space,3.513588200000413,None,None,3,None,1.0883052999997744,0.33606849999978294,0,0,0,0,,,,,0,0,0,0,,,,,76,0,76,0,585.1346217999999,,,,,,,,,,,,,,,,,,,,,,,,,,,,,,,,,,,,,,,,,,,,,,,,,,,,,,,,,Apfel,3.4619,585.1197208999993,585.1202334999998,585.1203437999993,585.1346217999999,588.6012223999996,588.5852545999996,588.5884066999997,588.6012223999996,588.6012223999996,588.6012223999996,588.6012223999996,590.6013432999998,590.6013432999998,590.6013432999998,590.6013432999998,590.5857336999998,3,None,1.0883052999997744,0.33606849999978294,,,,,,,,,,,,,,,,,,1269,1,2025-09-20_11h21.11.455,sm,2024.2.4,59.96253540771553,2025-09-20 11h21.25.241563 +0200,
77,0,77,,,,,,space,3.513588200000413,None,None,3,None,1.4135048999996798,0.3006885000004331,0,0,0,0,,,,,0,0,0,0,,,,,77,0,77,0,590.6013432999998,,,,,,,,,,,,,,,,,,,,,,,,,,,,,,,,,,,,,,,,,,,,,,,,,,,,,,,,,Olympia,2.8367,590.5862397999999,590.5869356999992,590.5870462999992,590.6013432999998,593.4506108999994,593.4355719999994,593.4418053999998,593.4506108999994,593.4506108999994,593.4506108999994,593.4506108999994,595.4508083999999,595.4508083999999,595.4508083999999,595.4508083999999,595.4350949999998,3,None,1.4135048999996798,0.3006885000004331,,,,,,,,,,,,,,,,,,1269,1,2025-09-20_11h21.11.455,sm,2024.2.4,59.96253540771553,2025-09-20 11h21.25.241563 +0200,
78,0,78,,,,,,space,3.513588200000413,None,None,2,None,1.166988500000116,0.2723034999999072,0,0,0,0,,,,,0,0,0,0,,,,,78,0,78,0,595.4508083999999,,,,,,,,,,,,,,,,,,,,,,,,,,,,,,,,,,,,,,,,,,,,,,,,,,,,,,,,,Fliegen,5.1625,595.4355846999997,595.4360751999993,595.4361786,595.4508083999999,600.6172456999993,600.6014898999993,600.6063329999997,600.6172456999993,600.6172456999993,600.6172456999993,600.6172456999993,602.6171385999996,602.6171385999996,602.6171385999996,602.6171385999996,602.6014645999994,2,None,1.166988500000116,0.2723034999999072,,,,,,,,,,,,,,,,,,1269,1,2025-09-20_11h21.11.455,sm,2024.2.4,59.96253540771553,2025-09-20 11h21.25.241563 +0200,
79,0,79,,,,,,space,3.513588200000413,None,None,3,None,0.9771588000003248,0.3047809999998208,0,0,0,0,,,,,0,0,0,0,,,,,79,0,79,0,602.6171385999996,,,,,,,,,,,,,,,,,,,,,,,,,,,,,,,,,,,,,,,,,,,,,,,,,,,,,,,,,Mund,2.3483,602.6019308999994,602.6025634999996,602.6026634,602.6171385999996,604.9668527999993,604.9513073999997,604.9542242999996,604.9668527999993,604.9668527999993,604.9668527999993,604.9668527999993,606.9777566999992,606.9777566999992,606.9777566999992,606.9777566999992,606.9512872999994,3,None,0.9771588000003248,0.3047809999998208,,,,,,,,,,,,,,,,,,1269,1,2025-09-20_11h21.11.455,sm,2024.2.4,59.96253540771553,2025-09-20 11h21.25.241563 +0200,
0,0,0,,,,,4.7866,space,1.741664000000128,None,None,2,None,1.477867100000367,0.2855965999997352,0,0,0,0,,,,,1,0,1,0,0,79,79,48,0,0,0,0,654.3641487999994,,,,,,,,,,,,,,,,,,,,,,,,,,,,,,,,,,,,628.3299275999998,628.3301652,628.3363559,628.3410054999995,628.3410054999995,630.0845421999993,space,1.741664000000128,None,630.0847058999998,630.0987425999992,630.0987425999992,642.3493130999996,None,642.3566676999999,642.3645367999998,642.3647556666667,643.5714982,652.3643927666665,653.3712544999998,654.3484097,Elephant,4.7866,654.3497356999997,654.3503584999999,654.3504648999997,654.3641487999994,659.1639009,659.1485954999998,659.1525685999995,659.1639009,659.1639009,659.1639009,659.1639009,661.1638555,661.1638555,661.1638555,661.1638555,661.1482702999992,2,None,1.477867100000367,0.2855965999997352,618.9665817999994,618.9666613999998,None,618.9754948999998,618.9848787999999,622.9826070999998,622.9826070999998,622.9993184999994,628.2839172999993,2,5.292096700000002,None,654.3641487999994,,,,,1269,1,2025-09-20_11h21.11.455,sm,2024.2.4,59.96253540771553,2025-09-20 11h21.25.241563 +0200,
1,0,1,,,,,,space,1.741664000000128,None,None,3,None,0.9298228999996354,0.25587329999962094,0,0,0,0,,,,,1,0,1,0,,,,,1,0,1,0,661.1638555,,,,,,,,,,,,,,,,,,,,,,,,,,,,,,,,,,,,,,,,,,,,,,,,,,,,,,,,,Zirkus,2.0913,661.1487878999997,661.1493393000001,661.1494475,661.1638555,663.2634541999996,663.2485405999996,663.2525888999999,663.2634541999996,663.2634541999996,663.2634541999996,663.2634541999996,665.2634470999992,665.2634470999992,665.2634470999992,665.2634470999992,665.2482823999999,3,None,0.9298228999996354,0.25587329999962094,,,,,,,,,,,,,,,,,,1269,1,2025-09-20_11h21.11.455,sm,2024.2.4,59.96253540771553,2025-09-20 11h21.25.241563 +0200,
2,0,2,,,,,,space,1.741664000000128,None,None,3,None,0.9495661000000837,0.28218420000030164,0,0,0,0,,,,,1,0,1,0,,,,,2,0,2,0,665.2634470999992,,,,,,,,,,,,,,,,,,,,,,,,,,,,,,,,,,,,,,,,,,,,,,,,,,,,,,,,,Geheimnis,4.5325,665.2487949999995,665.2493123999993,665.2494154999995,665.2634470999992,669.7965323999997,669.7811443999999,669.7855019999997,669.7965323999997,669.7965323999997,669.7965323999997,669.7965323999997,671.7965107999999,671.7965107999999,671.7965107999999,671.7965107999999,671.7809391999999,3,None,0.9495661000000837,0.28218420000030164,,,,,,,,,,,,,,,,,,1269,1,2025-09-20_11h21.11.455,sm,2024.2.4,59.96253540771553,2025-09-20 11h21.25.241563 +0200,
3,0,3,,,,,,space,1.741664000000128,None,None,3,None,0.726005499999701,0.23099960000035935,0,0,0,0,,,,,1,0,1,0,,,,,3,0,3,0,671.7965107999999,,,,,,,,,,,,,,,,,,,,,,,,,,,,,,,,,,,,,,,,,,,,,,,,,,,,,,,,,Schreibtisch,2.0448,671.7814558999999,671.7821873999992,671.7822911999992,671.7965107999999,673.8466383999994,673.8306164999995,673.8346465999994,673.8466383999994,673.8466383999994,673.8466383999994,673.8466383999994,675.8463376999998,675.8463376999998,675.8463376999998,675.8463376999998,675.8308060999998,3,None,0.726005499999701,0.23099960000035935,,,,,,,,,,,,,,,,,,1269,1,2025-09-20_11h21.11.455,sm,2024.2.4,59.96253540771553,2025-09-20 11h21.25.241563 +0200,
4,0,4,,,,,,space,1.741664000000128,None,None,3,None,1.1438951000000088,0.3411193000001731,0,0,0,0,,,,,1,0,1,0,,,,,4,0,4,0,675.8463376999998,,,,,,,,,,,,,,,,,,,,,,,,,,,,,,,,,,,,,,,,,,,,,,,,,,,,,,,,,Brille,4.2706,675.8313162999993,675.8320508999996,675.8321594999998,675.8463376999998,680.1290774999998,680.1134036999993,680.1173181999993,680.1290774999998,680.1290774999998,680.1290774999998,680.1290774999998,682.1290251999999,682.1290251999999,682.1290251999999,682.1290251999999,682.1139370000001,3,None,1.1438951000000088,0.3411193000001731,,,,,,,,,,,,,,,,,,1269,1,2025-09-20_11h21.11.455,sm,2024.2.4,59.96253540771553,2025-09-20 11h21.25.241563 +0200,
5,0,5,,,,,,space,1.741664000000128,None,None,3,None,1.0136703999996826,0.2463394000005792,0,0,0,0,,,,,1,0,1,0,,,,,5,0,5,0,682.1290251999999,,,,,,,,,,,,,,,,,,,,,,,,,,,,,,,,,,,,,,,,,,,,,,,,,,,,,,,,,Statue,3.5951,682.1144608999994,682.1149771999999,682.1150804999997,682.1290251999999,685.7288504999997,685.7132779999993,685.7167176999992,685.7288504999997,685.7288504999997,685.7288504999997,685.7288504999997,687.7288684999994,687.7288684999994,687.7288684999994,687.7288684999994,687.7134327999993,3,None,1.0136703999996826,0.2463394000005792,,,,,,,,,,,,,,,,,,1269,1,2025-09-20_11h21.11.455,sm,2024.2.4,59.96253540771553,2025-09-20 11h21.25.241563 +0200,
6,0,6,,,,,,space,1.741664000000128,None,None,3,None,1.376824700000725,0.19749299999966752,0,0,0,0,,,,,1,0,1,0,,,,,6,0,6,0,687.7288684999994,,,,,,,,,,,,,,,,,,,,,,,,,,,,,,,,,,,,,,,,,,,,,,,,,,,,,,,,,Garten,3.0145,687.7139408999992,687.7144614999997,687.7145688999999,687.7288684999994,690.7452739,690.7295817999993,690.7335033999998,690.7452739,690.7452739,690.7452739,690.7452739,692.7453148999994,692.7453148999994,692.7453148999994,692.7453148999994,692.7297672999994,3,None,1.376824700000725,0.19749299999966752,,,,,,,,,,,,,,,,,,1269,1,2025-09-20_11h21.11.455,sm,2024.2.4,59.96253540771553,2025-09-20 11h21.25.241563 +0200,
7,0,7,,,,,,space,1.741664000000128,None,None,3,None,1.3065473999995447,0.2095072000001892,0,0,0,0,,,,,1,0,1,0,,,,,7,0,7,0,692.7453148999994,,,,,,,,,,,,,,,,,,,,,,,,,,,,,,,,,,,,,,,,,,,,,,,,,,,,,,,,,Wohnung,2.6237,692.7302777999994,692.7310228999995,692.7311266999995,692.7453148999994,695.3782085999992,695.3626259999992,695.3662508999996,695.3782085999992,695.3782085999992,695.3782085999992,695.3782085999992,697.3783347999997,697.3783347999997,697.3783347999997,697.3783347999997,697.3627693999997,3,None,1.3065473999995447,0.2095072000001892,,,,,,,,,,,,,,,,,,1269,1,2025-09-20_11h21.11.455,sm,2024.2.4,59.96253540771553,2025-09-20 11h21.25.241563 +0200,
8,0,8,,,,,,space,1.741664000000128,None,None,3,None,0.8242134000001897,0.24237790000006498,0,0,0,0,,,,,1,0,1,0,,,,,8,0,8,0,697.3783347999997,,,,,,,,,,,,,,,,,,,,,,,,,,,,,,,,,,,,,,,,,,,,,,,,,,,,,,,,,Lied,2.6958,697.3632865999998,697.3638456999997,697.3639499000001,697.3783347999997,700.0779493,700.0625164999992,700.0661950999993,700.0779493,700.0779493,700.0779493,700.0779493,702.0781791999998,702.0781791999998,702.0781791999998,702.0781791999998,702.0625258,3,None,0.8242134000001897,0.24237790000006498,,,,,,,,,,,,,,,,,,1269,1,2025-09-20_11h21.11.455,sm,2024.2.4,59.96253540771553,2025-09-20 11h21.25.241563 +0200,
9,0,9,,,,,,space,1.741664000000128,None,None,3,None,0.8277345999995305,0.2338676999997915,0,0,0,0,,,,,1,0,1,0,,,,,9,0,9,0,702.0781791999998,,,,,,,,,,,,,,,,,,,,,,,,,,,,,,,,,,,,,,,,,,,,,,,,,,,,,,,,,Gabel,5.5338,702.0630364999997,702.0636916999993,702.0637993,702.0781791999998,707.6108099999992,707.5952386999998,707.5985563999993,707.6108099999992,707.6108099999992,707.6108099999992,707.6108099999992,709.6111047999993,709.6111047999993,709.6111047999993,709.6111047999993,709.5952984999994,3,None,0.8277345999995305,0.2338676999997915,,,,,,,,,,,,,,,,,,1269,1,2025-09-20_11h21.11.455,sm,2024.2.4,59.96253540771553,2025-09-20 11h21.25.241563 +0200,
10,0,10,,,,,,space,1.741664000000128,None,None,2,None,1.152824600000713,0.18649459999960527,0,0,0,0,,,,,1,0,1,0,,,,,10,0,10,0,709.6111047999993,,,,,,,,,,,,,,,,,,,,,,,,,,,,,,,,,,,,,,,,,,,,,,,,,,,,,,,,,Ziege,2.6508,709.5958277,709.5963391999994,709.5964459999996,709.6111047999993,712.2608180999996,712.2452428999995,712.2492205999997,712.2608180999996,712.2608180999996,712.2608180999996,712.2608180999996,714.2605727,714.2605727,714.2605727,714.2605727,714.2453449999994,2,None,1.152824600000713,0.18649459999960527,,,,,,,,,,,,,,,,,,1269,1,2025-09-20_11h21.11.455,sm,2024.2.4,59.96253540771553,2025-09-20 11h21.25.241563 +0200,
11,0,11,,,,,,space,1.741664000000128,None,None,3,None,0.7930490999997346,0.3071689000007609,0,0,0,0,,,,,1,0,1,0,,,,,11,0,11,0,714.2605727,,,,,,,,,,,,,,,,,,,,,,,,,,,,,,,,,,,,,,,,,,,,,,,,,,,,,,,,,Klee,2.248,714.2458649999999,714.2463867999995,714.2464921000001,714.2605727,716.5106019999994,716.4949655,716.4990553999996,716.5106019999994,716.5106019999994,716.5106019999994,716.5106019999994,718.5104426999997,718.5104426999997,718.5104426999997,718.5104426999997,718.4948119999999,3,None,0.7930490999997346,0.3071689000007609,,,,,,,,,,,,,,,,,,1269,1,2025-09-20_11h21.11.455,sm,2024.2.4,59.96253540771553,2025-09-20 11h21.25.241563 +0200,
12,0,12,,,,,,space,1.741664000000128,None,None,3,None,1.009226299999682,0.19805240000005142,0,0,0,0,,,,,1,0,1,0,,,,,12,0,12,0,718.5104426999997,,,,,,,,,,,,,,,,,,,,,,,,,,,,,,,,,,,,,,,,,,,,,,,,,,,,,,,,,Schwung,4.2735,718.4953390999999,718.4958489999999,718.4959570999999,718.5104426999997,722.7935263999998,722.7777480999994,722.7813792999996,722.7935263999998,722.7935263999998,722.7935263999998,722.7935263999998,724.7934287999997,724.7934287999997,724.7934287999997,724.7934287999997,724.7778236999993,3,None,1.009226299999682,0.19805240000005142,,,,,,,,,,,,,,,,,,1269,1,2025-09-20_11h21.11.455,sm,2024.2.4,59.96253540771553,2025-09-20 11h21.25.241563 +0200,
13,0,13,,,,,,space,1.741664000000128,None,None,3,None,0.880873099999917,0.2751576999999088,0,0,0,0,,,,,1,0,1,0,,,,,13,0,13,0,724.7934287999997,,,,,,,,,,,,,,,,,,,,,,,,,,,,,,,,,,,,,,,,,,,,,,,,,,,,,,,,,Gesicht,3.0533,724.7783380000001,724.7788557999993,724.7789628999999,724.7934287999997,727.8598695999999,727.8442424999994,727.8478140999996,727.8598695999999,727.8598695999999,727.8598695999999,727.8598695999999,729.8598568999996,729.8598568999996,729.8598568999996,729.8598568999996,729.8443008999993,3,None,0.880873099999917,0.2751576999999088,,,,,,,,,,,,,,,,,,1269,1,2025-09-20_11h21.11.455,sm,2024.2.4,59.96253540771553,2025-09-20 11h21.25.241563 +0200,
14,0,14,,,,,,space,1.741664000000128,None,None,3,None,0.7432093000006716,0.19061319999946136,0,0,0,0,,,,,1,0,1,0,,,,,14,0,14,0,729.8598568999996,,,,,,,,,,,,,,,,,,,,,,,,,,,,,,,,,,,,,,,,,,,,,,,,,,,,,,,,,Kunst,2.0706,729.8448126999992,729.8454599999995,729.8455644999995,729.8598568999996,731.9429541,731.9272910999998,731.9314510999993,731.9429541,731.9429541,731.9429541,731.9429541,733.9429555999996,733.9429555999996,733.9429555999996,733.9429555999996,733.9272197,3,None,0.7432093000006716,0.19061319999946136,,,,,,,,,,,,,,,,,,1269,1,2025-09-20_11h21.11.455,sm,2024.2.4,59.96253540771553,2025-09-20 11h21.25.241563 +0200,
15,0,15,,,,,,space,1.741664000000128,None,None,3,None,1.0917366000003312,0.24393049999980576,0,0,0,0,,,,,1,0,1,0,,,,,15,0,15,0,733.9429555999996,,,,,,,,,,,,,,,,,,,,,,,,,,,,,,,,,,,,,,,,,,,,,,,,,,,,,,,,,Weihnachten,3.0272,733.9277257999993,733.9283722999999,733.9284782999994,733.9429555999996,736.9760987,736.9603817999996,736.9643097999997,736.9760987,736.9760987,736.9760987,736.9760987,738.9761012999998,738.9761012999998,738.9761012999998,738.9761012999998,738.9603189,3,None,1.0917366000003312,0.24393049999980576,,,,,,,,,,,,,,,,,,1269,1,2025-09-20_11h21.11.455,sm,2024.2.4,59.96253540771553,2025-09-20 11h21.25.241563 +0200,
16,0,16,,,,,,space,1.741664000000128,None,None,None,None,,,0,0,0,0,,,,,1,0,1,0,,,,,16,0,16,0,738.9761012999998,,,,,,,,,,,,,,,,,,,,,,,,,,,,,,,,,,,,,,,,,,,,,,,,,,,,,,,,,Ausbruch,3.4561,738.9608032999995,738.9612865999998,738.9613878,738.9761012999998,742.4422593999998,742.4272009999995,742.4306017999997,742.4422593999998,742.4422593999998,742.4422593999998,742.4422593999998,744.4420203,744.4420203,744.4420203,744.4420203,744.4264639999992,None,None,,,,,,,,,,,,,,,,,,,,1269,1,2025-09-20_11h21.11.455,sm,2024.2.4,59.96253540771553,2025-09-20 11h21.25.241563 +0200,
17,0,17,,,,,,space,1.741664000000128,None,None,3,None,1.7604455999999118,None,0,0,0,0,,,,,1,0,1,0,,,,,17,0,17,0,744.4420203,,,,,,,,,,,,,,,,,,,,,,,,,,,,,,,,,,,,,,,,,,,,,,,,,,,,,,,,,Stiefel,2.3546,744.4268484999993,744.4274204999992,744.4275078000001,744.4420203,746.8089258999998,746.7917767999998,746.7934363999993,746.8089258999998,746.8089258999998,746.8089258999998,746.8089258999998,,,,,748.7923873,3,None,1.7604455999999118,None,,,,,,,,,,,,,,,,,,1269,1,2025-09-20_11h21.11.455,sm,2024.2.4,59.96253540771553,2025-09-20 11h21.25.241563 +0200,
18,0,18,,,,,,space,1.741664000000128,None,None,3,None,1.6654963999999381,0.2976072000001295,0,0,0,0,,,,,1,0,1,0,,,,,18,0,18,0,748.8087611999999,,,,,,,,,,,,,,,,,,,,,,,,,,,,,,,,,,,,,,,,,,,,,,,,,,,,,,,,,Loch,2.4427,748.7929033999999,748.7939374999996,748.7940560999996,748.8087611999999,751.2582669999993,751.2427946999996,751.2463584999996,751.2582669999993,751.2582669999993,751.2582669999993,751.2582669999993,753.2585804,753.2585804,753.2585804,753.2585804,753.2429330999994,3,None,1.6654963999999381,0.2976072000001295,,,,,,,,,,,,,,,,,,1269,1,2025-09-20_11h21.11.455,sm,2024.2.4,59.96253540771553,2025-09-20 11h21.25.241563 +0200,
19,0,19,,,,,,space,1.741664000000128,None,None,3,None,0.9119156999995539,0.3515326000006098,0,0,0,0,,,,,1,0,1,0,,,,,19,0,19,0,753.2585804,,,,,,,,,,,,,,,,,,,,,,,,,,,,,,,,,,,,,,,,,,,,,,,,,,,,,,,,,Feier,3.8781,753.2434223,753.2440244999998,753.2442063999997,753.2585804,757.1418307999993,757.1257397999998,757.1294585999995,757.1418307999993,757.1418307999993,757.1418307999993,757.1418307999993,759.1414777,759.1414777,759.1414777,759.1414777,759.1257651999995,3,None,0.9119156999995539,0.3515326000006098,,,,,,,,,,,,,,,,,,1269,1,2025-09-20_11h21.11.455,sm,2024.2.4,59.96253540771553,2025-09-20 11h21.25.241563 +0200,
20,0,20,,,,,,space,1.741664000000128,None,None,3,None,0.885866000000533,0.24643409999953292,0,0,0,0,,,,,1,0,1,0,,,,,20,0,20,0,759.1414777,,,,,,,,,,,,,,,,,,,,,,,,,,,,,,,,,,,,,,,,,,,,,,,,,,,,,,,,,Helm,2.8567,759.1262411999996,759.1267536999994,759.1268532999993,759.1414777,762.0078472999994,761.9923641999994,761.9959758999994,762.0078472999994,762.0078472999994,762.0078472999994,762.0078472999994,764.0079183999997,764.0079183999997,764.0079183999997,764.0079183999997,763.992276,3,None,0.885866000000533,0.24643409999953292,,,,,,,,,,,,,,,,,,1269,1,2025-09-20_11h21.11.455,sm,2024.2.4,59.96253540771553,2025-09-20 11h21.25.241563 +0200,
21,0,21,,,,,,space,1.741664000000128,None,None,3,None,0.9239422000000559,0.45378399999935937,0,0,0,0,,,,,1,0,1,0,,,,,21,0,21,0,764.0079183999997,,,,,,,,,,,,,,,,,,,,,,,,,,,,,,,,,,,,,,,,,,,,,,,,,,,,,,,,,Sumpf,2.6732,763.9927945999998,763.9932888999992,763.9933959999998,764.0079183999997,766.6908638999994,766.6750440999995,766.6783607999996,766.6908638999994,766.6908638999994,766.6908638999994,766.6908638999994,768.6908251999994,768.6908251999994,768.6908251999994,768.6908251999994,768.6757207999999,3,None,0.9239422000000559,0.45378399999935937,,,,,,,,,,,,,,,,,,1269,1,2025-09-20_11h21.11.455,sm,2024.2.4,59.96253540771553,2025-09-20 11h21.25.241563 +0200,
22,0,22,,,,,,space,1.741664000000128,None,None,3,None,1.2425991000000067,0.18340210000042134,0,0,0,0,,,,,1,0,1,0,,,,,22,0,22,0,768.6908251999994,,,,,,,,,,,,,,,,,,,,,,,,,,,,,,,,,,,,,,,,,,,,,,,,,,,,,,,,,Ei,2.3448,768.6761954999993,768.6767168999995,768.6768242999997,768.6908251999994,771.0407945999996,771.0251451999993,771.0285675999994,771.0407945999996,771.0407945999996,771.0407945999996,771.0407945999996,773.0407701999993,773.0407701999993,773.0407701999993,773.0407701999993,773.0252109999992,3,None,1.2425991000000067,0.18340210000042134,,,,,,,,,,,,,,,,,,1269,1,2025-09-20_11h21.11.455,sm,2024.2.4,59.96253540771553,2025-09-20 11h21.25.241563 +0200,
23,0,23,,,,,,space,1.741664000000128,None,None,3,None,1.5393840999995518,0.1898694000001342,0,0,0,0,,,,,1,0,1,0,,,,,23,0,23,0,773.0407701999993,,,,,,,,,,,,,,,,,,,,,,,,,,,,,,,,,,,,,,,,,,,,,,,,,,,,,,,,,Schutz,2.8488,773.0257275999993,773.0262697999997,773.0263765999998,773.0407701999993,775.890335,775.8749161999995,775.8786760999992,775.890335,775.890335,775.890335,775.890335,777.8903442999999,777.8903442999999,777.8903442999999,777.8903442999999,777.8749203999996,3,None,1.5393840999995518,0.1898694000001342,,,,,,,,,,,,,,,,,,1269,1,2025-09-20_11h21.11.455,sm,2024.2.4,59.96253540771553,2025-09-20 11h21.25.241563 +0200,
24,0,24,,,,,,space,1.741664000000128,None,None,3,None,0.7896447000002809,0.2853189999996175,0,0,0,0,,,,,1,0,1,0,,,,,24,0,24,0,777.8903442999999,,,,,,,,,,,,,,,,,,,,,,,,,,,,,,,,,,,,,,,,,,,,,,,,,,,,,,,,,Urlaub,2.9067,777.8754327999995,777.8759390999994,777.8760514999994,777.8903442999999,780.8066282,780.7912905999992,780.7991400000001,780.8066282,780.8066282,780.8066282,780.8066282,782.8073721999999,782.8073721999999,782.8073721999999,782.8073721999999,782.7912302999994,3,None,0.7896447000002809,0.2853189999996175,,,,,,,,,,,,,,,,,,1269,1,2025-09-20_11h21.11.455,sm,2024.2.4,59.96253540771553,2025-09-20 11h21.25.241563 +0200,
25,0,25,,,,,,space,1.741664000000128,None,None,3,None,1.0629166999997324,0.23204029999942577,0,0,0,0,,,,,1,0,1,0,,,,,25,0,25,0,782.8073721999999,,,,,,,,,,,,,,,,,,,,,,,,,,,,,,,,,,,,,,,,,,,,,,,,,,,,,,,,,Kaffee,3.6881,782.7917502,782.7922517999996,782.792402,782.8073721999999,786.5064714999999,786.4911625999994,786.4953591999993,786.5064714999999,786.5064714999999,786.5064714999999,786.5064714999999,788.5063323999993,788.5063323999993,788.5063323999993,788.5063323999993,788.4910028999993,3,None,1.0629166999997324,0.23204029999942577,,,,,,,,,,,,,,,,,,1269,1,2025-09-20_11h21.11.455,sm,2024.2.4,59.96253540771553,2025-09-20 11h21.25.241563 +0200,
26,0,26,,,,,,space,1.741664000000128,None,None,3,None,1.1439414999995279,0.1879785000000993,0,0,0,0,,,,,1,0,1,0,,,,,26,0,26,0,788.5063323999993,,,,,,,,,,,,,,,,,,,,,,,,,,,,,,,,,,,,,,,,,,,,,,,,,,,,,,,,,Party,2.5115,788.4915181999995,788.4920293999994,788.4921391999997,788.5063323999993,791.0227998999999,791.0074965999993,791.0111637999998,791.0227998999999,791.0227998999999,791.0227998999999,791.0227998999999,793.0228316999992,793.0228316999992,793.0228316999992,793.0228316999992,793.0073222999999,3,None,1.1439414999995279,0.1879785000000993,,,,,,,,,,,,,,,,,,1269,1,2025-09-20_11h21.11.455,sm,2024.2.4,59.96253540771553,2025-09-20 11h21.25.241563 +0200,
27,0,27,,,,,,space,1.741664000000128,None,None,3,None,0.9493615000001228,0.29454619999978604,0,0,0,0,,,,,1,0,1,0,,,,,27,0,27,0,793.0228316999992,,,,,,,,,,,,,,,,,,,,,,,,,,,,,,,,,,,,,,,,,,,,,,,,,,,,,,,,,Mäher,3.4619,793.0078393999993,793.0083707999993,793.0084751999993,793.0228316999992,796.4889276999993,796.4740960999998,796.4778434,796.4889276999993,796.4889276999993,796.4889276999993,796.4889276999993,798.4891210999995,798.4891210999995,798.4891210999995,798.4891210999995,798.4735338,3,None,0.9493615000001228,0.29454619999978604,,,,,,,,,,,,,,,,,,1269,1,2025-09-20_11h21.11.455,sm,2024.2.4,59.96253540771553,2025-09-20 11h21.25.241563 +0200,
28,0,28,,,,,,space,1.741664000000128,None,None,3,None,1.1898063000007824,0.22541589999946154,0,0,0,0,,,,,1,0,1,0,,,,,28,0,28,0,798.4891210999995,,,,,,,,,,,,,,,,,,,,,,,,,,,,,,,,,,,,,,,,,,,,,,,,,,,,,,,,,Brise,2.5093,798.4740465999994,798.4745694999992,798.4746778999997,798.4891210999995,801.0056611,800.9898459999995,800.9934175999997,801.0056611,801.0056611,801.0056611,801.0056611,803.0058331,803.0058331,803.0058331,803.0058331,802.9901132999994,3,None,1.1898063000007824,0.22541589999946154,,,,,,,,,,,,,,,,,,1269,1,2025-09-20_11h21.11.455,sm,2024.2.4,59.96253540771553,2025-09-20 11h21.25.241563 +0200,
29,0,29,,,,,,space,1.741664000000128,None,None,3,None,0.6558597000002919,0.2222277999999278,0,0,0,0,,,,,1,0,1,0,,,,,29,0,29,0,803.0058331,,,,,,,,,,,,,,,,,,,,,,,,,,,,,,,,,,,,,,,,,,,,,,,,,,,,,,,,,Ecke,5.4182,802.9905951000001,802.9910862999996,802.9911905999998,803.0058331,808.4386201999996,808.4227736999992,808.4264694999993,808.4386201999996,808.4386201999996,808.4386201999996,808.4386201999996,810.4384193999995,810.4384193999995,810.4384193999995,810.4384193999995,810.4230889,3,None,0.6558597000002919,0.2222277999999278,,,,,,,,,,,,,,,,,,1269,1,2025-09-20_11h21.11.455,sm,2024.2.4,59.96253540771553,2025-09-20 11h21.25.241563 +0200,
30,0,30,,,,,,space,1.741664000000128,None,None,3,None,1.609247299999879,0.2175278000004255,0,0,0,0,,,,,1,0,1,0,,,,,30,0,30,0,810.4384193999995,,,,,,,,,,,,,,,,,,,,,,,,,,,,,,,,,,,,,,,,,,,,,,,,,,,,,,,,,Haare,2.795,810.4236027999996,810.4242801999999,810.4243854999995,810.4384193999995,813.2381735999998,813.2229025999995,813.2291171999996,813.2381735999998,813.2381735999998,813.2381735999998,813.2381735999998,815.2382932,815.2382932,815.2382932,815.2382932,815.2226692999993,3,None,1.609247299999879,0.2175278000004255,,,,,,,,,,,,,,,,,,1269,1,2025-09-20_11h21.11.455,sm,2024.2.4,59.96253540771553,2025-09-20 11h21.25.241563 +0200,
31,0,31,,,,,,space,1.741664000000128,None,None,3,None,0.8974970999997822,0.32197249999990163,0,0,0,0,,,,,1,0,1,0,,,,,31,0,31,0,815.2382932,,,,,,,,,,,,,,,,,,,,,,,,,,,,,,,,,,,,,,,,,,,,,,,,,,,,,,,,,Anhänger,2.8292,815.2231806,815.2236819999998,815.2237869,815.2382932,818.0710389999995,818.0557841,818.0595679999997,818.0710389999995,818.0710389999995,818.0710389999995,818.0710389999995,820.0713007999993,820.0713007999993,820.0713007999993,820.0713007999993,820.0557392999999,3,None,0.8974970999997822,0.32197249999990163,,,,,,,,,,,,,,,,,,1269,1,2025-09-20_11h21.11.455,sm,2024.2.4,59.96253540771553,2025-09-20 11h21.25.241563 +0200,
32,0,32,,,,,,space,1.741664000000128,None,None,3,None,0.9035837999999785,0.27017350000005536,0,0,0,0,,,,,1,0,1,0,,,,,32,0,32,0,820.0713007999993,,,,,,,,,,,,,,,,,,,,,,,,,,,,,,,,,,,,,,,,,,,,,,,,,,,,,,,,,Wüste,4.5693,820.0562450999996,820.0567574999995,820.0568661999996,820.0713007999993,824.6551326999997,824.6389221999998,824.6429924999993,824.6551326999997,824.6551326999997,824.6551326999997,824.6551326999997,826.6543293999994,826.6543293999994,826.6543293999994,826.6543293999994,826.6386364,3,None,0.9035837999999785,0.27017350000005536,,,,,,,,,,,,,,,,,,1269,1,2025-09-20_11h21.11.455,sm,2024.2.4,59.96253540771553,2025-09-20 11h21.25.241563 +0200,
33,0,33,,,,,,space,1.741664000000128,None,None,3,None,1.3311973999998372,0.32344279999961145,0,0,0,0,,,,,1,0,1,0,,,,,33,0,33,0,826.6543293999994,,,,,,,,,,,,,,,,,,,,,,,,,,,,,,,,,,,,,,,,,,,,,,,,,,,,,,,,,Diamant,3.4102,826.6391303999999,826.6396160999993,826.6397179999994,826.6543293999994,830.0703429999994,830.0552797999999,830.0590175999996,830.0703429999994,830.0703429999994,830.0703429999994,830.0703429999994,832.0707511,832.0707511,832.0707511,832.0707511,832.0549996999998,3,None,1.3311973999998372,0.32344279999961145,,,,,,,,,,,,,,,,,,1269,1,2025-09-20_11h21.11.455,sm,2024.2.4,59.96253540771553,2025-09-20 11h21.25.241563 +0200,
34,0,34,,,,,,space,1.741664000000128,None,None,3,None,1.0502942000002804,0.2640713999999207,0,0,0,0,,,,,1,0,1,0,,,,,34,0,34,0,832.0707511,,,,,,,,,,,,,,,,,,,,,,,,,,,,,,,,,,,,,,,,,,,,,,,,,,,,,,,,,Winter,2.1593,832.0555214999995,832.0560437999993,832.0561533,832.0707511,834.2367602999993,834.2212019999997,834.2245127999995,834.2367602999993,834.2367602999993,834.2367602999993,834.2367602999993,836.2374770999995,836.2374770999995,836.2374770999995,836.2374770999995,836.2215159999996,3,None,1.0502942000002804,0.2640713999999207,,,,,,,,,,,,,,,,,,1269,1,2025-09-20_11h21.11.455,sm,2024.2.4,59.96253540771553,2025-09-20 11h21.25.241563 +0200,
35,0,35,,,,,,space,1.741664000000128,None,None,3,None,1.1847902999998041,0.20833649999985937,0,0,0,0,,,,,1,0,1,0,,,,,35,0,35,0,836.2374770999995,,,,,,,,,,,,,,,,,,,,,,,,,,,,,,,,,,,,,,,,,,,,,,,,,,,,,,,,,Service,2.4159,836.2220327999994,836.2226655999993,836.2227733,836.2374770999995,838.65366,838.6380138999994,838.6422514999995,838.65366,838.65366,838.65366,838.65366,840.6534691999996,840.6534691999996,840.6534691999996,840.6534691999996,840.6379061999996,3,None,1.1847902999998041,0.20833649999985937,,,,,,,,,,,,,,,,,,1269,1,2025-09-20_11h21.11.455,sm,2024.2.4,59.96253540771553,2025-09-20 11h21.25.241563 +0200,
36,0,36,,,,,,space,1.741664000000128,None,None,3,None,0.7371456999999282,0.28750880000006873,0,0,0,0,,,,,1,0,1,0,,,,,36,0,36,0,840.6534691999996,,,,,,,,,,,,,,,,,,,,,,,,,,,,,,,,,,,,,,,,,,,,,,,,,,,,,,,,,Wanne,3.2643,840.6384324,840.6391801999998,840.6392852999998,840.6534691999996,843.9198334999992,843.9041220999998,843.9082116,843.9198334999992,843.9198334999992,843.9198334999992,843.9198334999992,845.9198948999992,845.9198948999992,845.9198948999992,845.9198948999992,845.9041938,3,None,0.7371456999999282,0.28750880000006873,,,,,,,,,,,,,,,,,,1269,1,2025-09-20_11h21.11.455,sm,2024.2.4,59.96253540771553,2025-09-20 11h21.25.241563 +0200,
37,0,37,,,,,,space,1.741664000000128,None,None,3,None,0.893028399999821,0.32315729999936593,0,0,0,0,,,,,1,0,1,0,,,,,37,0,37,0,845.9198948999992,,,,,,,,,,,,,,,,,,,,,,,,,,,,,,,,,,,,,,,,,,,,,,,,,,,,,,,,,Tal,2.3731,845.9046690999994,845.9051878,845.9052874999998,845.9198948999992,848.3028111999993,848.2870472999994,848.2905010999993,848.3028111999993,848.3028111999993,848.3028111999993,848.3028111999993,850.3029180999993,850.3029180999993,850.3029180999993,850.3029180999993,850.2879243999996,3,None,0.893028399999821,0.32315729999936593,,,,,,,,,,,,,,,,,,1269,1,2025-09-20_11h21.11.455,sm,2024.2.4,59.96253540771553,2025-09-20 11h21.25.241563 +0200,
38,0,38,,,,,,space,1.741664000000128,None,None,3,None,0.6889345999998113,0.27049840000017866,0,0,0,0,,,,,1,0,1,0,,,,,38,0,38,0,850.3029180999993,,,,,,,,,,,,,,,,,,,,,,,,,,,,,,,,,,,,,,,,,,,,,,,,,,,,,,,,,Schwimmen,3.3946,850.2884635,850.2890097999998,850.2891212999994,850.3029180999993,853.7034827999996,853.6870022999992,853.6905686,853.7034827999996,853.7034827999996,853.7034827999996,853.7034827999996,855.7027947999995,855.7027947999995,855.7027947999995,855.7027947999995,855.6873166999994,3,None,0.6889345999998113,0.27049840000017866,,,,,,,,,,,,,,,,,,1269,1,2025-09-20_11h21.11.455,sm,2024.2.4,59.96253540771553,2025-09-20 11h21.25.241563 +0200,
39,0,39,,,,,,space,1.741664000000128,None,None,3,None,1.0232585999992807,0.21504150000055233,0,0,0,0,,,,,1,0,1,0,,,,,39,0,39,0,855.7027947999995,,,,,,,,,,,,,,,,,,,,,,,,,,,,,,,,,,,,,,,,,,,,,,,,,,,,,,,,,Bildung,3.2258,855.6878092999996,855.6884732999997,855.6885769999999,855.7027947999995,858.9363772999995,858.9198283999995,858.9234655999999,858.9363772999995,858.9363772999995,858.9363772999995,858.9363772999995,860.9356125999993,860.9356125999993,860.9356125999993,860.9356125999993,860.9203007999995,3,None,1.0232585999992807,0.21504150000055233,,,,,,,,,,,,,,,,,,1269,1,2025-09-20_11h21.11.455,sm,2024.2.4,59.96253540771553,2025-09-20 11h21.25.241563 +0200,
40,0,40,,,,,,space,1.741664000000128,None,None,2,None,1.6987411000000066,0.24822870000025432,0,0,0,0,,,,,1,0,1,0,,,,,40,0,40,0,860.9356125999993,,,,,,,,,,,,,,,,,,,,,,,,,,,,,,,,,,,,,,,,,,,,,,,,,,,,,,,,,Publikum,2.0602,860.9208092999997,860.9214570999993,860.9215649999996,860.9356125999993,863.0018387,862.9862491999993,862.9902904999999,863.0018387,863.0018387,863.0018387,863.0018387,865.0020652999992,865.0020652999992,865.0020652999992,865.0020652999992,864.9866122999993,2,None,1.6987411000000066,0.24822870000025432,,,,,,,,,,,,,,,,,,1269,1,2025-09-20_11h21.11.455,sm,2024.2.4,59.96253540771553,2025-09-20 11h21.25.241563 +0200,
41,0,41,,,,,,space,1.741664000000128,None,None,2,None,0.7971179999995002,0.27002580000043963,0,0,0,0,,,,,1,0,1,0,,,,,41,0,41,0,865.0020652999992,,,,,,,,,,,,,,,,,,,,,,,,,,,,,,,,,,,,,,,,,,,,,,,,,,,,,,,,,Gast,3.1846,864.9871251999994,864.9876451999999,864.9877508,865.0020652999992,868.2018312999999,868.1861265999996,868.1896449999995,868.2018312999999,868.2018312999999,868.2018312999999,868.2018312999999,870.2017619999997,870.2017619999997,870.2017619999997,870.2017619999997,870.1865697999992,2,None,0.7971179999995002,0.27002580000043963,,,,,,,,,,,,,,,,,,1269,1,2025-09-20_11h21.11.455,sm,2024.2.4,59.96253540771553,2025-09-20 11h21.25.241563 +0200,
42,0,42,,,,,,space,1.741664000000128,None,None,3,None,1.026521299999331,0.273400699999911,0,0,0,0,,,,,1,0,1,0,,,,,42,0,42,0,870.2017619999997,,,,,,,,,,,,,,,,,,,,,,,,,,,,,,,,,,,,,,,,,,,,,,,,,,,,,,,,,Keller,5.1625,870.1870812999996,870.1875960999996,870.1877025999993,870.2017619999997,875.3679452999995,875.3525670999998,875.3567583999993,875.3679452999995,875.3679452999995,875.3679452999995,875.3679452999995,877.3679222999999,877.3679222999999,877.3679222999999,877.3679222999999,877.3525142999997,3,None,1.026521299999331,0.273400699999911,,,,,,,,,,,,,,,,,,1269,1,2025-09-20_11h21.11.455,sm,2024.2.4,59.96253540771553,2025-09-20 11h21.25.241563 +0200,
43,0,43,,,,,,space,1.741664000000128,None,None,3,None,0.8017569999992702,0.286008000000038,0,0,0,0,,,,,1,0,1,0,,,,,43,0,43,0,877.3679222999999,,,,,,,,,,,,,,,,,,,,,,,,,,,,,,,,,,,,,,,,,,,,,,,,,,,,,,,,,Ring,2.0913,877.3530377999996,877.3537809999998,877.3539390999995,877.3679222999999,879.4686969999993,879.4525264999993,879.4557820999999,879.4686969999993,879.4686969999993,879.4686969999993,879.4686969999993,881.4678463,881.4678463,881.4678463,881.4678463,881.4520665,3,None,0.8017569999992702,0.286008000000038,,,,,,,,,,,,,,,,,,1269,1,2025-09-20_11h21.11.455,sm,2024.2.4,59.96253540771553,2025-09-20 11h21.25.241563 +0200,
44,0,44,,,,,,space,1.741664000000128,None,None,3,None,1.2182095000007394,0.23596159999942756,0,0,0,0,,,,,1,0,1,0,,,,,44,0,44,0,881.4678463,,,,,,,,,,,,,,,,,,,,,,,,,,,,,,,,,,,,,,,,,,,,,,,,,,,,,,,,,Lokomotive,3.7702,881.4525777999997,881.4530867999993,881.4531982999997,881.4678463,885.2503753999999,885.2348904,885.2391233999997,885.2503753999999,885.2503753999999,885.2503753999999,885.2503753999999,887.2507121999997,887.2507121999997,887.2507121999997,887.2507121999997,887.2351259999996,3,None,1.2182095000007394,0.23596159999942756,,,,,,,,,,,,,,,,,,1269,1,2025-09-20_11h21.11.455,sm,2024.2.4,59.96253540771553,2025-09-20 11h21.25.241563 +0200,
45,0,45,,,,,,space,1.741664000000128,None,None,3,None,1.1393002999993769,0.2832518000004711,0,0,0,0,,,,,1,0,1,0,,,,,45,0,45,0,887.2507121999997,,,,,,,,,,,,,,,,,,,,,,,,,,,,,,,,,,,,,,,,,,,,,,,,,,,,,,,,,Zeigen,2.8367,887.2356409999993,887.2361519999995,887.2362577999993,887.2507121999997,890.1004710999996,890.0848800999993,890.0889123999996,890.1004710999996,890.1004710999996,890.1004710999996,890.1004710999996,892.1004976999993,892.1004976999993,892.1004976999993,892.1004976999993,892.0848643999998,3,None,1.1393002999993769,0.2832518000004711,,,,,,,,,,,,,,,,,,1269,1,2025-09-20_11h21.11.455,sm,2024.2.4,59.96253540771553,2025-09-20 11h21.25.241563 +0200,
46,0,46,,,,,,space,1.741664000000128,None,None,2,None,0.7832386000000042,0.2543702000002668,0,0,0,0,,,,,1,0,1,0,,,,,46,0,46,0,892.1004976999993,,,,,,,,,,,,,,,,,,,,,,,,,,,,,,,,,,,,,,,,,,,,,,,,,,,,,,,,,Eltern,2.2139,892.0853806999994,892.0859280999994,892.0860354999995,892.1004976999993,894.3166590999999,894.3011176999998,894.304529,894.3166590999999,894.3166590999999,894.3166590999999,894.3166590999999,896.3166926999993,896.3166926999993,896.3166926999993,896.3166926999993,896.3012615999996,2,None,0.7832386000000042,0.2543702000002668,,,,,,,,,,,,,,,,,,1269,1,2025-09-20_11h21.11.455,sm,2024.2.4,59.96253540771553,2025-09-20 11h21.25.241563 +0200,
47,0,47,,,,,,space,1.741664000000128,None,None,3,None,0.6556295000000318,0.284154099999796,0,0,0,0,,,,,1,0,1,0,,,,,47,0,47,0,896.3166926999993,,,,,,,,,,,,,,,,,,,,,,,,,,,,,,,,,,,,,,,,,,,,,,,,,,,,,,,,,Soße,2.4441,896.3017762999998,896.3022748999992,896.3023796999996,896.3166926999993,898.7667115999993,898.7507335999999,898.7536247999997,898.7667115999993,898.7667115999993,898.7667115999993,898.7667115999993,900.7665725999996,900.7665725999996,900.7665725999996,900.7665725999996,900.7509975999992,3,None,0.6556295000000318,0.284154099999796,,,,,,,,,,,,,,,,,,1269,1,2025-09-20_11h21.11.455,sm,2024.2.4,59.96253540771553,2025-09-20 11h21.25.241563 +0200,
48,0,48,,,,,,space,1.741664000000128,None,None,3,None,1.894453999999314,None,0,0,0,0,,,,,1,0,1,0,,,,,48,0,48,0,900.7665725999996,,,,,,,,,,,,,,,,,,,,,,,,,,,,,,,,,,,,,,,,,,,,,,,,,,,,,,,,,Trennung,2.3398,900.7515092999993,900.7520105999993,900.7521184999996,900.7665725999996,903.1168294999998,903.1008274999995,903.1050218999999,903.1168294999998,903.1168294999998,903.1168294999998,903.1168294999998,905.1163318999998,905.1163318999998,905.1163318999998,905.1163318999998,905.1006604999993,3,None,1.894453999999314,None,,,,,,,,,,,,,,,,,,1269,1,2025-09-20_11h21.11.455,sm,2024.2.4,59.96253540771553,2025-09-20 11h21.25.241563 +0200,
49,0,49,,,,,,space,1.741664000000128,None,None,3,None,1.1499852000006285,0.2596968999996534,0,0,0,0,,,,,1,0,1,0,,,,,49,0,49,0,905.1163318999998,,,,,,,,,,,,,,,,,,,,,,,,,,,,,,,,,,,,,,,,,,,,,,,,,,,,,,,,,Bild,2.1955,905.1011228999996,905.1018062999992,905.1019129999995,905.1163318999998,907.3160362999997,907.3005893999998,907.3040918999995,907.3160362999997,907.3160362999997,907.3160362999997,907.3160362999997,909.3162972,909.3162972,909.3162972,909.3162972,909.3006252999994,3,None,1.1499852000006285,0.2596968999996534,,,,,,,,,,,,,,,,,,1269,1,2025-09-20_11h21.11.455,sm,2024.2.4,59.96253540771553,2025-09-20 11h21.25.241563 +0200,
50,0,50,,,,,,space,1.741664000000128,None,None,3,None,1.065597599999819,0.23842409999997471,0,0,0,0,,,,,1,0,1,0,,,,,50,0,50,0,909.3162972,,,,,,,,,,,,,,,,,,,,,,,,,,,,,,,,,,,,,,,,,,,,,,,,,,,,,,,,,Schulter,3.8276,909.3011338999995,909.3017161999996,909.3018226999993,909.3162972,913.1492281000001,913.1337103999995,913.1378396,913.1492281000001,913.1492281000001,913.1492281000001,913.1492281000001,915.1491006999995,915.1491006999995,915.1491006999995,915.1491006999995,915.1338753999999,3,None,1.065597599999819,0.23842409999997471,,,,,,,,,,,,,,,,,,1269,1,2025-09-20_11h21.11.455,sm,2024.2.4,59.96253540771553,2025-09-20 11h21.25.241563 +0200,
51,0,51,,,,,,space,1.741664000000128,None,None,3,None,1.2056360000005952,0.32513659999949596,0,0,0,0,,,,,1,0,1,0,,,,,51,0,51,0,915.1491006999995,,,,,,,,,,,,,,,,,,,,,,,,,,,,,,,,,,,,,,,,,,,,,,,,,,,,,,,,,Radio,4.1747,915.1343829999996,915.1350333999999,915.1351411999995,915.1491006999995,919.3320098999993,919.3167303999999,919.3217341999998,919.3320098999993,919.3320098999993,919.3320098999993,919.3320098999993,921.3320181999998,921.3320181999998,921.3320181999998,921.3320181999998,921.3168118999993,3,None,1.2056360000005952,0.32513659999949596,,,,,,,,,,,,,,,,,,1269,1,2025-09-20_11h21.11.455,sm,2024.2.4,59.96253540771553,2025-09-20 11h21.25.241563 +0200,
52,0,52,,,,,,space,1.741664000000128,None,None,3,None,0.8507055000000037,0.2553170000001046,0,0,0,0,,,,,1,0,1,0,,,,,52,0,52,0,921.3320181999998,,,,,,,,,,,,,,,,,,,,,,,,,,,,,,,,,,,,,,,,,,,,,,,,,,,,,,,,,Theater,3.5291,921.3173205999992,921.3178293999999,921.3179341999994,921.3320181999998,924.8652116999992,924.8496803999997,924.8539670999999,924.8652116999992,924.8652116999992,924.8652116999992,924.8652116999992,926.8651308999997,926.8651308999997,926.8651308999997,926.8651308999997,926.8496431999993,3,None,0.8507055000000037,0.2553170000001046,,,,,,,,,,,,,,,,,,1269,1,2025-09-20_11h21.11.455,sm,2024.2.4,59.96253540771553,2025-09-20 11h21.25.241563 +0200,
53,0,53,,,,,,space,1.741664000000128,None,None,3,None,1.0079162000001816,0.26974650000011025,0,0,0,0,,,,,1,0,1,0,,,,,53,0,53,0,926.8651308999997,,,,,,,,,,,,,,,,,,,,,,,,,,,,,,,,,,,,,,,,,,,,,,,,,,,,,,,,,Rock,3.5877,926.8501710999999,926.8506871,926.8507935999996,926.8651308999997,930.4646763999999,930.4494912,930.4532696999995,930.4646763999999,930.4646763999999,930.4646763999999,930.4646763999999,932.4649793999997,932.4649793999997,932.4649793999997,932.4649793999997,932.4493010999995,3,None,1.0079162000001816,0.26974650000011025,,,,,,,,,,,,,,,,,,1269,1,2025-09-20_11h21.11.455,sm,2024.2.4,59.96253540771553,2025-09-20 11h21.25.241563 +0200,
54,0,54,,,,,,space,1.741664000000128,None,None,2,None,1.9270295999995142,None,0,0,0,0,,,,,1,0,1,0,,,,,54,0,54,0,932.4649793999997,,,,,,,,,,,,,,,,,,,,,,,,,,,,,,,,,,,,,,,,,,,,,,,,,,,,,,,,,Monster,2.4786,932.4498108999996,932.4503992999998,932.4505045999995,932.4649793999997,934.9479034999995,934.9323901999996,934.9354101999998,934.9479034999995,934.9479034999995,934.9479034999995,934.9479034999995,936.9478093999996,936.9478093999996,936.9478093999996,936.9478093999996,936.9324172999995,2,None,1.9270295999995142,None,,,,,,,,,,,,,,,,,,1269,1,2025-09-20_11h21.11.455,sm,2024.2.4,59.96253540771553,2025-09-20 11h21.25.241563 +0200,
55,0,55,,,,,,space,1.741664000000128,None,None,3,None,0.6970132999995258,0.28917530000035185,0,0,0,0,,,,,1,0,1,0,,,,,55,0,55,0,936.9478093999996,,,,,,,,,,,,,,,,,,,,,,,,,,,,,,,,,,,,,,,,,,,,,,,,,,,,,,,,,Zeit,2.6103,936.9329324999999,936.9334847,936.933591,936.9478093999996,939.5643574999995,939.5483982999995,939.5515576999996,939.5643574999995,939.5643574999995,939.5643574999995,939.5643574999995,941.5642591999995,941.5642591999995,941.5642591999995,941.5642591999995,941.5483260000001,3,None,0.6970132999995258,0.28917530000035185,,,,,,,,,,,,,,,,,,1269,1,2025-09-20_11h21.11.455,sm,2024.2.4,59.96253540771553,2025-09-20 11h21.25.241563 +0200,
56,0,56,,,,,,space,1.741664000000128,None,None,3,None,1.159554400000161,0.2951879000002009,0,0,0,0,,,,,1,0,1,0,,,,,56,0,56,0,941.5642591999995,,,,,,,,,,,,,,,,,,,,,,,,,,,,,,,,,,,,,,,,,,,,,,,,,,,,,,,,,Salz,2.3483,941.5487648999997,941.5492221999993,941.5493104999996,941.5642591999995,943.9141157999993,943.8984954999996,943.9021120999996,943.9141157999993,943.9141157999993,943.9141157999993,943.9141157999993,945.9139857999999,945.9139857999999,945.9139857999999,945.9139857999999,945.8985129999992,3,None,1.159554400000161,0.2951879000002009,,,,,,,,,,,,,,,,,,1269,1,2025-09-20_11h21.11.455,sm,2024.2.4,59.96253540771553,2025-09-20 11h21.25.241563 +0200,
57,0,57,,,,,,space,1.741664000000128,None,None,2,None,1.1104881999999634,0.198324799999682,0,0,0,0,,,,,1,0,1,0,,,,,57,0,57,0,945.9139857999999,,,,,,,,,,,,,,,,,,,,,,,,,,,,,,,,,,,,,,,,,,,,,,,,,,,,,,,,,Student,3.5341,945.8990263999995,945.8995360999998,945.8996428,945.9139857999999,949.4468527999998,949.4317265,949.4351729,949.4468527999998,949.4468527999998,949.4468527999998,949.4468527999998,951.4470458999995,951.4470458999995,951.4470458999995,951.4470458999995,951.4315794999993,2,None,1.1104881999999634,0.198324799999682,,,,,,,,,,,,,,,,,,1269,1,2025-09-20_11h21.11.455,sm,2024.2.4,59.96253540771553,2025-09-20 11h21.25.241563 +0200,
58,0,58,,,,,,space,1.741664000000128,None,None,3,None,0.8251682999998593,0.27597640000021784,0,0,0,0,,,,,1,0,1,0,,,,,58,0,58,0,951.4470458999995,,,,,,,,,,,,,,,,,,,,,,,,,,,,,,,,,,,,,,,,,,,,,,,,,,,,,,,,,Rebe,2.2332,951.4320866999997,951.4327156999998,951.4328212,951.4470458999995,953.6798253999996,953.6645247999995,953.6683512,953.6798253999996,953.6798253999996,953.6798253999996,953.6798253999996,955.6801437999993,955.6801437999993,955.6801437999993,955.6801437999993,955.6644901999998,3,None,0.8251682999998593,0.27597640000021784,,,,,,,,,,,,,,,,,,1269,1,2025-09-20_11h21.11.455,sm,2024.2.4,59.96253540771553,2025-09-20 11h21.25.241563 +0200,
59,0,59,,,,,,space,1.741664000000128,None,None,3,None,0.9839631999993799,0.49964060000002064,0,0,0,0,,,,,1,0,1,0,,,,,59,0,59,0,955.6801437999993,,,,,,,,,,,,,,,,,,,,,,,,,,,,,,,,,,,,,,,,,,,,,,,,,,,,,,,,,Zunge,2.1266,955.6649846999999,955.6654724999999,955.6655756999999,955.6801437999993,957.8132341999999,957.7974777,957.8011071000001,957.8132341999999,957.8132341999999,957.8132341999999,957.8132341999999,959.8132255999999,959.8132255999999,959.8132255999999,959.8132255999999,959.7975544000001,3,None,0.9839631999993799,0.49964060000002064,,,,,,,,,,,,,,,,,,1269,1,2025-09-20_11h21.11.455,sm,2024.2.4,59.96253540771553,2025-09-20 11h21.25.241563 +0200,
60,0,60,,,,,,space,1.741664000000128,None,None,3,None,0.9123150999994323,0.3356451999998171,0,0,0,0,,,,,1,0,1,0,,,,,60,0,60,0,959.8132255999999,,,,,,,,,,,,,,,,,,,,,,,,,,,,,,,,,,,,,,,,,,,,,,,,,,,,,,,,,Saft,2.6548,959.7980731999996,959.7985953999996,959.7986983000001,959.8132255999999,962.4793608,962.4641673999995,962.4673909999992,962.4793608,962.4793608,962.4793608,962.4793608,964.4802051999995,964.4802051999995,964.4802051999995,964.4802051999995,964.4638551999997,3,None,0.9123150999994323,0.3356451999998171,,,,,,,,,,,,,,,,,,1269,1,2025-09-20_11h21.11.455,sm,2024.2.4,59.96253540771553,2025-09-20 11h21.25.241563 +0200,
61,0,61,,,,,,space,1.741664000000128,None,None,3,None,1.1401540000006207,0.2716525999994701,0,0,0,0,,,,,1,0,1,0,,,,,61,0,61,0,964.4802051999995,,,,,,,,,,,,,,,,,,,,,,,,,,,,,,,,,,,,,,,,,,,,,,,,,,,,,,,,,Hütte,3.985,964.4643720999993,964.4650259999999,964.4651304999998,964.4802051999995,968.4792564999998,968.4636824999998,968.4677028999995,968.4792564999998,968.4792564999998,968.4792564999998,968.4792564999998,970.4792482999992,970.4792482999992,970.4792482999992,970.4792482999992,970.4635994,3,None,1.1401540000006207,0.2716525999994701,,,,,,,,,,,,,,,,,,1269,1,2025-09-20_11h21.11.455,sm,2024.2.4,59.96253540771553,2025-09-20 11h21.25.241563 +0200,
62,0,62,,,,,,space,1.741664000000128,None,None,3,None,1.4979229999999006,0.40888509999967937,0,0,0,0,,,,,1,0,1,0,,,,,62,0,62,0,970.4792482999992,,,,,,,,,,,,,,,,,,,,,,,,,,,,,,,,,,,,,,,,,,,,,,,,,,,,,,,,,Sterne,2.7596,970.4640479999998,970.4645899999996,970.4646835999993,970.4792482999992,973.2458958999996,973.2301244,973.2343610999997,973.2458958999996,973.2458958999996,973.2458958999996,973.2458958999996,975.2456710999995,975.2456710999995,975.2456710999995,975.2456710999995,975.2299385999995,3,None,1.4979229999999006,0.40888509999967937,,,,,,,,,,,,,,,,,,1269,1,2025-09-20_11h21.11.455,sm,2024.2.4,59.96253540771553,2025-09-20 11h21.25.241563 +0200,
63,0,63,,,,,,space,1.741664000000128,None,None,3,None,0.9677912999995897,0.25221789999977773,0,0,0,0,,,,,1,0,1,0,,,,,63,0,63,0,975.2456710999995,,,,,,,,,,,,,,,,,,,,,,,,,,,,,,,,,,,,,,,,,,,,,,,,,,,,,,,,,Gespräch,3.271,975.2304545999996,975.2311052999994,975.2312185000001,975.2456710999995,978.5286954999992,978.5131210999998,978.5169327999993,978.5286954999992,978.5286954999992,978.5286954999992,978.5286954999992,980.5287862999994,980.5287862999994,980.5287862999994,980.5287862999994,980.5128252999993,3,None,0.9677912999995897,0.25221789999977773,,,,,,,,,,,,,,,,,,1269,1,2025-09-20_11h21.11.455,sm,2024.2.4,59.96253540771553,2025-09-20 11h21.25.241563 +0200,
64,0,64,,,,,,space,1.741664000000128,None,None,3,None,0.9195122999999512,0.627696499999729,0,0,0,0,,,,,1,0,1,0,,,,,64,0,64,0,980.5287862999994,,,,,,,,,,,,,,,,,,,,,,,,,,,,,,,,,,,,,,,,,,,,,,,,,,,,,,,,,Hammer,2.7961,980.5133062999994,980.5137961,980.5138999999999,980.5287862999994,983.3284297,983.3127411999994,983.3163154999993,983.3284297,983.3284297,983.3284297,983.3284297,985.3283507999995,985.3283507999995,985.3283507999995,985.3283507999995,985.3130984,3,None,0.9195122999999512,0.627696499999729,,,,,,,,,,,,,,,,,,1269,1,2025-09-20_11h21.11.455,sm,2024.2.4,59.96253540771553,2025-09-20 11h21.25.241563 +0200,
65,0,65,,,,,,space,1.741664000000128,None,None,3,None,1.023013500000161,0.2659987999995792,0,0,0,0,,,,,1,0,1,0,,,,,65,0,65,0,985.3283507999995,,,,,,,,,,,,,,,,,,,,,,,,,,,,,,,,,,,,,,,,,,,,,,,,,,,,,,,,,Rose,2.1088,985.3136199,985.3141404999997,985.3142447,985.3283507999995,987.4448278999998,987.4291442999993,987.4329138999992,987.4448278999998,987.4448278999998,987.4448278999998,987.4448278999998,989.4447621999998,989.4447621999998,989.4447621999998,989.4447621999998,989.4297661999999,3,None,1.023013500000161,0.2659987999995792,,,,,,,,,,,,,,,,,,1269,1,2025-09-20_11h21.11.455,sm,2024.2.4,59.96253540771553,2025-09-20 11h21.25.241563 +0200,
