thisN,thisTrialN,thisRepN,Cue,Target,Mediator1,Mediator2,iti,scanner_ready_press.keys,scanner_ready_press.rt,scanner_ready_press.duration,skip_trigger.keys,living_nonliving.keys,living_nonliving.rt,living_nonliving.duration,end_mapping.keys,blocks.thisRepN,blocks.thisTrialN,blocks.thisN,blocks.thisIndex,load_and_shuffle.thisRepN,load_and_shuffle.thisTrialN,load_and_shuffle.thisN,load_and_shuffle.thisIndex,runs.thisRepN,runs.thisTrialN,runs.thisN,runs.thisIndex,iti_loading_loop.thisRepN,iti_loading_loop.thisTrialN,iti_loading_loop.thisN,iti_loading_loop.thisIndex,semantic_mapping_run.thisRepN,semantic_mapping_run.thisTrialN,semantic_mapping_run.thisN,semantic_mapping_run.thisIndex,thisRow.t,notes,welcome.started,welcome_text.started,welcome_text.stopped,welcome.stopped,scout.started,scout_text.started,key_resp.started,scout.stopped,key_resp.keys,key_resp.rt,key_resp.duration,instructions_semantic_mapping1.started,sm_instructions1_text.started,sm_instructions1_key.started,instructions_semantic_mapping1.stopped,sm_instructions1_key.keys,sm_instructions1_key.rt,sm_instructions1_key.duration,instructions_semantic_mapping2.started,sm_instructions2_text.started,sm_instructions2_key.started,instructions_semantic_mapping2.stopped,sm_instructions2_key.keys,sm_instructions2_key.rt,sm_instructions2_key.duration,reset_run.started,reset_run.stopped,shuffle_items.started,shuffle_items.stopped,set_up_runs.started,set_up_runs.stopped,load_iti.started,load_iti.stopped,prep_scanner.started,scanner_ready_press.started,ready_set_text.started,prep_scanner.stopped,runs.scanner_ready_press.keys,runs.scanner_ready_press.rt,runs.scanner_ready_press.duration,wait_for_trigger.started,starting_soon.started,skip_trigger.started,wait_for_trigger.stopped,runs.skip_trigger.keys,blank.started,begin_end_run_cross.started,sound_1.started,sound_1.stopped,sound_2.started,sound_2.stopped,blank.stopped,CurrentItem,CurrentITI,set_up_trial.started,set_up_trial.stopped,sm_iti.started,iti_cross.started,iti_cross.stopped,sm_iti.stopped,item.started,living_nonliving.started,end_mapping.started,living_nonliving_text.started,semantic_map_item.started,living_nonliving.stopped,end_mapping.stopped,living_nonliving_text.stopped,semantic_map_item.stopped,item.stopped,semantic_mapping_run.living_nonliving.keys,semantic_mapping_run.living_nonliving.rt,semantic_mapping_run.living_nonliving.duration,semantic_mapping_run.end_mapping.keys,fieldmap.started,fieldmap.stopped,runs.fm_key.keys,task_break.started,feeback_text.started,task_break_text.started,task_break_resp.started,feeback_text.stopped,task_break.stopped,runs.task_break_resp.keys,runs.task_break_resp.rt,runs.task_break_resp.duration,begin_end_run_cross.stopped,fm_text.started,fm_key.started,runs.fm_key.rt,runs.fm_key.duration,thanks.started,thanks_text.started,thanks.stopped,PID,MRI,date,expName,psychopyVersion,frameRate,expStart,
,,,,,,,,,,,,,,,,,,,,,,,,,,,,,,,,,,,,,,0.0037321999998312094,0.009304299999712384,3.008433299999524,2.9927520999999615,,,,,,,,,,,,,,,,,,,,,,,,,,,,,,,,,,,,,,,,,,,,,,,,,,,,,,,,,,,,,,,,,,,,,,,,,,,,,,,,,,,,,,,,,,,4110,1,2025-06-06_14h00.43.501,sm,2024.2.4,59.95480606735098,2025-06-06 14h00.57.307122 +0200,
,,,,,,,,,,,,,,,,,,,,,,,,,,,,,,,,,,,,,,,,,,2.9928408999994645,3.008433299999524,3.008433299999524,89.94489340000018,space,86.91931149999982,None,,,,,,,,,,,,,,,,,,,,,,,,,,,,,,,,,,,,,,,,,,,,,,,,,,,,,,,,,,,,,,,,,,,,,,,,,,,,,,,,,,,,4110,1,2025-06-06_14h00.43.501,sm,2024.2.4,59.95480606735098,2025-06-06 14h00.57.307122 +0200,
,,,,,,,,,,,,,,,,,,,,,,,,,,,,,,,,,,,,,,,,,,,,,,,,,89.94501659999969,89.95404030000009,89.95404030000009,96.73850330000005,3,6.775526999999784,None,,,,,,,,,,,,,,,,,,,,,,,,,,,,,,,,,,,,,,,,,,,,,,,,,,,,,,,,,,,,,,,,,,,,,,,,,,,,,4110,1,2025-06-06_14h00.43.501,sm,2024.2.4,59.95480606735098,2025-06-06 14h00.57.307122 +0200,
,,,,,,,,,,,,,,,,,,,,,,,,,,,,,,,,,,,,,,,,,,,,,,,,,,,,,,,,96.7388178000001,96.75306199999977,96.75306199999977,107.35438040000008,2,10.59566889999951,None,,,,,,,,,,,,,,,,,,,,,,,,,,,,,,,,,,,,,,,,,,,,,,,,,,,,,,,,,,,,,,,,,,,,,,4110,1,2025-06-06_14h00.43.501,sm,2024.2.4,59.95480606735098,2025-06-06 14h00.57.307122 +0200,
0,0,0,Humor,Komödie,Lachen,Spaß,2.1949,space,2.602995200000805,None,None,3,1.5244308999999703,0.22600710000006075,None,0,0,0,0,0,79,79,2,0,0,0,0,0,79,79,35,0,0,0,0,168.21570530000008,,,,,,,,,,,,,,,,,,,,,,,,,,,107.35525729999972,107.35595190000004,107.42181170000003,107.42205259999992,107.42643259999932,107.4267319999999,107.45723709999947,107.45744579999973,107.46381370000017,107.46864839999944,107.46864839999944,110.08612809999977,space,2.602995200000805,None,110.08628570000019,110.10263709999981,110.10263709999981,156.18261299999995,None,156.1910329000002,156.2003023999996,156.19796516666636,157.4045202999996,166.18233636666653,167.18460229999982,168.1993083999996,Käse,2.1949,168.20077129999936,168.20165019999968,168.20515089999935,168.21570530000008,170.41534460000003,170.40001649999977,170.40588659999958,170.41534460000003,170.41534460000003,170.41534460000003,170.41534460000003,172.41550769999958,172.41550769999958,172.41550769999958,172.41550769999958,172.40023740000015,3,1.5244308999999703,0.22600710000006075,None,,,,,,,,,,,,,,,,,,,,,4110,1,2025-06-06_14h00.43.501,sm,2024.2.4,59.95480606735098,2025-06-06 14h00.57.307122 +0200,
1,0,1,,,,,,space,2.602995200000805,None,None,2,1.3559873999993215,0.1838619000000108,None,0,0,0,0,,,,,0,0,0,0,,,,,1,0,1,0,172.41550769999958,,,,,,,,,,,,,,,,,,,,,,,,,,,,,,,,,,,,,,,,,,,,,,,,,,,,,,Applaus,2.1831,172.40075989999968,172.4012732000001,172.40137559999948,172.41550769999958,174.59865009999976,174.58297609999954,174.5874428999996,174.59865009999976,174.59865009999976,174.59865009999976,174.59865009999976,176.59856429999945,176.59856429999945,176.59856429999945,176.59856429999945,176.58301739999933,2,1.3559873999993215,0.1838619000000108,None,,,,,,,,,,,,,,,,,,,,,4110,1,2025-06-06_14h00.43.501,sm,2024.2.4,59.95480606735098,2025-06-06 14h00.57.307122 +0200,
2,0,2,,,,,,space,2.602995200000805,None,None,3,1.0607904999997118,0.18991600000026665,None,0,0,0,0,,,,,0,0,0,0,,,,,2,0,2,0,176.59856429999945,,,,,,,,,,,,,,,,,,,,,,,,,,,,,,,,,,,,,,,,,,,,,,,,,,,,,,Telefon,2.021,176.5835244,176.58417379999992,176.58427979999942,176.59856429999945,178.6316968000001,178.61602820000007,178.62087359999987,178.6316968000001,178.6316968000001,178.6316968000001,178.6316968000001,,,,,180.61752439999964,3,1.0607904999997118,0.18991600000026665,None,,,,,,,,,,,,,,,,,,,,,4110,1,2025-06-06_14h00.43.501,sm,2024.2.4,59.95480606735098,2025-06-06 14h00.57.307122 +0200,
3,0,3,,,,,,space,2.602995200000805,None,None,3,1.4397071999992477,0.23373030000038852,None,0,0,0,0,,,,,0,0,0,0,,,,,3,0,3,0,180.63167350000003,,,,,,,,,,,,,,,,,,,,,,,,,,,,,,,,,,,,,,,,,,,,,,,,,,,,,,Weltraum,5.3655,180.6180346000001,180.6188876999995,180.6189991000001,180.63167350000003,185.99782210000012,185.98228980000022,185.9864904999995,185.99782210000012,185.99782210000012,185.99782210000012,185.99782210000012,187.99794609999935,187.99794609999935,187.99794609999935,187.99794609999935,187.98222009999972,3,1.4397071999992477,0.23373030000038852,None,,,,,,,,,,,,,,,,,,,,,4110,1,2025-06-06_14h00.43.501,sm,2024.2.4,59.95480606735098,2025-06-06 14h00.57.307122 +0200,
4,0,4,,,,,,space,2.602995200000805,None,None,3,1.1042320999995354,0.23003140000037092,None,0,0,0,0,,,,,0,0,0,0,,,,,4,0,4,0,187.99794609999935,,,,,,,,,,,,,,,,,,,,,,,,,,,,,,,,,,,,,,,,,,,,,,,,,,,,,,Wahrheit,2.2129,187.98273269999936,187.9832618999999,187.98337329999958,187.99794609999935,190.2143519000001,190.19900700000017,190.20331110000006,190.2143519000001,190.2143519000001,190.2143519000001,190.2143519000001,192.2145230999995,192.2145230999995,192.2145230999995,192.2145230999995,192.19875039999988,3,1.1042320999995354,0.23003140000037092,None,,,,,,,,,,,,,,,,,,,,,4110,1,2025-06-06_14h00.43.501,sm,2024.2.4,59.95480606735098,2025-06-06 14h00.57.307122 +0200,
5,0,5,,,,,,space,2.602995200000805,None,None,3,1.007971500000167,0.22803419999945618,None,0,0,0,0,,,,,0,0,0,0,,,,,5,0,5,0,192.2145230999995,,,,,,,,,,,,,,,,,,,,,,,,,,,,,,,,,,,,,,,,,,,,,,,,,,,,,,Hügel,2.5169,192.19926459999988,192.19977440000002,192.19987989999936,192.2145230999995,194.7306123999997,194.7150789999996,194.7213155999998,194.7306123999997,194.7306123999997,194.7306123999997,194.7306123999997,196.73065150000002,196.73065150000002,196.73065150000002,196.73065150000002,196.71519290000015,3,1.007971500000167,0.22803419999945618,None,,,,,,,,,,,,,,,,,,,,,4110,1,2025-06-06_14h00.43.501,sm,2024.2.4,59.95480606735098,2025-06-06 14h00.57.307122 +0200,
6,0,6,,,,,,space,2.602995200000805,None,None,3,0.9929634999998598,0.1966098000002603,None,0,0,0,0,,,,,0,0,0,0,,,,,6,0,6,0,196.73065150000002,,,,,,,,,,,,,,,,,,,,,,,,,,,,,,,,,,,,,,,,,,,,,,,,,,,,,,Sumpf,4.3756,196.71569779999936,196.71635009999954,196.71645249999983,196.73065150000002,201.1138136999998,201.09816520000004,201.10148179999942,201.1138136999998,201.1138136999998,201.1138136999998,201.1138136999998,203.11384399999952,203.11384399999952,203.11384399999952,203.11384399999952,203.0983011999997,3,0.9929634999998598,0.1966098000002603,None,,,,,,,,,,,,,,,,,,,,,4110,1,2025-06-06_14h00.43.501,sm,2024.2.4,59.95480606735098,2025-06-06 14h00.57.307122 +0200,
7,0,7,,,,,,space,2.602995200000805,None,None,2,1.306285100000423,0.10310779999963415,None,0,0,0,0,,,,,0,0,0,0,,,,,7,0,7,0,203.11384399999952,,,,,,,,,,,,,,,,,,,,,,,,,,,,,,,,,,,,,,,,,,,,,,,,,,,,,,Gesicht,3.2825,203.09880729999986,203.0994542999997,203.0995587999996,203.11384399999952,206.39675459999944,206.3811980999999,206.38547689999996,206.39675459999944,206.39675459999944,206.39675459999944,206.39675459999944,208.3968163999998,208.3968163999998,208.3968163999998,208.3968163999998,208.3811971999994,2,1.306285100000423,0.10310779999963415,None,,,,,,,,,,,,,,,,,,,,,4110,1,2025-06-06_14h00.43.501,sm,2024.2.4,59.95480606735098,2025-06-06 14h00.57.307122 +0200,
8,0,8,,,,,,space,2.602995200000805,None,None,3,1.4887001999995846,0.26196230000005016,None,0,0,0,0,,,,,0,0,0,0,,,,,8,0,8,0,208.3968163999998,,,,,,,,,,,,,,,,,,,,,,,,,,,,,,,,,,,,,,,,,,,,,,,,,,,,,,Knie,2.9036,208.38170629999968,208.38222959999985,208.38233499999933,208.3968163999998,211.31292979999944,211.29746069999965,211.30147309999938,211.31292979999944,211.31292979999944,211.31292979999944,211.31292979999944,213.31320400000004,213.31320400000004,213.31320400000004,213.31320400000004,213.29774579999957,3,1.4887001999995846,0.26196230000005016,None,,,,,,,,,,,,,,,,,,,,,4110,1,2025-06-06_14h00.43.501,sm,2024.2.4,59.95480606735098,2025-06-06 14h00.57.307122 +0200,
9,0,9,,,,,,space,2.602995200000805,None,None,3,1.230510499999582,0.20936489999985497,None,0,0,0,0,,,,,0,0,0,0,,,,,9,0,9,0,213.31320400000004,,,,,,,,,,,,,,,,,,,,,,,,,,,,,,,,,,,,,,,,,,,,,,,,,,,,,,Kerzen,2.3843,213.29825429999983,213.29885959999956,213.2989609999995,213.31320400000004,215.69636609999998,215.68096969999988,215.68474369999967,215.69636609999998,215.69636609999998,215.69636609999998,215.69636609999998,217.69625180000003,217.69625180000003,217.69625180000003,217.69625180000003,217.68063269999948,3,1.230510499999582,0.20936489999985497,None,,,,,,,,,,,,,,,,,,,,,4110,1,2025-06-06_14h00.43.501,sm,2024.2.4,59.95480606735098,2025-06-06 14h00.57.307122 +0200,
10,0,10,,,,,,space,2.602995200000805,None,None,3,1.008972200000244,0.2390082000001712,None,0,0,0,0,,,,,0,0,0,0,,,,,10,0,10,0,217.69625180000003,,,,,,,,,,,,,,,,,,,,,,,,,,,,,,,,,,,,,,,,,,,,,,,,,,,,,,Sauber,3.0127,217.68113709999943,217.6817130999998,217.68181539999932,217.69625180000003,220.7127888999994,220.6992924999995,220.70306559999972,220.7127888999994,220.7127888999994,220.7127888999994,220.7127888999994,222.71264470000006,222.71264470000006,222.71264470000006,222.71264470000006,222.69703909999953,3,1.008972200000244,0.2390082000001712,None,,,,,,,,,,,,,,,,,,,,,4110,1,2025-06-06_14h00.43.501,sm,2024.2.4,59.95480606735098,2025-06-06 14h00.57.307122 +0200,
11,0,11,,,,,,space,2.602995200000805,None,None,3,1.1805360999996992,0.2732696000002761,None,0,0,0,0,,,,,0,0,0,0,,,,,11,0,11,0,222.71264470000006,,,,,,,,,,,,,,,,,,,,,,,,,,,,,,,,,,,,,,,,,,,,,,,,,,,,,,Flut,2.0168,222.69755110000006,222.69807339999988,222.6981783000001,222.71264470000006,224.72899179999968,224.7136504,224.71946579999985,224.72899179999968,224.72899179999968,224.72899179999968,224.72899179999968,226.72894279999946,226.72894279999946,226.72894279999946,226.72894279999946,226.7137886999999,3,1.1805360999996992,0.2732696000002761,None,,,,,,,,,,,,,,,,,,,,,4110,1,2025-06-06_14h00.43.501,sm,2024.2.4,59.95480606735098,2025-06-06 14h00.57.307122 +0200,
12,0,12,,,,,,space,2.602995200000805,None,None,3,0.8349632999997993,0.2793682000001354,None,0,0,0,0,,,,,0,0,0,0,,,,,12,0,12,0,226.72894279999946,,,,,,,,,,,,,,,,,,,,,,,,,,,,,,,,,,,,,,,,,,,,,,,,,,,,,,Zucker,2.4167,226.71426379999957,226.71473389999937,226.71482639999977,226.72894279999946,229.14569870000014,229.13025839999955,229.13629719999972,229.14569870000014,229.14569870000014,229.14569870000014,229.14569870000014,231.14552339999955,231.14552339999955,231.14552339999955,231.14552339999955,231.12986189999992,3,0.8349632999997993,0.2793682000001354,None,,,,,,,,,,,,,,,,,,,,,4110,1,2025-06-06_14h00.43.501,sm,2024.2.4,59.95480606735098,2025-06-06 14h00.57.307122 +0200,
13,0,13,,,,,,space,2.602995200000805,None,None,3,0.940291700000671,0.25542379999933473,None,0,0,0,0,,,,,0,0,0,0,,,,,13,0,13,0,231.14552339999955,,,,,,,,,,,,,,,,,,,,,,,,,,,,,,,,,,,,,,,,,,,,,,,,,,,,,,Kante,2.9109,231.1303754999999,231.1308809000002,231.1309855999998,231.14552339999955,234.0619283999995,234.04591600000003,234.05005619999974,234.0619283999995,234.0619283999995,234.0619283999995,234.0619283999995,236.06182949999948,236.06182949999948,236.06182949999948,236.06182949999948,236.0462555999993,3,0.940291700000671,0.25542379999933473,None,,,,,,,,,,,,,,,,,,,,,4110,1,2025-06-06_14h00.43.501,sm,2024.2.4,59.95480606735098,2025-06-06 14h00.57.307122 +0200,
14,0,14,,,,,,space,2.602995200000805,None,None,None,,,None,0,0,0,0,,,,,0,0,0,0,,,,,14,0,14,0,236.06182949999948,,,,,,,,,,,,,,,,,,,,,,,,,,,,,,,,,,,,,,,,,,,,,,,,,,,,,,Urlaub,2.3006,236.0467619000001,236.04727679999996,236.04738550000002,236.06182949999948,238.36169789999985,238.34608329999992,238.3525714999996,238.36169789999985,238.36169789999985,238.36169789999985,238.36169789999985,240.3617819000001,240.3617819000001,240.3617819000001,240.3617819000001,240.3460845999998,None,,,None,,,,,,,,,,,,,,,,,,,,,4110,1,2025-06-06_14h00.43.501,sm,2024.2.4,59.95480606735098,2025-06-06 14h00.57.307122 +0200,
15,0,15,,,,,,space,2.602995200000805,None,None,3,0.9639353000002302,0.22911389999990206,None,0,0,0,0,,,,,0,0,0,0,,,,,15,0,15,0,240.3617819000001,,,,,,,,,,,,,,,,,,,,,,,,,,,,,,,,,,,,,,,,,,,,,,,,,,,,,,Anführer,2.0946,240.34655870000006,240.34707939999953,240.34718199999952,240.3617819000001,242.46135219999996,242.44565989999955,242.44928209999944,242.46135219999996,242.46135219999996,242.46135219999996,242.46135219999996,244.4614034999995,244.4614034999995,244.4614034999995,244.4614034999995,244.44595729999946,3,0.9639353000002302,0.22911389999990206,None,,,,,,,,,,,,,,,,,,,,,4110,1,2025-06-06_14h00.43.501,sm,2024.2.4,59.95480606735098,2025-06-06 14h00.57.307122 +0200,
16,0,16,,,,,,space,2.602995200000805,None,None,3,0.698694599999726,0.23725130000002537,None,0,0,0,0,,,,,0,0,0,0,,,,,16,0,16,0,244.4614034999995,,,,,,,,,,,,,,,,,,,,,,,,,,,,,,,,,,,,,,,,,,,,,,,,,,,,,,Zeitung,2.0934,244.44646550000016,244.44696740000018,244.4470821999994,244.4614034999995,246.5612016999994,246.54545280000002,246.54912289999993,246.5612016999994,246.5612016999994,246.5612016999994,246.5612016999994,248.56124809999983,248.56124809999983,248.56124809999983,248.56124809999983,248.54545270000017,3,0.698694599999726,0.23725130000002537,None,,,,,,,,,,,,,,,,,,,,,4110,1,2025-06-06_14h00.43.501,sm,2024.2.4,59.95480606735098,2025-06-06 14h00.57.307122 +0200,
17,0,17,,,,,,space,2.602995200000805,None,None,2,1.0700284000004103,0.2114400000000387,None,0,0,0,0,,,,,0,0,0,0,,,,,17,0,17,0,248.56124809999983,,,,,,,,,,,,,,,,,,,,,,,,,,,,,,,,,,,,,,,,,,,,,,,,,,,,,,Ozean,2.5377,248.54590499999995,248.54639289999977,248.54648550000002,248.56124809999983,251.11051279999992,251.09528659999978,251.10154599999987,251.11051279999992,251.11051279999992,251.11051279999992,251.11051279999992,253.11096910000015,253.11096910000015,253.11096910000015,253.11096910000015,253.09541219999937,2,1.0700284000004103,0.2114400000000387,None,,,,,,,,,,,,,,,,,,,,,4110,1,2025-06-06_14h00.43.501,sm,2024.2.4,59.95480606735098,2025-06-06 14h00.57.307122 +0200,
18,0,18,,,,,,space,2.602995200000805,None,None,2,0.9249842999997782,0.19806340000013734,None,0,0,0,0,,,,,0,0,0,0,,,,,18,0,18,0,253.11096910000015,,,,,,,,,,,,,,,,,,,,,,,,,,,,,,,,,,,,,,,,,,,,,,,,,,,,,,Puppe,2.1186,253.09591889999956,253.09656610000002,253.09666909999942,253.11096910000015,255.2438775999999,255.2288056999996,255.23446999999942,255.2438775999999,255.2438775999999,255.2438775999999,255.2438775999999,257.24396999999954,257.24396999999954,257.24396999999954,257.24396999999954,257.2285307000002,2,0.9249842999997782,0.19806340000013734,None,,,,,,,,,,,,,,,,,,,,,4110,1,2025-06-06_14h00.43.501,sm,2024.2.4,59.95480606735098,2025-06-06 14h00.57.307122 +0200,
19,0,19,,,,,,space,2.602995200000805,None,None,2,0.8388711999996303,0.2018606000001455,None,0,0,0,0,,,,,0,0,0,0,,,,,19,0,19,0,257.24396999999954,,,,,,,,,,,,,,,,,,,,,,,,,,,,,,,,,,,,,,,,,,,,,,,,,,,,,,Musik,3.8592,257.22899959999995,257.2295060999995,257.22960389999935,257.24396999999954,261.1100398999997,261.0946401000001,261.0982935000002,261.1100398999997,261.1100398999997,261.1100398999997,261.1100398999997,263.11075749999964,263.11075749999964,263.11075749999964,263.11075749999964,263.09472709999955,2,0.8388711999996303,0.2018606000001455,None,,,,,,,,,,,,,,,,,,,,,4110,1,2025-06-06_14h00.43.501,sm,2024.2.4,59.95480606735098,2025-06-06 14h00.57.307122 +0200,
20,0,20,,,,,,space,2.602995200000805,None,None,3,1.3752840999995897,0.23097409999991214,None,0,0,0,0,,,,,0,0,0,0,,,,,20,0,20,0,263.11075749999964,,,,,,,,,,,,,,,,,,,,,,,,,,,,,,,,,,,,,,,,,,,,,,,,,,,,,,Eltern,2.9832,263.09524689999944,263.0958473999999,263.09595179999997,263.11075749999964,266.0934993999999,266.07784549999997,266.08269740000014,266.0934993999999,266.0934993999999,266.0934993999999,266.0934993999999,268.09337249999953,268.09337249999953,268.09337249999953,268.09337249999953,268.07790939999995,3,1.3752840999995897,0.23097409999991214,None,,,,,,,,,,,,,,,,,,,,,4110,1,2025-06-06_14h00.43.501,sm,2024.2.4,59.95480606735098,2025-06-06 14h00.57.307122 +0200,
21,0,21,,,,,,space,2.602995200000805,None,None,3,1.4002473000000464,0.25966870000047493,None,0,0,0,0,,,,,0,0,0,0,,,,,21,0,21,0,268.09337249999953,,,,,,,,,,,,,,,,,,,,,,,,,,,,,,,,,,,,,,,,,,,,,,,,,,,,,,Lava,2.1697,268.07841929999995,268.0789301999994,268.07903519999945,268.09337249999953,270.2765615999997,270.26088100000015,270.26444569999967,270.2765615999997,270.2765615999997,270.2765615999997,270.2765615999997,272.27644539999983,272.27644539999983,272.27644539999983,272.27644539999983,272.2607823999997,3,1.4002473000000464,0.25966870000047493,None,,,,,,,,,,,,,,,,,,,,,4110,1,2025-06-06_14h00.43.501,sm,2024.2.4,59.95480606735098,2025-06-06 14h00.57.307122 +0200,
22,0,22,,,,,,space,2.602995200000805,None,None,3,0.8507009999993898,0.23833660000036616,None,0,0,0,0,,,,,0,0,0,0,,,,,22,0,22,0,272.27644539999983,,,,,,,,,,,,,,,,,,,,,,,,,,,,,,,,,,,,,,,,,,,,,,,,,,,,,,Stiefel,2.6097,272.2612889000002,272.26194249999935,272.2620514,272.27644539999983,274.8926357999999,274.8774419000001,274.8809861,274.8926357999999,274.8926357999999,274.8926357999999,274.8926357999999,276.89296659999945,276.89296659999945,276.89296659999945,276.89296659999945,276.8774545999995,3,0.8507009999993898,0.23833660000036616,None,,,,,,,,,,,,,,,,,,,,,4110,1,2025-06-06_14h00.43.501,sm,2024.2.4,59.95480606735098,2025-06-06 14h00.57.307122 +0200,
23,0,23,,,,,,space,2.602995200000805,None,None,3,1.0413626999998087,0.36551560000043537,None,0,0,0,0,,,,,0,0,0,0,,,,,23,0,23,0,276.89296659999945,,,,,,,,,,,,,,,,,,,,,,,,,,,,,,,,,,,,,,,,,,,,,,,,,,,,,,Zunge,2.5982,276.8779582999996,276.87861780000003,276.8787207999994,276.89296659999945,279.49235919999956,279.47700050000003,279.48088279999956,279.49235919999956,279.49235919999956,279.49235919999956,279.49235919999956,281.4928264,281.4928264,281.4928264,281.4928264,281.4770827000002,3,1.0413626999998087,0.36551560000043537,None,,,,,,,,,,,,,,,,,,,,,4110,1,2025-06-06_14h00.43.501,sm,2024.2.4,59.95480606735098,2025-06-06 14h00.57.307122 +0200,
24,0,24,,,,,,space,2.602995200000805,None,None,3,1.0004515999999057,0.38072009999996226,None,0,0,0,0,,,,,0,0,0,0,,,,,24,0,24,0,281.4928264,,,,,,,,,,,,,,,,,,,,,,,,,,,,,,,,,,,,,,,,,,,,,,,,,,,,,,Schnee,2.1743,281.4775921999999,281.47811269999966,281.4782226999996,281.4928264,283.6756968999998,283.660433,283.6640542999994,283.6756968999998,283.6756968999998,283.6756968999998,283.6756968999998,285.6757220999998,285.6757220999998,285.6757220999998,285.6757220999998,285.66012599999976,3,1.0004515999999057,0.38072009999996226,None,,,,,,,,,,,,,,,,,,,,,4110,1,2025-06-06_14h00.43.501,sm,2024.2.4,59.95480606735098,2025-06-06 14h00.57.307122 +0200,
25,0,25,,,,,,space,2.602995200000805,None,None,3,1.1301917000000685,0.25737130000015895,None,0,0,0,0,,,,,0,0,0,0,,,,,25,0,25,0,285.6757220999998,,,,,,,,,,,,,,,,,,,,,,,,,,,,,,,,,,,,,,,,,,,,,,,,,,,,,,Reise,2.3362,285.6606458999995,285.66114879999986,285.6612533999996,285.6757220999998,288.02550989999963,288.0098987000001,288.0140664999999,288.02550989999963,288.02550989999963,288.02550989999963,288.02550989999963,290.02553979999993,290.02553979999993,290.02553979999993,290.02553979999993,290.00991220000014,3,1.1301917000000685,0.25737130000015895,None,,,,,,,,,,,,,,,,,,,,,4110,1,2025-06-06_14h00.43.501,sm,2024.2.4,59.95480606735098,2025-06-06 14h00.57.307122 +0200,
26,0,26,,,,,,space,2.602995200000805,None,None,3,1.2458784999998898,0.22698089999994409,None,0,0,0,0,,,,,0,0,0,0,,,,,26,0,26,0,290.02553979999993,,,,,,,,,,,,,,,,,,,,,,,,,,,,,,,,,,,,,,,,,,,,,,,,,,,,,,Lachen,2.1413,290.0104161999998,290.01106869999967,290.0111716000001,290.02553979999993,292.1752196999996,292.15955979999944,292.1633426999997,292.1752196999996,292.1752196999996,292.1752196999996,292.1752196999996,294.1752569999999,294.1752569999999,294.1752569999999,294.1752569999999,294.1595728000002,3,1.2458784999998898,0.22698089999994409,None,,,,,,,,,,,,,,,,,,,,,4110,1,2025-06-06_14h00.43.501,sm,2024.2.4,59.95480606735098,2025-06-06 14h00.57.307122 +0200,
27,0,27,,,,,,space,2.602995200000805,None,None,3,1.7567361000001256,None,None,0,0,0,0,,,,,0,0,0,0,,,,,27,0,27,0,294.1752569999999,,,,,,,,,,,,,,,,,,,,,,,,,,,,,,,,,,,,,,,,,,,,,,,,,,,,,,Rebe,2.3861,294.16007720000016,294.1605910999997,294.1606961999996,294.1752569999999,296.57468789999984,296.55895989999954,296.56260959999963,296.57468789999984,296.57468789999984,296.57468789999984,296.57468789999984,298.5751203,298.5751203,298.5751203,298.5751203,298.55959639999946,3,1.7567361000001256,None,None,,,,,,,,,,,,,,,,,,,,,4110,1,2025-06-06_14h00.43.501,sm,2024.2.4,59.95480606735098,2025-06-06 14h00.57.307122 +0200,
28,0,28,,,,,,space,2.602995200000805,None,None,3,0.9490611999999601,0.28013240000018413,None,0,0,0,0,,,,,0,0,0,0,,,,,28,0,28,0,298.5751203,,,,,,,,,,,,,,,,,,,,,,,,,,,,,,,,,,,,,,,,,,,,,,,,,,,,,,Hütte,3.6438,298.56009639999957,298.5608668999994,298.5609676999993,298.5751203,302.2248496000002,302.2088718999994,302.2125111999994,302.2248496000002,302.2248496000002,302.2248496000002,302.2248496000002,304.2248964999999,304.2248964999999,304.2248964999999,304.2248964999999,304.20940679999967,3,0.9490611999999601,0.28013240000018413,None,,,,,,,,,,,,,,,,,,,,,4110,1,2025-06-06_14h00.43.501,sm,2024.2.4,59.95480606735098,2025-06-06 14h00.57.307122 +0200,
29,0,29,,,,,,space,2.602995200000805,None,None,3,1.0804068000006737,0.22535749999951804,None,0,0,0,0,,,,,0,0,0,0,,,,,29,0,29,0,304.2248964999999,,,,,,,,,,,,,,,,,,,,,,,,,,,,,,,,,,,,,,,,,,,,,,,,,,,,,,Zeit,3.9589,304.20992899999965,304.21060729999954,304.21071630000006,304.2248964999999,308.1912784999995,308.17549340000005,308.1792298999999,308.1912784999995,308.1912784999995,308.1912784999995,308.1912784999995,310.19105059999947,310.19105059999947,310.19105059999947,310.19105059999947,310.1753517999996,3,1.0804068000006737,0.22535749999951804,None,,,,,,,,,,,,,,,,,,,,,4110,1,2025-06-06_14h00.43.501,sm,2024.2.4,59.95480606735098,2025-06-06 14h00.57.307122 +0200,
30,0,30,,,,,,space,2.602995200000805,None,None,3,1.3473174999999173,0.31016230000022915,None,0,0,0,0,,,,,0,0,0,0,,,,,30,0,30,0,310.19105059999947,,,,,,,,,,,,,,,,,,,,,,,,,,,,,,,,,,,,,,,,,,,,,,,,,,,,,,Büro,3.6005,310.17580089999956,310.17627379999976,310.17636539999967,310.19105059999947,313.79075159999957,313.7750242000002,313.7782610999993,313.79075159999957,313.79075159999957,313.79075159999957,313.79075159999957,315.7908007999995,315.7908007999995,315.7908007999995,315.7908007999995,315.77533719999974,3,1.3473174999999173,0.31016230000022915,None,,,,,,,,,,,,,,,,,,,,,4110,1,2025-06-06_14h00.43.501,sm,2024.2.4,59.95480606735098,2025-06-06 14h00.57.307122 +0200,
31,0,31,,,,,,space,2.602995200000805,None,None,2,0.7832692000001771,0.20941540000058012,None,0,0,0,0,,,,,0,0,0,0,,,,,31,0,31,0,315.7908007999995,,,,,,,,,,,,,,,,,,,,,,,,,,,,,,,,,,,,,,,,,,,,,,,,,,,,,,Fledermaus,3.6297,315.77584729999944,315.7763623999999,315.77646659999937,315.7908007999995,319.4241707000001,319.40870369999993,319.4129234000002,319.4241707000001,319.4241707000001,319.4241707000001,319.4241707000001,321.4238329,321.4238329,321.4238329,321.4238329,321.40812579999965,2,0.7832692000001771,0.20941540000058012,None,,,,,,,,,,,,,,,,,,,,,4110,1,2025-06-06_14h00.43.501,sm,2024.2.4,59.95480606735098,2025-06-06 14h00.57.307122 +0200,
32,0,32,,,,,,space,2.602995200000805,None,None,3,1.4112066999996387,0.23332810000010795,None,0,0,0,0,,,,,0,0,0,0,,,,,32,0,32,0,321.4238329,,,,,,,,,,,,,,,,,,,,,,,,,,,,,,,,,,,,,,,,,,,,,,,,,,,,,,Ei,2.6446,321.40863230000014,321.40913659999933,321.40923979999934,321.4238329,324.0734569999995,324.0579232,324.06179639999937,324.0734569999995,324.0734569999995,324.0734569999995,324.0734569999995,326.07357890000003,326.07357890000003,326.07357890000003,326.07357890000003,326.05792779999956,3,1.4112066999996387,0.23332810000010795,None,,,,,,,,,,,,,,,,,,,,,4110,1,2025-06-06_14h00.43.501,sm,2024.2.4,59.95480606735098,2025-06-06 14h00.57.307122 +0200,
33,0,33,,,,,,space,2.602995200000805,None,None,3,0.924466499999653,0.3060356000005413,None,0,0,0,0,,,,,0,0,0,0,,,,,33,0,33,0,326.07357890000003,,,,,,,,,,,,,,,,,,,,,,,,,,,,,,,,,,,,,,,,,,,,,,,,,,,,,,Tee,2.2074,326.05843229999937,326.05907919999936,326.0591848999993,326.07357890000003,328.2897660999997,328.2741852999998,328.2783092999998,328.2897660999997,328.2897660999997,328.2897660999997,328.2897660999997,330.2898266000002,330.2898266000002,330.2898266000002,330.2898266000002,330.2744004999995,3,0.924466499999653,0.3060356000005413,None,,,,,,,,,,,,,,,,,,,,,4110,1,2025-06-06_14h00.43.501,sm,2024.2.4,59.95480606735098,2025-06-06 14h00.57.307122 +0200,
34,0,34,,,,,,space,2.602995200000805,None,None,3,0.9201550000007046,0.32703739999942627,None,0,0,0,0,,,,,0,0,0,0,,,,,34,0,34,0,330.2898266000002,,,,,,,,,,,,,,,,,,,,,,,,,,,,,,,,,,,,,,,,,,,,,,,,,,,,,,Chips,4.0852,330.2749116999994,330.27565139999933,330.2757544999995,330.2898266000002,334.38951259999976,334.3740115999999,334.3806590999993,334.38951259999976,334.38951259999976,334.38951259999976,334.38951259999976,336.38959840000007,336.38959840000007,336.38959840000007,336.38959840000007,336.3739289999994,3,0.9201550000007046,0.32703739999942627,None,,,,,,,,,,,,,,,,,,,,,4110,1,2025-06-06_14h00.43.501,sm,2024.2.4,59.95480606735098,2025-06-06 14h00.57.307122 +0200,
35,0,35,,,,,,space,2.602995200000805,None,None,3,1.3667120999998588,0.3189719000001787,None,0,0,0,0,,,,,0,0,0,0,,,,,35,0,35,0,336.38959840000007,,,,,,,,,,,,,,,,,,,,,,,,,,,,,,,,,,,,,,,,,,,,,,,,,,,,,,Bildung,2.9645,336.3744422999998,336.3749394999995,336.37504309999986,336.38959840000007,339.3561361000002,339.34058709999954,339.3448561999994,339.3561361000002,339.3561361000002,339.3561361000002,339.3561361000002,341.3558837999999,341.3558837999999,341.3558837999999,341.3558837999999,341.3407527999998,3,1.3667120999998588,0.3189719000001787,None,,,,,,,,,,,,,,,,,,,,,4110,1,2025-06-06_14h00.43.501,sm,2024.2.4,59.95480606735098,2025-06-06 14h00.57.307122 +0200,
36,0,36,,,,,,space,2.602995200000805,None,None,None,,,None,0,0,0,0,,,,,0,0,0,0,,,,,36,0,36,0,341.3558837999999,,,,,,,,,,,,,,,,,,,,,,,,,,,,,,,,,,,,,,,,,,,,,,,,,,,,,,Akrobatin,2.7357,341.34126279999964,341.34191909999936,341.3420232999997,341.3558837999999,344.1057787999998,344.0900406999999,344.094384,344.1057787999998,344.1057787999998,344.1057787999998,344.1057787999998,346.1057882999994,346.1057882999994,346.1057882999994,346.1057882999994,346.0901041999996,None,,,None,,,,,,,,,,,,,,,,,,,,,4110,1,2025-06-06_14h00.43.501,sm,2024.2.4,59.95480606735098,2025-06-06 14h00.57.307122 +0200,
37,0,37,,,,,,space,2.602995200000805,None,None,2,1.3398661000001084,0.15887149999980466,None,0,0,0,0,,,,,0,0,0,0,,,,,37,0,37,0,346.1057882999994,,,,,,,,,,,,,,,,,,,,,,,,,,,,,,,,,,,,,,,,,,,,,,,,,,,,,,Farbe,3.6615,346.09057140000004,346.09120859999985,346.09131290000005,346.1057882999994,349.7720011000001,349.7564945999993,349.7600661999995,349.7720011000001,349.7720011000001,349.7720011000001,349.7720011000001,351.77203199999985,351.77203199999985,351.77203199999985,351.77203199999985,351.7564483999995,2,1.3398661000001084,0.15887149999980466,None,,,,,,,,,,,,,,,,,,,,,4110,1,2025-06-06_14h00.43.501,sm,2024.2.4,59.95480606735098,2025-06-06 14h00.57.307122 +0200,
38,0,38,,,,,,space,2.602995200000805,None,None,3,1.0047656999995525,0.3201429000000644,None,0,0,0,0,,,,,0,0,0,0,,,,,38,0,38,0,351.77203199999985,,,,,,,,,,,,,,,,,,,,,,,,,,,,,,,,,,,,,,,,,,,,,,,,,,,,,,Schleim,5.3463,351.7569588999995,351.7576371999994,351.7577430000001,351.77203199999985,357.1218412999997,357.1062071999995,357.11026479999964,357.1218412999997,357.1218412999997,357.1218412999997,357.1218412999997,359.1216145999997,359.1216145999997,359.1216145999997,359.1216145999997,359.1060023,3,1.0047656999995525,0.3201429000000644,None,,,,,,,,,,,,,,,,,,,,,4110,1,2025-06-06_14h00.43.501,sm,2024.2.4,59.95480606735098,2025-06-06 14h00.57.307122 +0200,
39,0,39,,,,,,space,2.602995200000805,None,None,3,0.9394574999996621,0.34359440000025643,None,0,0,0,0,,,,,0,0,0,0,,,,,39,0,39,0,359.1216145999997,,,,,,,,,,,,,,,,,,,,,,,,,,,,,,,,,,,,,,,,,,,,,,,,,,,,,,Haare,2.3419,359.10650669999995,359.1071015999996,359.1072048999995,359.1216145999997,361.47135119999984,361.45568829999957,361.4600574999995,361.47135119999984,361.47135119999984,361.47135119999984,361.47135119999984,363.4713667999995,363.4713667999995,363.4713667999995,363.4713667999995,363.4557004999997,3,0.9394574999996621,0.34359440000025643,None,,,,,,,,,,,,,,,,,,,,,4110,1,2025-06-06_14h00.43.501,sm,2024.2.4,59.95480606735098,2025-06-06 14h00.57.307122 +0200,
40,0,40,,,,,,space,2.602995200000805,None,None,3,1.3597962000003463,0.3218840999998065,None,0,0,0,0,,,,,0,0,0,0,,,,,40,0,40,0,363.4713667999995,,,,,,,,,,,,,,,,,,,,,,,,,,,,,,,,,,,,,,,,,,,,,,,,,,,,,,Rock,2.9443,363.4562060999997,363.4566963999996,363.4568005000001,363.4713667999995,366.4211153999995,366.40577309999935,366.4090962,366.4211153999995,366.4211153999995,366.4211153999995,366.4211153999995,368.4214310999996,368.4214310999996,368.4214310999996,368.4214310999996,368.40560189999997,3,1.3597962000003463,0.3218840999998065,None,,,,,,,,,,,,,,,,,,,,,4110,1,2025-06-06_14h00.43.501,sm,2024.2.4,59.95480606735098,2025-06-06 14h00.57.307122 +0200,
41,0,41,,,,,,space,2.602995200000805,None,None,3,1.4430535999999847,0.29521090000071126,None,0,0,0,0,,,,,0,0,0,0,,,,,41,0,41,0,368.4214310999996,,,,,,,,,,,,,,,,,,,,,,,,,,,,,,,,,,,,,,,,,,,,,,,,,,,,,,Stein,4.4429,368.40610299999935,368.40684599999986,368.40694819999953,368.4214310999996,372.8707938999996,372.85514859999967,372.85921979999966,372.8707938999996,372.8707938999996,372.8707938999996,372.8707938999996,374.8708188999999,374.8708188999999,374.8708188999999,374.8708188999999,374.85527120000006,3,1.4430535999999847,0.29521090000071126,None,,,,,,,,,,,,,,,,,,,,,4110,1,2025-06-06_14h00.43.501,sm,2024.2.4,59.95480606735098,2025-06-06 14h00.57.307122 +0200,
42,0,42,,,,,,space,2.602995200000805,None,None,3,1.165539799999351,0.30027849999987666,None,0,0,0,0,,,,,0,0,0,0,,,,,42,0,42,0,374.8708188999999,,,,,,,,,,,,,,,,,,,,,,,,,,,,,,,,,,,,,,,,,,,,,,,,,,,,,,Waschbecken,2.7378,374.8557761000002,374.85628649999944,374.8563889999996,374.8708188999999,377.62030929999946,377.6049057,377.6094224999997,377.62030929999946,377.62030929999946,377.62030929999946,377.62030929999946,379.62080329999935,379.62080329999935,379.62080329999935,379.62080329999935,379.6050273000001,3,1.165539799999351,0.30027849999987666,None,,,,,,,,,,,,,,,,,,,,,4110,1,2025-06-06_14h00.43.501,sm,2024.2.4,59.95480606735098,2025-06-06 14h00.57.307122 +0200,
43,0,43,,,,,,space,2.602995200000805,None,None,2,1.2094128999997338,0.12558669999998529,None,0,0,0,0,,,,,0,0,0,0,,,,,43,0,43,0,379.62080329999935,,,,,,,,,,,,,,,,,,,,,,,,,,,,,,,,,,,,,,,,,,,,,,,,,,,,,,Kino,2.1961,379.60552779999944,379.60617719999937,379.60628180000003,379.62080329999935,381.8203002,381.8042932999997,381.8071994000002,381.8203002,381.8203002,381.8203002,381.8203002,383.82022119999965,383.82022119999965,383.82022119999965,383.82022119999965,383.80473749999965,2,1.2094128999997338,0.12558669999998529,None,,,,,,,,,,,,,,,,,,,,,4110,1,2025-06-06_14h00.43.501,sm,2024.2.4,59.95480606735098,2025-06-06 14h00.57.307122 +0200,
44,0,44,,,,,,space,2.602995200000805,None,None,3,1.681152199999815,0.28220450000026176,None,0,0,0,0,,,,,0,0,0,0,,,,,44,0,44,0,383.82022119999965,,,,,,,,,,,,,,,,,,,,,,,,,,,,,,,,,,,,,,,,,,,,,,,,,,,,,,Bett,2.4521,383.8052450999994,383.8057428000002,383.80584739999995,383.82022119999965,386.2867193000002,386.2712944999994,386.27469999999994,386.2867193000002,386.2867193000002,386.2867193000002,386.2867193000002,388.28655119999985,388.28655119999985,388.28655119999985,388.28655119999985,388.2712832999996,3,1.681152199999815,0.28220450000026176,None,,,,,,,,,,,,,,,,,,,,,4110,1,2025-06-06_14h00.43.501,sm,2024.2.4,59.95480606735098,2025-06-06 14h00.57.307122 +0200,
45,0,45,,,,,,space,2.602995200000805,None,None,3,1.4658713999997417,0.24931310000010853,None,0,0,0,0,,,,,0,0,0,0,,,,,45,0,45,0,388.28655119999985,,,,,,,,,,,,,,,,,,,,,,,,,,,,,,,,,,,,,,,,,,,,,,,,,,,,,,Krieg,2.0589,388.2717911999998,388.27230150000014,388.27240769999935,388.28655119999985,390.3529325999998,390.3374702000001,390.34113269999943,390.3529325999998,390.3529325999998,390.3529325999998,390.3529325999998,392.35306989999935,392.35306989999935,392.35306989999935,392.35306989999935,392.33749290000014,3,1.4658713999997417,0.24931310000010853,None,,,,,,,,,,,,,,,,,,,,,4110,1,2025-06-06_14h00.43.501,sm,2024.2.4,59.95480606735098,2025-06-06 14h00.57.307122 +0200,
46,0,46,,,,,,space,2.602995200000805,None,None,3,1.3509778000006918,0.31530839999959426,None,0,0,0,0,,,,,0,0,0,0,,,,,46,0,46,0,392.35306989999935,,,,,,,,,,,,,,,,,,,,,,,,,,,,,,,,,,,,,,,,,,,,,,,,,,,,,,Dorn,3.2059,392.3379814,392.3384820000001,392.33858509999936,392.35306989999935,395.56927949999954,395.5538657999996,395.5581505,395.56927949999954,395.56927949999954,395.56927949999954,395.56927949999954,397.56941519999964,397.56941519999964,397.56941519999964,397.56941519999964,397.5538262,3,1.3509778000006918,0.31530839999959426,None,,,,,,,,,,,,,,,,,,,,,4110,1,2025-06-06_14h00.43.501,sm,2024.2.4,59.95480606735098,2025-06-06 14h00.57.307122 +0200,
47,0,47,,,,,,space,2.602995200000805,None,None,3,1.269406400000662,0.24338769999940268,None,0,0,0,0,,,,,0,0,0,0,,,,,47,0,47,0,397.56941519999964,,,,,,,,,,,,,,,,,,,,,,,,,,,,,,,,,,,,,,,,,,,,,,,,,,,,,,Blatt,2.5519,397.5543305000001,397.5548410000001,397.55494159999944,397.56941519999964,400.13608529999965,400.1202278999999,400.12401239999963,400.13608529999965,400.13608529999965,400.13608529999965,400.13608529999965,402.1358970000001,402.1358970000001,402.1358970000001,402.1358970000001,402.1202865999994,3,1.269406400000662,0.24338769999940268,None,,,,,,,,,,,,,,,,,,,,,4110,1,2025-06-06_14h00.43.501,sm,2024.2.4,59.95480606735098,2025-06-06 14h00.57.307122 +0200,
48,0,48,,,,,,space,2.602995200000805,None,None,3,0.8506016999999702,0.18854389999978594,None,0,0,0,0,,,,,0,0,0,0,,,,,48,0,48,0,402.1358970000001,,,,,,,,,,,,,,,,,,,,,,,,,,,,,,,,,,,,,,,,,,,,,,,,,,,,,,Hammer,3.6564,402.1207581999997,402.12138330000016,402.1214805999998,402.1358970000001,405.8023708999999,405.7865892,405.79064019999987,405.8023708999999,405.8023708999999,405.8023708999999,405.8023708999999,407.80239679999977,407.80239679999977,407.80239679999977,407.80239679999977,407.78660949999994,3,0.8506016999999702,0.18854389999978594,None,,,,,,,,,,,,,,,,,,,,,4110,1,2025-06-06_14h00.43.501,sm,2024.2.4,59.95480606735098,2025-06-06 14h00.57.307122 +0200,
49,0,49,,,,,,space,2.602995200000805,None,None,3,1.4453732000001764,0.23933349999970233,None,0,0,0,0,,,,,0,0,0,0,,,,,49,0,49,0,407.80239679999977,,,,,,,,,,,,,,,,,,,,,,,,,,,,,,,,,,,,,,,,,,,,,,,,,,,,,,Feuer,2.9061,407.78715379999994,407.78766540000015,407.7877736999999,407.80239679999977,410.7184860999996,410.70301649999965,410.70688549999977,410.7184860999996,410.7184860999996,410.7184860999996,410.7184860999996,412.71862989999954,412.71862989999954,412.71862989999954,412.71862989999954,412.7031096999999,3,1.4453732000001764,0.23933349999970233,None,,,,,,,,,,,,,,,,,,,,,4110,1,2025-06-06_14h00.43.501,sm,2024.2.4,59.95480606735098,2025-06-06 14h00.57.307122 +0200,
50,0,50,,,,,,space,2.602995200000805,None,None,None,,,None,0,0,0,0,,,,,0,0,0,0,,,,,50,0,50,0,412.71862989999954,,,,,,,,,,,,,,,,,,,,,,,,,,,,,,,,,,,,,,,,,,,,,,,,,,,,,,Weinen,2.2639,412.7035882,412.7042233000002,412.70432979999987,412.71862989999954,414.9847872,414.9694092,414.9728643999997,414.9847872,414.9847872,414.9847872,414.9847872,416.9850015000002,416.9850015000002,416.9850015000002,416.9850015000002,416.9695271999999,None,,,None,,,,,,,,,,,,,,,,,,,,,4110,1,2025-06-06_14h00.43.501,sm,2024.2.4,59.95480606735098,2025-06-06 14h00.57.307122 +0200,
51,0,51,,,,,,space,2.602995200000805,None,None,3,1.3105711000007432,0.22934669999995094,None,0,0,0,0,,,,,0,0,0,0,,,,,51,0,51,0,416.9850015000002,,,,,,,,,,,,,,,,,,,,,,,,,,,,,,,,,,,,,,,,,,,,,,,,,,,,,,Kunde,3.0547,416.9699935999997,416.9706419999993,416.97074729999986,416.9850015000002,420.05128090000017,420.0357753999997,420.03927789999943,420.05128090000017,420.05128090000017,420.05128090000017,420.05128090000017,422.0513151999994,422.0513151999994,422.0513151999994,422.0513151999994,422.03599099999974,3,1.3105711000007432,0.22934669999995094,None,,,,,,,,,,,,,,,,,,,,,4110,1,2025-06-06_14h00.43.501,sm,2024.2.4,59.95480606735098,2025-06-06 14h00.57.307122 +0200,
52,0,52,,,,,,space,2.602995200000805,None,None,3,1.5335665000002336,0.1761685999999827,None,0,0,0,0,,,,,0,0,0,0,,,,,52,0,52,0,422.0513151999994,,,,,,,,,,,,,,,,,,,,,,,,,,,,,,,,,,,,,,,,,,,,,,,,,,,,,,Medaille,3.1264,422.03648989999965,422.03706539999985,422.0371718999995,422.0513151999994,425.18450049999956,425.1693015999999,425.1736635999996,425.18450049999956,425.18450049999956,425.18450049999956,425.18450049999956,427.18496549999963,427.18496549999963,427.18496549999963,427.18496549999963,427.1687979999997,3,1.5335665000002336,0.1761685999999827,None,,,,,,,,,,,,,,,,,,,,,4110,1,2025-06-06_14h00.43.501,sm,2024.2.4,59.95480606735098,2025-06-06 14h00.57.307122 +0200,
53,0,53,,,,,,space,2.602995200000805,None,None,None,,,None,0,0,0,0,,,,,0,0,0,0,,,,,53,0,53,0,427.18496549999963,,,,,,,,,,,,,,,,,,,,,,,,,,,,,,,,,,,,,,,,,,,,,,,,,,,,,,Trennung,2.8901,427.16930520000005,427.16994609999983,427.1700476999995,427.18496549999963,430.08389799999986,430.0685595999994,430.0732091,430.08389799999986,430.08389799999986,430.08389799999986,430.08389799999986,432.0841983,432.0841983,432.0841983,432.0841983,432.0686384999999,None,,,None,,,,,,,,,,,,,,,,,,,,,4110,1,2025-06-06_14h00.43.501,sm,2024.2.4,59.95480606735098,2025-06-06 14h00.57.307122 +0200,
54,0,54,,,,,,space,2.602995200000805,None,None,3,1.0232636999999158,0.17371640000055777,None,0,0,0,0,,,,,0,0,0,0,,,,,54,0,54,0,432.0841983,,,,,,,,,,,,,,,,,,,,,,,,,,,,,,,,,,,,,,,,,,,,,,,,,,,,,,Geschirr,2.0052,432.0691065000001,432.0696719999996,432.06977519999964,432.0841983,434.1009038000002,434.08520189999945,434.08913459999985,434.1009038000002,434.1009038000002,434.1009038000002,434.1009038000002,436.1005403999998,436.1005403999998,436.1005403999998,436.1005403999998,436.0849711000001,3,1.0232636999999158,0.17371640000055777,None,,,,,,,,,,,,,,,,,,,,,4110,1,2025-06-06_14h00.43.501,sm,2024.2.4,59.95480606735098,2025-06-06 14h00.57.307122 +0200,
55,0,55,,,,,,space,2.602995200000805,None,None,3,0.6203119000001607,0.2583777999998347,None,0,0,0,0,,,,,0,0,0,0,,,,,55,0,55,0,436.1005403999998,,,,,,,,,,,,,,,,,,,,,,,,,,,,,,,,,,,,,,,,,,,,,,,,,,,,,,Helm,2.3599,436.0854755999999,436.0859789999995,436.08608639999966,436.1005403999998,438.4670546999996,438.45137239999985,438.45453389999966,438.4670546999996,438.4670546999996,438.4670546999996,438.4670546999996,440.46708619999936,440.46708619999936,440.46708619999936,440.46708619999936,440.4513200000001,3,0.6203119000001607,0.2583777999998347,None,,,,,,,,,,,,,,,,,,,,,4110,1,2025-06-06_14h00.43.501,sm,2024.2.4,59.95480606735098,2025-06-06 14h00.57.307122 +0200,
56,0,56,,,,,,space,2.602995200000805,None,None,3,0.9050177999997686,0.22683739999956742,None,0,0,0,0,,,,,0,0,0,0,,,,,56,0,56,0,440.46708619999936,,,,,,,,,,,,,,,,,,,,,,,,,,,,,,,,,,,,,,,,,,,,,,,,,,,,,,Krone,3.6723,440.4518223999994,440.45236119999936,440.45246510000015,440.46708619999936,444.14989929999956,444.13445259999935,444.1382329999997,444.14989929999956,444.14989929999956,444.14989929999956,444.14989929999956,446.14993849999973,446.14993849999973,446.14993849999973,446.14993849999973,446.13440639999953,3,0.9050177999997686,0.22683739999956742,None,,,,,,,,,,,,,,,,,,,,,4110,1,2025-06-06_14h00.43.501,sm,2024.2.4,59.95480606735098,2025-06-06 14h00.57.307122 +0200,
57,0,57,,,,,,space,2.602995200000805,None,None,3,1.2247434999999314,0.1904318000006242,None,0,0,0,0,,,,,0,0,0,0,,,,,57,0,57,0,446.14993849999973,,,,,,,,,,,,,,,,,,,,,,,,,,,,,,,,,,,,,,,,,,,,,,,,,,,,,,Gleis,4.3942,446.13490679999995,446.13541259999965,446.13551969999935,446.14993849999973,450.54971299999943,450.5341813999994,450.5382453000002,450.54971299999943,450.54971299999943,450.54971299999943,450.54971299999943,452.54977469999994,452.54977469999994,452.54977469999994,452.54977469999994,452.53454749999946,3,1.2247434999999314,0.1904318000006242,None,,,,,,,,,,,,,,,,,,,,,4110,1,2025-06-06_14h00.43.501,sm,2024.2.4,59.95480606735098,2025-06-06 14h00.57.307122 +0200,
58,0,58,,,,,,space,2.602995200000805,None,None,3,0.7303667999995014,0.28702900000007503,None,0,0,0,0,,,,,0,0,0,0,,,,,58,0,58,0,452.54977469999994,,,,,,,,,,,,,,,,,,,,,,,,,,,,,,,,,,,,,,,,,,,,,,,,,,,,,,Schloss,2.7992,452.5350505999995,452.5355534,452.53565849999995,452.54977469999994,455.3494949999995,455.33375290000004,455.3373363999999,455.3494949999995,455.3494949999995,455.3494949999995,455.3494949999995,457.34936519999974,457.34936519999974,457.34936519999974,457.34936519999974,457.33409219999976,3,0.7303667999995014,0.28702900000007503,None,,,,,,,,,,,,,,,,,,,,,4110,1,2025-06-06_14h00.43.501,sm,2024.2.4,59.95480606735098,2025-06-06 14h00.57.307122 +0200,
59,0,59,,,,,,space,2.602995200000805,None,None,2,1.1892935999994734,0.20335890000023937,None,0,0,0,0,,,,,0,0,0,0,,,,,59,0,59,0,457.34936519999974,,,,,,,,,,,,,,,,,,,,,,,,,,,,,,,,,,,,,,,,,,,,,,,,,,,,,,Löwe,3.4445,457.3345940999998,457.33532809999997,457.3354340999995,457.34936519999974,460.79936069999985,460.78339099999994,460.7864744999997,460.79936069999985,460.79936069999985,460.79936069999985,460.79936069999985,462.79914759999974,462.79914759999974,462.79914759999974,462.79914759999974,462.7834837999999,2,1.1892935999994734,0.20335890000023937,None,,,,,,,,,,,,,,,,,,,,,4110,1,2025-06-06_14h00.43.501,sm,2024.2.4,59.95480606735098,2025-06-06 14h00.57.307122 +0200,
60,0,60,,,,,,space,2.602995200000805,None,None,3,1.08928829999968,0.26230690000011236,None,0,0,0,0,,,,,0,0,0,0,,,,,60,0,60,0,462.79914759999974,,,,,,,,,,,,,,,,,,,,,,,,,,,,,,,,,,,,,,,,,,,,,,,,,,,,,,Gel,4.3424,462.78398500000003,462.7845142999995,462.7846184,462.79914759999974,467.1491735999998,467.1332929,467.1389298999993,467.1491735999998,467.1491735999998,467.1491735999998,467.1491735999998,469.14874059999966,469.14874059999966,469.14874059999966,469.14874059999966,469.1331344,3,1.08928829999968,0.26230690000011236,None,,,,,,,,,,,,,,,,,,,,,4110,1,2025-06-06_14h00.43.501,sm,2024.2.4,59.95480606735098,2025-06-06 14h00.57.307122 +0200,
61,0,61,,,,,,space,2.602995200000805,None,None,2,1.5572806999998647,0.14723180000055436,None,0,0,0,0,,,,,0,0,0,0,,,,,61,0,61,0,469.14874059999966,,,,,,,,,,,,,,,,,,,,,,,,,,,,,,,,,,,,,,,,,,,,,,,,,,,,,,Gruppe,2.4916,469.1336405000002,469.1341339999999,469.13424059999943,469.14874059999966,471.6485627000002,471.6328635,471.63658789999954,471.6485627000002,471.6485627000002,471.6485627000002,471.6485627000002,473.64871369999946,473.64871369999946,473.64871369999946,473.64871369999946,473.63311559999966,2,1.5572806999998647,0.14723180000055436,None,,,,,,,,,,,,,,,,,,,,,4110,1,2025-06-06_14h00.43.501,sm,2024.2.4,59.95480606735098,2025-06-06 14h00.57.307122 +0200,
62,0,62,,,,,,space,2.602995200000805,None,None,2,1.416043800000807,0.16540179999992688,None,0,0,0,0,,,,,0,0,0,0,,,,,62,0,62,0,473.64871369999946,,,,,,,,,,,,,,,,,,,,,,,,,,,,,,,,,,,,,,,,,,,,,,,,,,,,,,Tradition,2.7584,473.6336160000001,473.6341376999999,473.6342416999996,473.64871369999946,476.4151350000002,476.39929519999987,476.40314559999933,476.4151350000002,476.4151350000002,476.4151350000002,476.4151350000002,478.41490149999936,478.41490149999936,478.41490149999936,478.41490149999936,478.39939799999956,2,1.416043800000807,0.16540179999992688,None,,,,,,,,,,,,,,,,,,,,,4110,1,2025-06-06_14h00.43.501,sm,2024.2.4,59.95480606735098,2025-06-06 14h00.57.307122 +0200,
63,0,63,,,,,,space,2.602995200000805,None,None,2,1.3505992000000333,0.13267820000055508,None,0,0,0,0,,,,,0,0,0,0,,,,,63,0,63,0,478.41490149999936,,,,,,,,,,,,,,,,,,,,,,,,,,,,,,,,,,,,,,,,,,,,,,,,,,,,,,Universität,2.3229,478.3999076,478.4004226999996,478.4005253999994,478.41490149999936,480.7480480999993,480.7323637999998,480.73638159999973,480.7480480999993,480.7480480999993,480.7480480999993,480.7480480999993,482.7488591000001,482.7488591000001,482.7488591000001,482.7488591000001,482.73231020000003,2,1.3505992000000333,0.13267820000055508,None,,,,,,,,,,,,,,,,,,,,,4110,1,2025-06-06_14h00.43.501,sm,2024.2.4,59.95480606735098,2025-06-06 14h00.57.307122 +0200,
64,0,64,,,,,,space,2.602995200000805,None,None,3,1.0902254000002358,0.26425079999989975,None,0,0,0,0,,,,,0,0,0,0,,,,,64,0,64,0,482.7488591000001,,,,,,,,,,,,,,,,,,,,,,,,,,,,,,,,,,,,,,,,,,,,,,,,,,,,,,Papier,2.3916,482.7327572999993,482.7332343999997,482.7333284999995,482.7488591000001,485.14782809999997,485.1321336000001,485.13624119999986,485.14782809999997,485.14782809999997,485.14782809999997,485.14782809999997,487.1476953000001,487.1476953000001,487.1476953000001,487.1476953000001,487.1322795999995,3,1.0902254000002358,0.26425079999989975,None,,,,,,,,,,,,,,,,,,,,,4110,1,2025-06-06_14h00.43.501,sm,2024.2.4,59.95480606735098,2025-06-06 14h00.57.307122 +0200,
65,0,65,,,,,,space,2.602995200000805,None,None,2,1.6466181000005236,0.132013200000074,None,0,0,0,0,,,,,0,0,0,0,,,,,65,0,65,0,487.1476953000001,,,,,,,,,,,,,,,,,,,,,,,,,,,,,,,,,,,,,,,,,,,,,,,,,,,,,,Album,3.039,487.13277800000014,487.13345500000014,487.13356099999964,487.1476953000001,490.1972958999995,490.18166779999956,490.1850790999997,490.1972958999995,490.1972958999995,490.1972958999995,490.1972958999995,492.1973786999997,492.1973786999997,492.1973786999997,492.1973786999997,492.1821169999994,2,1.6466181000005236,0.132013200000074,None,,,,,,,,,,,,,,,,,,,,,4110,1,2025-06-06_14h00.43.501,sm,2024.2.4,59.95480606735098,2025-06-06 14h00.57.307122 +0200,
66,0,66,,,,,,space,2.602995200000805,None,None,3,1.0763082999992548,0.2357308999999077,None,0,0,0,0,,,,,0,0,0,0,,,,,66,0,66,0,492.1973786999997,,,,,,,,,,,,,,,,,,,,,,,,,,,,,,,,,,,,,,,,,,,,,,,,,,,,,,Zwerg,2.83,492.18261769999935,492.18313339999986,492.1832392999995,492.1973786999997,495.03028559999984,495.0150232999995,495.0193690999995,495.03028559999984,495.03028559999984,495.03028559999984,495.03028559999984,497.03056709999964,497.03056709999964,497.03056709999964,497.03056709999964,497.0151452,3,1.0763082999992548,0.2357308999999077,None,,,,,,,,,,,,,,,,,,,,,4110,1,2025-06-06_14h00.43.501,sm,2024.2.4,59.95480606735098,2025-06-06 14h00.57.307122 +0200,
67,0,67,,,,,,space,2.602995200000805,None,None,3,0.9795836000002964,0.25032310000005964,None,0,0,0,0,,,,,0,0,0,0,,,,,67,0,67,0,497.03056709999964,,,,,,,,,,,,,,,,,,,,,,,,,,,,,,,,,,,,,,,,,,,,,,,,,,,,,,Schläger,3.189,497.01564939999935,497.0161543999993,497.0162564000002,497.03056709999964,500.23030729999937,500.21459009999944,500.21871699999974,500.23030729999937,500.23030729999937,500.23030729999937,500.23030729999937,502.2305574000002,502.2305574000002,502.2305574000002,502.2305574000002,502.2147377000001,3,0.9795836000002964,0.25032310000005964,None,,,,,,,,,,,,,,,,,,,,,4110,1,2025-06-06_14h00.43.501,sm,2024.2.4,59.95480606735098,2025-06-06 14h00.57.307122 +0200,
68,0,68,,,,,,space,2.602995200000805,None,None,2,1.0893365000001722,0.1489939000002778,None,0,0,0,0,,,,,0,0,0,0,,,,,68,0,68,0,502.2305574000002,,,,,,,,,,,,,,,,,,,,,,,,,,,,,,,,,,,,,,,,,,,,,,,,,,,,,,Vers,5.1698,502.21524820000013,502.21577119999984,502.21587759999966,502.2305574000002,507.4132297999995,507.3977815999997,507.4015406999997,507.4132297999995,507.4132297999995,507.4132297999995,507.4132297999995,509.4132807999995,509.4132807999995,509.4132807999995,509.4132807999995,509.3975290999997,2,1.0893365000001722,0.1489939000002778,None,,,,,,,,,,,,,,,,,,,,,4110,1,2025-06-06_14h00.43.501,sm,2024.2.4,59.95480606735098,2025-06-06 14h00.57.307122 +0200,
69,0,69,,,,,,space,2.602995200000805,None,None,3,1.2630126000003656,0.27692279999973834,None,0,0,0,0,,,,,0,0,0,0,,,,,69,0,69,0,509.4132807999995,,,,,,,,,,,,,,,,,,,,,,,,,,,,,,,,,,,,,,,,,,,,,,,,,,,,,,Soße,2.0031,509.3980419999998,509.39855350000016,509.39865759999975,509.4132807999995,511.42954539999937,511.4139967000001,511.41735719999997,511.42954539999937,511.42954539999937,511.42954539999937,511.42954539999937,513.4296931999997,513.4296931999997,513.4296931999997,513.4296931999997,513.4139774999994,3,1.2630126000003656,0.27692279999973834,None,,,,,,,,,,,,,,,,,,,,,4110,1,2025-06-06_14h00.43.501,sm,2024.2.4,59.95480606735098,2025-06-06 14h00.57.307122 +0200,
70,0,70,,,,,,space,2.602995200000805,None,None,3,0.9373845999998593,0.2533231999996133,None,0,0,0,0,,,,,0,0,0,0,,,,,70,0,70,0,513.4296931999997,,,,,,,,,,,,,,,,,,,,,,,,,,,,,,,,,,,,,,,,,,,,,,,,,,,,,,Schnorchel,2.6312,513.4144685000001,513.4149620999997,513.4150669999999,513.4296931999997,516.0626726,516.0473192,516.0518007999999,516.0626726,516.0626726,516.0626726,516.0626726,518.0627767999995,518.0627767999995,518.0627767999995,518.0627767999995,518.047208,3,0.9373845999998593,0.2533231999996133,None,,,,,,,,,,,,,,,,,,,,,4110,1,2025-06-06_14h00.43.501,sm,2024.2.4,59.95480606735098,2025-06-06 14h00.57.307122 +0200,
71,0,71,,,,,,space,2.602995200000805,None,None,3,1.2683910000005199,0.3115511999994851,None,0,0,0,0,,,,,0,0,0,0,,,,,71,0,71,0,518.0627767999995,,,,,,,,,,,,,,,,,,,,,,,,,,,,,,,,,,,,,,,,,,,,,,,,,,,,,,Sitzgurt,4.5959,518.0477219999993,518.0482438999998,518.0483509999995,518.0627767999995,522.6620923,522.6470908000001,522.6505814000002,522.6620923,522.6620923,522.6620923,522.6620923,524.6626909999995,524.6626909999995,524.6626909999995,524.6626909999995,524.6466626000001,3,1.2683910000005199,0.3115511999994851,None,,,,,,,,,,,,,,,,,,,,,4110,1,2025-06-06_14h00.43.501,sm,2024.2.4,59.95480606735098,2025-06-06 14h00.57.307122 +0200,
72,0,72,,,,,,space,2.602995200000805,None,None,3,0.8430138000003353,0.4206261999997878,None,0,0,0,0,,,,,0,0,0,0,,,,,72,0,72,0,524.6626909999995,,,,,,,,,,,,,,,,,,,,,,,,,,,,,,,,,,,,,,,,,,,,,,,,,,,,,,Orange,2.2385,524.6471688000001,524.6476771999996,524.6477796999998,524.6626909999995,526.9121991000002,526.8968917000002,526.9022580000001,526.9121991000002,526.9121991000002,526.9121991000002,526.9121991000002,528.9122366000001,528.9122366000001,528.9122366000001,528.9122366000001,528.8971231999994,3,0.8430138000003353,0.4206261999997878,None,,,,,,,,,,,,,,,,,,,,,4110,1,2025-06-06_14h00.43.501,sm,2024.2.4,59.95480606735098,2025-06-06 14h00.57.307122 +0200,
73,0,73,,,,,,space,2.602995200000805,None,None,3,1.1772340999996231,0.28423449999991135,None,0,0,0,0,,,,,0,0,0,0,,,,,73,0,73,0,528.9122366000001,,,,,,,,,,,,,,,,,,,,,,,,,,,,,,,,,,,,,,,,,,,,,,,,,,,,,,Netz,4.5524,528.8976247,528.8981212999997,528.8982248000002,528.9122366000001,533.4785182999995,533.4628916000001,533.4666351999995,533.4785182999995,533.4785182999995,533.4785182999995,533.4785182999995,535.4785228000001,535.4785228000001,535.4785228000001,535.4785228000001,535.4628526999995,3,1.1772340999996231,0.28423449999991135,None,,,,,,,,,,,,,,,,,,,,,4110,1,2025-06-06_14h00.43.501,sm,2024.2.4,59.95480606735098,2025-06-06 14h00.57.307122 +0200,
74,0,74,,,,,,space,2.602995200000805,None,None,3,1.9046030999998038,None,None,0,0,0,0,,,,,0,0,0,0,,,,,74,0,74,0,535.4785228000001,,,,,,,,,,,,,,,,,,,,,,,,,,,,,,,,,,,,,,,,,,,,,,,,,,,,,,Mäher,4.4767,535.4633632999994,535.4638762999994,535.4639823999996,535.4785228000001,539.9615211,539.9455866999997,539.9493999999995,539.9615211,539.9615211,539.9615211,539.9615211,541.9613972999996,541.9613972999996,541.9613972999996,541.9613972999996,541.9458318999996,3,1.9046030999998038,None,None,,,,,,,,,,,,,,,,,,,,,4110,1,2025-06-06_14h00.43.501,sm,2024.2.4,59.95480606735098,2025-06-06 14h00.57.307122 +0200,
75,0,75,,,,,,space,2.602995200000805,None,None,3,1.1986454999996567,0.2088488999997935,None,0,0,0,0,,,,,0,0,0,0,,,,,75,0,75,0,541.9613972999996,,,,,,,,,,,,,,,,,,,,,,,,,,,,,,,,,,,,,,,,,,,,,,,,,,,,,,Luft,2.0842,541.9463689999993,541.9469201000002,541.9470234,541.9613972999996,544.0445638000001,544.0290762999994,544.0327114000002,544.0445638000001,544.0445638000001,544.0445638000001,544.0445638000001,546.0447519999998,546.0447519999998,546.0447519999998,546.0447519999998,546.0294200999997,3,1.1986454999996567,0.2088488999997935,None,,,,,,,,,,,,,,,,,,,,,4110,1,2025-06-06_14h00.43.501,sm,2024.2.4,59.95480606735098,2025-06-06 14h00.57.307122 +0200,
76,0,76,,,,,,space,2.602995200000805,None,None,3,1.6163376000004064,0.1975888999995732,None,0,0,0,0,,,,,0,0,0,0,,,,,76,0,76,0,546.0447519999998,,,,,,,,,,,,,,,,,,,,,,,,,,,,,,,,,,,,,,,,,,,,,,,,,,,,,,Sack,2.8516,546.0299295999994,546.0307176999995,546.0308206999998,546.0447519999998,548.9108384000001,548.8950131000001,548.8979476999993,548.9108384000001,548.9108384000001,548.9108384000001,548.9108384000001,550.9109092999997,550.9109092999997,550.9109092999997,550.9109092999997,550.8959479999994,3,1.6163376000004064,0.1975888999995732,None,,,,,,,,,,,,,,,,,,,,,4110,1,2025-06-06_14h00.43.501,sm,2024.2.4,59.95480606735098,2025-06-06 14h00.57.307122 +0200,
77,0,77,,,,,,space,2.602995200000805,None,None,2,1.2927775999996811,0.1342331000005288,None,0,0,0,0,,,,,0,0,0,0,,,,,77,0,77,0,550.9109092999997,,,,,,,,,,,,,,,,,,,,,,,,,,,,,,,,,,,,,,,,,,,,,,,,,,,,,,Vogel,2.4137,550.8964507999999,550.8971702999997,550.8972758999998,550.9109092999997,553.3273162999994,553.3119232999998,553.3159176999998,553.3273162999994,553.3273162999994,553.3273162999994,553.3273162999994,555.3275776,555.3275776,555.3275776,555.3275776,555.3118095999998,2,1.2927775999996811,0.1342331000005288,None,,,,,,,,,,,,,,,,,,,,,4110,1,2025-06-06_14h00.43.501,sm,2024.2.4,59.95480606735098,2025-06-06 14h00.57.307122 +0200,
78,0,78,,,,,,space,2.602995200000805,None,None,2,0.7561875000001237,0.14197259999946255,None,0,0,0,0,,,,,0,0,0,0,,,,,78,0,78,0,555.3275776,,,,,,,,,,,,,,,,,,,,,,,,,,,,,,,,,,,,,,,,,,,,,,,,,,,,,,Besucher,4.7208,555.3123360999998,555.3128631999998,555.3129676999997,555.3275776,560.0600918999999,560.0448915999996,560.0492644999995,560.0600918999999,560.0600918999999,560.0600918999999,560.0600918999999,562.0603363999999,562.0603363999999,562.0603363999999,562.0603363999999,562.0447995999994,2,0.7561875000001237,0.14197259999946255,None,,,,,,,,,,,,,,,,,,,,,4110,1,2025-06-06_14h00.43.501,sm,2024.2.4,59.95480606735098,2025-06-06 14h00.57.307122 +0200,
79,0,79,,,,,,space,2.602995200000805,None,None,2,1.4224577000004501,0.22898480000003474,None,0,0,0,0,,,,,0,0,0,0,,,,,79,0,79,0,562.0603363999999,,,,,,,,,,,,,,,,,,,,,,,,,,,,,,,,,,,,,,,,,,,,,,,,,,,,,,Sturm,2.8863,562.0453032999994,562.0458176000002,562.0459271999998,562.0603363999999,564.9599859999998,564.9445268999998,564.9495284999994,564.9599859999998,564.9599859999998,564.9599859999998,564.9599859999998,566.9714441999995,566.9714441999995,566.9714441999995,566.9714441999995,566.9449518000001,2,1.4224577000004501,0.22898480000003474,None,,,,,,,,,,,,,,,,,,,,,4110,1,2025-06-06_14h00.43.501,sm,2024.2.4,59.95480606735098,2025-06-06 14h00.57.307122 +0200,
0,0,0,,,,,2.7584,space,2.0370237000006455,None,None,3,1.554396600000473,0.21208870000009483,None,0,0,0,0,,,,,1,0,1,0,0,79,79,0,0,0,0,0,615.9574472999993,,,,,,,,,,,,,,,,,,,,,,,,,,,,,,,,,589.3203941000002,589.3206246999998,589.3268552,589.3310481999997,589.3310481999997,591.3768479999999,space,2.0370237000006455,None,591.3770032000002,591.3920652999996,591.3920652999996,603.9427907999998,None,603.9498041999996,603.9577905999995,603.9581492666669,605.1647588999995,613.9575185666665,614.9650147000002,615.9413561000001,Arbeit,2.7584,615.9426617999998,615.9432015000002,615.9432983999995,615.9574472999993,618.7237008000002,618.7081088999994,618.7122449999997,618.7237008000002,618.7237008000002,618.7237008000002,618.7237008000002,620.7236859999994,620.7236859999994,620.7236859999994,620.7236859999994,620.7080719999994,3,1.554396600000473,0.21208870000009483,None,578.9595205999995,578.9595875999994,None,578.9673616,578.9767406000001,582.9759090999996,582.9759090999996,582.9759090999996,589.2769133000002,2,6.284026899999844,None,615.9574472999993,,,,,,,,4110,1,2025-06-06_14h00.43.501,sm,2024.2.4,59.95480606735098,2025-06-06 14h00.57.307122 +0200,
1,0,1,,,,,,space,2.0370237000006455,None,None,3,1.4391123000004882,0.25129610000021785,None,0,0,0,0,,,,,1,0,1,0,,,,,1,0,1,0,620.7236859999994,,,,,,,,,,,,,,,,,,,,,,,,,,,,,,,,,,,,,,,,,,,,,,,,,,,,,,Brise,3.4445,620.7085780999996,620.7092265000001,620.7093307999994,620.7236859999994,624.1735644999999,624.1577300999998,624.1614688999998,624.1735644999999,624.1735644999999,624.1735644999999,624.1735644999999,626.1733180000001,626.1733180000001,626.1733180000001,626.1733180000001,626.1577487999994,3,1.4391123000004882,0.25129610000021785,None,,,,,,,,,,,,,,,,,,,,,4110,1,2025-06-06_14h00.43.501,sm,2024.2.4,59.95480606735098,2025-06-06 14h00.57.307122 +0200,
2,0,2,,,,,,space,2.0370237000006455,None,None,3,1.3220844999996189,0.21332390000043233,None,0,0,0,0,,,,,1,0,1,0,,,,,2,0,2,0,626.1733180000001,,,,,,,,,,,,,,,,,,,,,,,,,,,,,,,,,,,,,,,,,,,,,,,,,,,,,,Postkarte,3.6005,626.1582657999998,626.1589055999993,626.1590080999995,626.1733180000001,629.7729576000002,629.7578884999994,629.7623851999997,629.7729576000002,629.7729576000002,629.7729576000002,629.7729576000002,631.7729506999995,631.7729506999995,631.7729506999995,631.7729506999995,631.7574088000001,3,1.3220844999996189,0.21332390000043233,None,,,,,,,,,,,,,,,,,,,,,4110,1,2025-06-06_14h00.43.501,sm,2024.2.4,59.95480606735098,2025-06-06 14h00.57.307122 +0200,
3,0,3,,,,,,space,2.0370237000006455,None,None,None,,,None,0,0,0,0,,,,,1,0,1,0,,,,,3,0,3,0,631.7729506999995,,,,,,,,,,,,,,,,,,,,,,,,,,,,,,,,,,,,,,,,,,,,,,,,,,,,,,Leute,3.189,631.7578482999998,631.7583157999998,631.7584105999995,631.7729506999995,634.9726892999997,634.9569987999994,634.9607919999999,634.9726892999997,634.9726892999997,634.9726892999997,634.9726892999997,636.9726495999994,636.9726495999994,636.9726495999994,636.9726495999994,636.9574339999999,None,,,None,,,,,,,,,,,,,,,,,,,,,4110,1,2025-06-06_14h00.43.501,sm,2024.2.4,59.95480606735098,2025-06-06 14h00.57.307122 +0200,
4,0,4,,,,,,space,2.0370237000006455,None,None,3,0.7991276000002472,0.2651917000002868,None,0,0,0,0,,,,,1,0,1,0,,,,,4,0,4,0,636.9726495999994,,,,,,,,,,,,,,,,,,,,,,,,,,,,,,,,,,,,,,,,,,,,,,,,,,,,,,Dip,3.039,636.9579100000001,636.958431,636.9585343999997,636.9726495999994,640.0221857999995,640.0065543000001,640.0102778999999,640.0221857999995,640.0221857999995,640.0221857999995,640.0221857999995,642.0223454999996,642.0223454999996,642.0223454999996,642.0223454999996,642.0069991999999,3,0.7991276000002472,0.2651917000002868,None,,,,,,,,,,,,,,,,,,,,,4110,1,2025-06-06_14h00.43.501,sm,2024.2.4,59.95480606735098,2025-06-06 14h00.57.307122 +0200,
5,0,5,,,,,,space,2.0370237000006455,None,None,3,1.1076524999998583,0.1405573000001823,None,0,0,0,0,,,,,1,0,1,0,,,,,5,0,5,0,642.0223454999996,,,,,,,,,,,,,,,,,,,,,,,,,,,,,,,,,,,,,,,,,,,,,,,,,,,,,,Hose,2.3916,642.0074994999995,642.0080361,642.0081390999994,642.0223454999996,644.4224107,644.4067681999995,644.4105223999995,644.4224107,644.4224107,644.4224107,644.4224107,646.4222626000001,646.4222626000001,646.4222626000001,646.4222626000001,646.4070363000001,3,1.1076524999998583,0.1405573000001823,None,,,,,,,,,,,,,,,,,,,,,4110,1,2025-06-06_14h00.43.501,sm,2024.2.4,59.95480606735098,2025-06-06 14h00.57.307122 +0200,
6,0,6,,,,,,space,2.0370237000006455,None,None,3,1.540092399999594,0.14067830000021786,None,0,0,0,0,,,,,1,0,1,0,,,,,6,0,6,0,646.4222626000001,,,,,,,,,,,,,,,,,,,,,,,,,,,,,,,,,,,,,,,,,,,,,,,,,,,,,,Tasse,3.2059,646.4075392999994,646.4080625999995,646.4081726999993,646.4222626000001,649.6384751999994,649.6229542000001,649.6268260999996,649.6384751999994,649.6384751999994,649.6384751999994,649.6384751999994,651.6386680999994,651.6386680999994,651.6386680999994,651.6386680999994,651.6228989000001,3,1.540092399999594,0.14067830000021786,None,,,,,,,,,,,,,,,,,,,,,4110,1,2025-06-06_14h00.43.501,sm,2024.2.4,59.95480606735098,2025-06-06 14h00.57.307122 +0200,
7,0,7,,,,,,space,2.0370237000006455,None,None,3,1.813765599999897,None,None,0,0,0,0,,,,,1,0,1,0,,,,,7,0,7,0,651.6386680999994,,,,,,,,,,,,,,,,,,,,,,,,,,,,,,,,,,,,,,,,,,,,,,,,,,,,,,Spaghetti,2.5982,651.6233999999995,651.6240505999995,651.6241548999997,651.6386680999994,654.2384490999993,654.222718,654.2271626000002,654.2384490999993,654.2384490999993,654.2384490999993,654.2384490999993,656.2383540000001,656.2383540000001,656.2383540000001,656.2383540000001,656.2227753999996,3,1.813765599999897,None,None,,,,,,,,,,,,,,,,,,,,,4110,1,2025-06-06_14h00.43.501,sm,2024.2.4,59.95480606735098,2025-06-06 14h00.57.307122 +0200,
8,0,8,,,,,,space,2.0370237000006455,None,None,3,1.2041312999999718,0.15913980000004813,None,0,0,0,0,,,,,1,0,1,0,,,,,8,0,8,0,656.2383540000001,,,,,,,,,,,,,,,,,,,,,,,,,,,,,,,,,,,,,,,,,,,,,,,,,,,,,,Nase,3.0547,656.2232839999997,656.2238260999993,656.2239337999999,656.2383540000001,659.3049204999998,659.2891088999995,659.2926987000001,659.3049204999998,659.3049204999998,659.3049204999998,659.3049204999998,661.3047877999998,661.3047877999998,661.3047877999998,661.3047877999998,661.2893426,3,1.2041312999999718,0.15913980000004813,None,,,,,,,,,,,,,,,,,,,,,4110,1,2025-06-06_14h00.43.501,sm,2024.2.4,59.95480606735098,2025-06-06 14h00.57.307122 +0200,
9,0,9,,,,,,space,2.0370237000006455,None,None,2,1.0937361999995119,0.14917779999996128,None,0,0,0,0,,,,,1,0,1,0,,,,,9,0,9,0,661.3047877999998,,,,,,,,,,,,,,,,,,,,,,,,,,,,,,,,,,,,,,,,,,,,,,,,,,,,,,Gespräch,3.1264,661.2898472999996,661.2905991999996,661.2907021999999,661.3047877999998,664.4377588999996,664.4221251999998,664.4259407999998,664.4377588999996,664.4377588999996,664.4377588999996,664.4377588999996,666.4378016000001,666.4378016000001,666.4378016000001,666.4378016000001,666.4221170000001,2,1.0937361999995119,0.14917779999996128,None,,,,,,,,,,,,,,,,,,,,,4110,1,2025-06-06_14h00.43.501,sm,2024.2.4,59.95480606735098,2025-06-06 14h00.57.307122 +0200,
10,0,10,,,,,,space,2.0370237000006455,None,None,3,1.0316210000000865,0.18511059999946156,None,0,0,0,0,,,,,1,0,1,0,,,,,10,0,10,0,666.4378016000001,,,,,,,,,,,,,,,,,,,,,,,,,,,,,,,,,,,,,,,,,,,,,,,,,,,,,,Schlamm,4.3756,666.4226220999999,666.4231258,666.4232323999995,666.4378016000001,670.8207216000001,670.8052834999999,670.8090057999998,670.8207216000001,670.8207216000001,670.8207216000001,670.8207216000001,672.8205831999994,672.8205831999994,672.8205831999994,672.8205831999994,672.8052492999996,3,1.0316210000000865,0.18511059999946156,None,,,,,,,,,,,,,,,,,,,,,4110,1,2025-06-06_14h00.43.501,sm,2024.2.4,59.95480606735098,2025-06-06 14h00.57.307122 +0200,
11,0,11,,,,,,space,2.0370237000006455,None,None,3,0.8479021000002831,0.20114860000012413,None,0,0,0,0,,,,,1,0,1,0,,,,,11,0,11,0,672.8205831999994,,,,,,,,,,,,,,,,,,,,,,,,,,,,,,,,,,,,,,,,,,,,,,,,,,,,,,Sicherheit,2.9645,672.8057508000002,672.8063351000001,672.8064399999994,672.8205831999994,675.7873390999994,675.7713107,675.7758506999999,675.7873390999994,675.7873390999994,675.7873390999994,675.7873390999994,677.7872458000002,677.7872458000002,677.7872458000002,677.7872458000002,677.7715029000001,3,0.8479021000002831,0.20114860000012413,None,,,,,,,,,,,,,,,,,,,,,4110,1,2025-06-06_14h00.43.501,sm,2024.2.4,59.95480606735098,2025-06-06 14h00.57.307122 +0200,
12,0,12,,,,,,space,2.0370237000006455,None,None,None,,,None,0,0,0,0,,,,,1,0,1,0,,,,,12,0,12,0,677.7872458000002,,,,,,,,,,,,,,,,,,,,,,,,,,,,,,,,,,,,,,,,,,,,,,,,,,,,,,Herbst,2.0589,677.7719769999994,677.7724478,677.7725439999995,677.7872458000002,679.8535390999996,679.8381816000001,679.8419132999998,679.8535390999996,679.8535390999996,679.8535390999996,679.8535390999996,681.8536098999994,681.8536098999994,681.8536098999994,681.8536098999994,681.8377912999995,None,,,None,,,,,,,,,,,,,,,,,,,,,4110,1,2025-06-06_14h00.43.501,sm,2024.2.4,59.95480606735098,2025-06-06 14h00.57.307122 +0200,
13,0,13,,,,,,space,2.0370237000006455,None,None,3,1.4098025000002963,0.16015089999928023,None,0,0,0,0,,,,,1,0,1,0,,,,,13,0,13,0,681.8536098999994,,,,,,,,,,,,,,,,,,,,,,,,,,,,,,,,,,,,,,,,,,,,,,,,,,,,,,Feld,2.8901,681.8382640999998,681.8387668999994,681.8388710999998,681.8536098999994,684.7532747999994,684.7376545999996,684.7413514999998,684.7532747999994,684.7532747999994,684.7532747999994,684.7532747999994,686.7532202000002,686.7532202000002,686.7532202000002,686.7532202000002,686.7374792999999,3,1.4098025000002963,0.16015089999928023,None,,,,,,,,,,,,,,,,,,,,,4110,1,2025-06-06_14h00.43.501,sm,2024.2.4,59.95480606735098,2025-06-06 14h00.57.307122 +0200,
14,0,14,,,,,,space,2.0370237000006455,None,None,3,1.0770244000004823,0.17513469999994413,None,0,0,0,0,,,,,1,0,1,0,,,,,14,0,14,0,686.7532202000002,,,,,,,,,,,,,,,,,,,,,,,,,,,,,,,,,,,,,,,,,,,,,,,,,,,,,,Fernseher,2.4521,686.7379229999997,686.7383937999994,686.7384898,686.7532202000002,689.2197458,689.2040057999993,689.2079898000002,689.2197458,689.2197458,689.2197458,689.2197458,691.2198011,691.2198011,691.2198011,691.2198011,691.2040814000002,3,1.0770244000004823,0.17513469999994413,None,,,,,,,,,,,,,,,,,,,,,4110,1,2025-06-06_14h00.43.501,sm,2024.2.4,59.95480606735098,2025-06-06 14h00.57.307122 +0200,
15,0,15,,,,,,space,2.0370237000006455,None,None,2,1.427946100000554,0.1366731999996773,None,0,0,0,0,,,,,1,0,1,0,,,,,15,0,15,0,691.2198011,,,,,,,,,,,,,,,,,,,,,,,,,,,,,,,,,,,,,,,,,,,,,,,,,,,,,,Komödie,2.83,691.2045883999999,691.2050976999999,691.2052020000001,691.2198011,694.0532010999996,694.0372391999999,694.0415088,694.0532010999996,694.0532010999996,694.0532010999996,694.0532010999996,696.0526333999996,696.0526333999996,696.0526333999996,696.0526333999996,696.0372391000001,2,1.427946100000554,0.1366731999996773,None,,,,,,,,,,,,,,,,,,,,,4110,1,2025-06-06_14h00.43.501,sm,2024.2.4,59.95480606735098,2025-06-06 14h00.57.307122 +0200,
16,0,16,,,,,,space,2.0370237000006455,None,None,3,1.4756060999998226,0.22410519999993994,None,0,0,0,0,,,,,1,0,1,0,,,,,16,0,16,0,696.0526333999996,,,,,,,,,,,,,,,,,,,,,,,,,,,,,,,,,,,,,,,,,,,,,,,,,,,,,,Popcorn,3.6297,696.0377424999997,696.0383929999998,696.0384967999998,696.0526333999996,699.6857491000001,699.6702269999996,699.6747047999997,699.6857491000001,699.6857491000001,699.6857491000001,699.6857491000001,,,,,701.6712670999996,3,1.4756060999998226,0.22410519999993994,None,,,,,,,,,,,,,,,,,,,,,4110,1,2025-06-06_14h00.43.501,sm,2024.2.4,59.95480606735098,2025-06-06 14h00.57.307122 +0200,
17,0,17,,,,,,space,2.0370237000006455,None,None,3,0.6311267999999473,0.17194730000028358,None,0,0,0,0,,,,,1,0,1,0,,,,,17,0,17,0,701.6856417999998,,,,,,,,,,,,,,,,,,,,,,,,,,,,,,,,,,,,,,,,,,,,,,,,,,,,,,Klinge,2.0031,701.6717131999994,701.6725197999995,701.6726165999999,701.6856417999998,703.7021999999997,703.6868402,703.6918398999996,703.7021999999997,703.7021999999997,703.7021999999997,703.7021999999997,705.7024563999994,705.7024563999994,705.7024563999994,705.7024563999994,705.6866897,3,0.6311267999999473,0.17194730000028358,None,,,,,,,,,,,,,,,,,,,,,4110,1,2025-06-06_14h00.43.501,sm,2024.2.4,59.95480606735098,2025-06-06 14h00.57.307122 +0200,
18,0,18,,,,,,space,2.0370237000006455,None,None,3,1.1880379000003813,0.23478929999964748,None,0,0,0,0,,,,,1,0,1,0,,,,,18,0,18,0,705.7024563999994,,,,,,,,,,,,,,,,,,,,,,,,,,,,,,,,,,,,,,,,,,,,,,,,,,,,,,Kapitel,2.1961,705.6871976000002,705.6877047999997,705.6878079999997,705.7024563999994,707.9025019000001,707.8862373000002,707.8896956999997,707.9025019000001,707.9025019000001,707.9025019000001,707.9025019000001,709.9018620999996,709.9018620999996,709.9018620999996,709.9018620999996,709.8865753999999,3,1.1880379000003813,0.23478929999964748,None,,,,,,,,,,,,,,,,,,,,,4110,1,2025-06-06_14h00.43.501,sm,2024.2.4,59.95480606735098,2025-06-06 14h00.57.307122 +0200,
19,0,19,,,,,,space,2.0370237000006455,None,None,3,0.7719238999998197,0.29263059999993857,None,0,0,0,0,,,,,1,0,1,0,,,,,19,0,19,0,709.9018620999996,,,,,,,,,,,,,,,,,,,,,,,,,,,,,,,,,,,,,,,,,,,,,,,,,,,,,,Kappe,4.3424,709.8871208999999,709.8876412999998,709.8877517000001,709.9018620999996,714.2515477999996,714.2359649999999,714.2396912999993,714.2515477999996,714.2515477999996,714.2515477999996,714.2515477999996,716.2516453999997,716.2516453999997,716.2516453999997,716.2516453999997,716.2362032999999,3,0.7719238999998197,0.29263059999993857,None,,,,,,,,,,,,,,,,,,,,,4110,1,2025-06-06_14h00.43.501,sm,2024.2.4,59.95480606735098,2025-06-06 14h00.57.307122 +0200,
20,0,20,,,,,,space,2.0370237000006455,None,None,3,1.5912412000006952,0.1949410999995962,None,0,0,0,0,,,,,1,0,1,0,,,,,20,0,20,0,716.2516453999997,,,,,,,,,,,,,,,,,,,,,,,,,,,,,,,,,,,,,,,,,,,,,,,,,,,,,,Bürste,2.4137,716.2367088999999,716.2372596999994,716.2373627999996,716.2516453999997,718.6680473999995,718.6525342999994,718.6563921999996,718.6680473999995,718.6680473999995,718.6680473999995,718.6680473999995,720.6680295999995,720.6680295999995,720.6680295999995,720.6680295999995,720.6524353999994,3,1.5912412000006952,0.1949410999995962,None,,,,,,,,,,,,,,,,,,,,,4110,1,2025-06-06_14h00.43.501,sm,2024.2.4,59.95480606735098,2025-06-06 14h00.57.307122 +0200,
21,0,21,,,,,,space,2.0370237000006455,None,None,3,0.817457099999956,0.21733020000010583,None,0,0,0,0,,,,,1,0,1,0,,,,,21,0,21,0,720.6680295999995,,,,,,,,,,,,,,,,,,,,,,,,,,,,,,,,,,,,,,,,,,,,,,,,,,,,,,Kamera,4.4429,720.6529371999995,720.6534428999994,720.6535475000001,720.6680295999995,725.1177443999995,725.1021429000002,725.1061705000002,725.1177443999995,725.1177443999995,725.1177443999995,725.1177443999995,727.1179822999993,727.1179822999993,727.1179822999993,727.1179822999993,727.1022569999996,3,0.817457099999956,0.21733020000010583,None,,,,,,,,,,,,,,,,,,,,,4110,1,2025-06-06_14h00.43.501,sm,2024.2.4,59.95480606735098,2025-06-06 14h00.57.307122 +0200,
22,0,22,,,,,,space,2.0370237000006455,None,None,3,1.343098800000007,0.22135419999995065,None,0,0,0,0,,,,,1,0,1,0,,,,,22,0,22,0,727.1179822999993,,,,,,,,,,,,,,,,,,,,,,,,,,,,,,,,,,,,,,,,,,,,,,,,,,,,,,Datei,2.8516,727.1027591000002,727.1032563999997,727.1033582,727.1179822999993,729.9841569999999,729.9690369,729.9729846,729.9841569999999,729.9841569999999,729.9841569999999,729.9841569999999,731.9843905999996,731.9843905999996,731.9843905999996,731.9843905999996,731.9686709999996,3,1.343098800000007,0.22135419999995065,None,,,,,,,,,,,,,,,,,,,,,4110,1,2025-06-06_14h00.43.501,sm,2024.2.4,59.95480606735098,2025-06-06 14h00.57.307122 +0200,
23,0,23,,,,,,space,2.0370237000006455,None,None,2,0.9061118999998143,0.17853050000030635,None,0,0,0,0,,,,,1,0,1,0,,,,,23,0,23,0,731.9843905999996,,,,,,,,,,,,,,,,,,,,,,,,,,,,,,,,,,,,,,,,,,,,,,,,,,,,,,Hase,2.1831,731.9691790999996,731.9696849000002,731.9697866999995,731.9843905999996,734.1671526,734.1516854000001,734.1550559999996,734.1671526,734.1671526,734.1671526,734.1671526,736.1671873999994,736.1671873999994,736.1671873999994,736.1671873999994,736.1515067999999,2,0.9061118999998143,0.17853050000030635,None,,,,,,,,,,,,,,,,,,,,,4110,1,2025-06-06_14h00.43.501,sm,2024.2.4,59.95480606735098,2025-06-06 14h00.57.307122 +0200,
24,0,24,,,,,,space,2.0370237000006455,None,None,2,1.4516229999999268,0.15558390000023792,None,0,0,0,0,,,,,1,0,1,0,,,,,24,0,24,0,736.1671873999994,,,,,,,,,,,,,,,,,,,,,,,,,,,,,,,,,,,,,,,,,,,,,,,,,,,,,,Schule,2.0946,736.1520142999998,736.1525215000001,736.1526250999996,736.1671873999994,738.2670733999994,738.2513177999999,738.2573106999998,738.2670733999994,738.2670733999994,738.2670733999994,738.2670733999994,740.2670321999994,740.2670321999994,740.2670321999994,740.2670321999994,740.2516113000001,2,1.4516229999999268,0.15558390000023792,None,,,,,,,,,,,,,,,,,,,,,4110,1,2025-06-06_14h00.43.501,sm,2024.2.4,59.95480606735098,2025-06-06 14h00.57.307122 +0200,
25,0,25,,,,,,space,2.0370237000006455,None,None,3,1.3486114000006637,0.24475649999931193,None,0,0,0,0,,,,,1,0,1,0,,,,,25,0,25,0,740.2670321999994,,,,,,,,,,,,,,,,,,,,,,,,,,,,,,,,,,,,,,,,,,,,,,,,,,,,,,Essen,2.6097,740.2521096,740.2527610999996,740.2528630999996,740.2670321999994,742.8834204999994,742.8677012999997,742.8714223999996,742.8834204999994,742.8834204999994,742.8834204999994,742.8834204999994,744.8834602999996,744.8834602999996,744.8834602999996,744.8834602999996,744.8678713999998,3,1.3486114000006637,0.24475649999931193,None,,,,,,,,,,,,,,,,,,,,,4110,1,2025-06-06_14h00.43.501,sm,2024.2.4,59.95480606735098,2025-06-06 14h00.57.307122 +0200,
26,0,26,,,,,,space,2.0370237000006455,None,None,3,1.1517460000004576,0.27847839999958524,None,0,0,0,0,,,,,1,0,1,0,,,,,26,0,26,0,744.8834602999996,,,,,,,,,,,,,,,,,,,,,,,,,,,,,,,,,,,,,,,,,,,,,,,,,,,,,,Gras,3.6723,744.8683756,744.8690201,744.8691233,744.8834602999996,748.5664411999996,748.5509001999999,748.5546284000002,748.5664411999996,748.5664411999996,748.5664411999996,748.5664411999996,750.5666713999999,750.5666713999999,750.5666713999999,750.5666713999999,750.5513543999996,3,1.1517460000004576,0.27847839999958524,None,,,,,,,,,,,,,,,,,,,,,4110,1,2025-06-06_14h00.43.501,sm,2024.2.4,59.95480606735098,2025-06-06 14h00.57.307122 +0200,
27,0,27,,,,,,space,2.0370237000006455,None,None,3,1.4889141000003292,0.21146809999936522,None,0,0,0,0,,,,,1,0,1,0,,,,,27,0,27,0,750.5666713999999,,,,,,,,,,,,,,,,,,,,,,,,,,,,,,,,,,,,,,,,,,,,,,,,,,,,,,Präsident,4.4767,750.5518566000001,750.5525072,750.5526077999994,750.5666713999999,755.0493147999996,755.0339968999997,755.0387880999997,755.0493147999996,755.0493147999996,755.0493147999996,755.0493147999996,757.0494015999993,757.0494015999993,757.0494015999993,757.0494015999993,757.0338867999999,3,1.4889141000003292,0.21146809999936522,None,,,,,,,,,,,,,,,,,,,,,4110,1,2025-06-06_14h00.43.501,sm,2024.2.4,59.95480606735098,2025-06-06 14h00.57.307122 +0200,
28,0,28,,,,,,space,2.0370237000006455,None,None,3,1.3455982000004951,0.22698839999975462,None,0,0,0,0,,,,,1,0,1,0,,,,,28,0,28,0,757.0494015999993,,,,,,,,,,,,,,,,,,,,,,,,,,,,,,,,,,,,,,,,,,,,,,,,,,,,,,Keller,2.0842,757.0343981999995,757.0349102999999,757.0350121000001,757.0494015999993,759.1489299999994,759.1332776999998,759.1368238999994,759.1489299999994,759.1489299999994,759.1489299999994,759.1489299999994,761.1490752,761.1490752,761.1490752,761.1490752,761.1335478999999,3,1.3455982000004951,0.22698839999975462,None,,,,,,,,,,,,,,,,,,,,,4110,1,2025-06-06_14h00.43.501,sm,2024.2.4,59.95480606735098,2025-06-06 14h00.57.307122 +0200,
29,0,29,,,,,,space,2.0370237000006455,None,None,2,0.8985981000005268,0.13964359999954468,None,0,0,0,0,,,,,1,0,1,0,,,,,29,0,29,0,761.1490752,,,,,,,,,,,,,,,,,,,,,,,,,,,,,,,,,,,,,,,,,,,,,,,,,,,,,,Party,2.9443,761.1340584999998,761.1345585999998,761.1346598999999,761.1490752,764.0989112999996,764.0832734999994,764.0902455999994,764.0989112999996,764.0989112999996,764.0989112999996,764.0989112999996,766.0988529999995,766.0988529999995,766.0988529999995,766.0988529999995,766.0836211999995,2,0.8985981000005268,0.13964359999954468,None,,,,,,,,,,,,,,,,,,,,,4110,1,2025-06-06_14h00.43.501,sm,2024.2.4,59.95480606735098,2025-06-06 14h00.57.307122 +0200,
30,0,30,,,,,,space,2.0370237000006455,None,None,3,1.3400025999999343,0.17951470000025438,None,0,0,0,0,,,,,1,0,1,0,,,,,30,0,30,0,766.0988529999995,,,,,,,,,,,,,,,,,,,,,,,,,,,,,,,,,,,,,,,,,,,,,,,,,,,,,,Ringe,2.2639,766.0841319000001,766.0846470999995,766.0847508999996,766.0988529999995,768.3652529000001,768.3497566999995,768.3548111,768.3652529000001,768.3652529000001,768.3652529000001,768.3652529000001,770.3655547999997,770.3655547999997,770.3655547999997,770.3655547999997,770.3501817999995,3,1.3400025999999343,0.17951470000025438,None,,,,,,,,,,,,,,,,,,,,,4110,1,2025-06-06_14h00.43.501,sm,2024.2.4,59.95480606735098,2025-06-06 14h00.57.307122 +0200,
31,0,31,,,,,,space,2.0370237000006455,None,None,2,1.3701316000006045,0.12669019999975717,None,0,0,0,0,,,,,1,0,1,0,,,,,31,0,31,0,770.3655547999997,,,,,,,,,,,,,,,,,,,,,,,,,,,,,,,,,,,,,,,,,,,,,,,,,,,,,,Autorin,2.4916,770.3506842999996,770.3513235999999,770.3514273000001,770.3655547999997,772.8654449999995,772.8493778000002,772.8527368999994,772.8654449999995,772.8654449999995,772.8654449999995,772.8654449999995,774.8650526000001,774.8650526000001,774.8650526000001,774.8650526000001,774.8495874,2,1.3701316000006045,0.12669019999975717,None,,,,,,,,,,,,,,,,,,,,,4110,1,2025-06-06_14h00.43.501,sm,2024.2.4,59.95480606735098,2025-06-06 14h00.57.307122 +0200,
32,0,32,,,,,,space,2.0370237000006455,None,None,3,1.488313200000448,0.24391599999944447,None,0,0,0,0,,,,,1,0,1,0,,,,,32,0,32,0,774.8650526000001,,,,,,,,,,,,,,,,,,,,,,,,,,,,,,,,,,,,,,,,,,,,,,,,,,,,,,Dusche,5.1698,774.8500884999994,774.8507367000002,774.8508391999994,774.8650526000001,780.0480437999995,780.0324853000002,780.0367147999996,780.0480437999995,780.0480437999995,780.0480437999995,780.0480437999995,782.0482028999995,782.0482028999995,782.0482028999995,782.0482028999995,782.0324808999994,3,1.488313200000448,0.24391599999944447,None,,,,,,,,,,,,,,,,,,,,,4110,1,2025-06-06_14h00.43.501,sm,2024.2.4,59.95480606735098,2025-06-06 14h00.57.307122 +0200,
33,0,33,,,,,,space,2.0370237000006455,None,None,3,0.9656568999998854,0.1894999000005555,None,0,0,0,0,,,,,1,0,1,0,,,,,33,0,33,0,782.0482028999995,,,,,,,,,,,,,,,,,,,,,,,,,,,,,,,,,,,,,,,,,,,,,,,,,,,,,,Maske,2.1186,782.0329758999997,782.0335282999995,782.0336348000001,782.0482028999995,784.1811311000001,784.1655808999994,784.1698886999993,784.1811311000001,784.1811311000001,784.1811311000001,784.1811311000001,786.1811459999999,786.1811459999999,786.1811459999999,786.1811459999999,786.1653681999996,3,0.9656568999998854,0.1894999000005555,None,,,,,,,,,,,,,,,,,,,,,4110,1,2025-06-06_14h00.43.501,sm,2024.2.4,59.95480606735098,2025-06-06 14h00.57.307122 +0200,
34,0,34,,,,,,space,2.0370237000006455,None,None,3,1.166741899999579,0.24834559999999328,None,0,0,0,0,,,,,1,0,1,0,,,,,34,0,34,0,786.1811459999999,,,,,,,,,,,,,,,,,,,,,,,,,,,,,,,,,,,,,,,,,,,,,,,,,,,,,,Arm,2.1413,786.1658784000001,786.1665247000001,786.1666301999994,786.1811459999999,788.3308620999996,788.3149242999998,788.3180384999996,788.3308620999996,788.3308620999996,788.3308620999996,788.3308620999996,790.3308874999993,790.3308874999993,790.3308874999993,790.3308874999993,790.3154666999999,3,1.166741899999579,0.24834559999999328,None,,,,,,,,,,,,,,,,,,,,,4110,1,2025-06-06_14h00.43.501,sm,2024.2.4,59.95480606735098,2025-06-06 14h00.57.307122 +0200,
35,0,35,,,,,,space,2.0370237000006455,None,None,3,1.8908807000007073,None,None,0,0,0,0,,,,,1,0,1,0,,,,,35,0,35,0,790.3308874999993,,,,,,,,,,,,,,,,,,,,,,,,,,,,,,,,,,,,,,,,,,,,,,,,,,,,,,Raum,5.3463,790.3159679999999,790.3165321999995,790.3166388999998,790.3308874999993,795.6804468,795.6649381999996,795.6685510999996,795.6804468,795.6804468,795.6804468,795.6804468,797.6803964999999,797.6803964999999,797.6803964999999,797.6803964999999,797.6648501999998,3,1.8908807000007073,None,None,,,,,,,,,,,,,,,,,,,,,4110,1,2025-06-06_14h00.43.501,sm,2024.2.4,59.95480606735098,2025-06-06 14h00.57.307122 +0200,
36,0,36,,,,,,space,2.0370237000006455,None,None,3,1.2251376999993226,0.23135720000027504,None,0,0,0,0,,,,,1,0,1,0,,,,,36,0,36,0,797.6803964999999,,,,,,,,,,,,,,,,,,,,,,,,,,,,,,,,,,,,,,,,,,,,,,,,,,,,,,Geschwister,2.3861,797.6653528999996,797.6660262999994,797.6661316,797.6803964999999,800.0801191,800.0645252999993,800.0686113000002,800.0801191,800.0801191,800.0801191,800.0801191,802.0801591,802.0801591,802.0801591,802.0801591,802.0649195999995,3,1.2251376999993226,0.23135720000027504,None,,,,,,,,,,,,,,,,,,,,,4110,1,2025-06-06_14h00.43.501,sm,2024.2.4,59.95480606735098,2025-06-06 14h00.57.307122 +0200,
37,0,37,,,,,,space,2.0370237000006455,None,None,None,,,None,0,0,0,0,,,,,1,0,1,0,,,,,37,0,37,0,802.0801591,,,,,,,,,,,,,,,,,,,,,,,,,,,,,,,,,,,,,,,,,,,,,,,,,,,,,,Schaf,2.5519,802.0654198000002,802.0659829999995,802.0660876000002,802.0801591,804.6463834999995,804.6309787999999,804.6351158999996,804.6463834999995,804.6463834999995,804.6463834999995,804.6463834999995,806.6466068,806.6466068,806.6466068,806.6466068,806.6309996999998,None,,,None,,,,,,,,,,,,,,,,,,,,,4110,1,2025-06-06_14h00.43.501,sm,2024.2.4,59.95480606735098,2025-06-06 14h00.57.307122 +0200,
38,0,38,,,,,,space,2.0370237000006455,None,None,3,1.6607813000000533,0.1741543999996793,None,0,0,0,0,,,,,1,0,1,0,,,,,38,0,38,0,806.6466068,,,,,,,,,,,,,,,,,,,,,,,,,,,,,,,,,,,,,,,,,,,,,,,,,,,,,,Fuß,3.2825,806.6314703999997,806.6320375999994,806.6321405999997,806.6466068,809.9296777,809.9142136,809.9178215000002,809.9296777,809.9296777,809.9296777,809.9296777,811.9297454999996,811.9297454999996,811.9297454999996,811.9297454999996,811.9140867999995,3,1.6607813000000533,0.1741543999996793,None,,,,,,,,,,,,,,,,,,,,,4110,1,2025-06-06_14h00.43.501,sm,2024.2.4,59.95480606735098,2025-06-06 14h00.57.307122 +0200,
39,0,39,,,,,,space,2.0370237000006455,None,None,2,0.9039278999998714,0.15977490000022954,None,0,0,0,0,,,,,1,0,1,0,,,,,39,0,39,0,811.9297454999996,,,,,,,,,,,,,,,,,,,,,,,,,,,,,,,,,,,,,,,,,,,,,,,,,,,,,,Spinne,3.6438,811.9145877000001,811.9151695999999,811.9152723999996,811.9297454999996,815.5795143999994,815.5636956999997,815.5679236999995,815.5795143999994,815.5795143999994,815.5795143999994,815.5795143999994,817.5794330999997,817.5794330999997,817.5794330999997,817.5794330999997,817.5637478999997,2,0.9039278999998714,0.15977490000022954,None,,,,,,,,,,,,,,,,,,,,,4110,1,2025-06-06_14h00.43.501,sm,2024.2.4,59.95480606735098,2025-06-06 14h00.57.307122 +0200,
40,0,40,,,,,,space,2.0370237000006455,None,None,3,1.3929011000000173,0.180950799999664,None,0,0,0,0,,,,,1,0,1,0,,,,,40,0,40,0,817.5794330999997,,,,,,,,,,,,,,,,,,,,,,,,,,,,,,,,,,,,,,,,,,,,,,,,,,,,,,Tasche,3.0127,817.5642576,817.5647694999998,817.5648786000002,817.5794330999997,820.5957939,820.5801611999996,820.5841934999999,820.5957939,820.5957939,820.5957939,820.5957939,822.5956400999994,822.5956400999994,822.5956400999994,822.5956400999994,822.5801758999996,3,1.3929011000000173,0.180950799999664,None,,,,,,,,,,,,,,,,,,,,,4110,1,2025-06-06_14h00.43.501,sm,2024.2.4,59.95480606735098,2025-06-06 14h00.57.307122 +0200,
41,0,41,,,,,,space,2.0370237000006455,None,None,3,1.6566765999996278,0.19743210000069666,None,0,0,0,0,,,,,1,0,1,0,,,,,41,0,41,0,822.5956400999994,,,,,,,,,,,,,,,,,,,,,,,,,,,,,,,,,,,,,,,,,,,,,,,,,,,,,,Zähne,2.7992,822.5806831999998,822.5811859999994,822.5812903999995,822.5956400999994,825.3954029999995,825.3798044999994,825.3839687999998,825.3954029999995,825.3954029999995,825.3954029999995,825.3954029999995,827.3954070999998,827.3954070999998,827.3954070999998,827.3954070999998,827.3800646,3,1.6566765999996278,0.19743210000069666,None,,,,,,,,,,,,,,,,,,,,,4110,1,2025-06-06_14h00.43.501,sm,2024.2.4,59.95480606735098,2025-06-06 14h00.57.307122 +0200,
42,0,42,,,,,,space,2.0370237000006455,None,None,3,1.0984545999999682,0.21562160000030417,None,0,0,0,0,,,,,1,0,1,0,,,,,42,0,42,0,827.3954070999998,,,,,,,,,,,,,,,,,,,,,,,,,,,,,,,,,,,,,,,,,,,,,,,,,,,,,,Frieden,2.3419,827.3805642999996,827.3810794999999,827.3811830999994,827.3954070999998,829.7451074999999,829.7295614999994,829.7330662999993,829.7451074999999,829.7451074999999,829.7451074999999,829.7451074999999,831.7453375999994,831.7453375999994,831.7453375999994,831.7453375999994,831.7296510999995,3,1.0984545999999682,0.21562160000030417,None,,,,,,,,,,,,,,,,,,,,,4110,1,2025-06-06_14h00.43.501,sm,2024.2.4,59.95480606735098,2025-06-06 14h00.57.307122 +0200,
43,0,43,,,,,,space,2.0370237000006455,None,None,2,1.79747849999967,None,None,0,0,0,0,,,,,1,0,1,0,,,,,43,0,43,0,831.7453375999994,,,,,,,,,,,,,,,,,,,,,,,,,,,,,,,,,,,,,,,,,,,,,,,,,,,,,,Rose,2.4167,831.7301536999994,831.7307320999998,831.7308352,831.7453375999994,834.1613711,834.1459589999995,834.1492475999994,834.1613711,834.1613711,834.1613711,834.1613711,836.1616189999995,836.1616189999995,836.1616189999995,836.1616189999995,836.1464845,2,1.79747849999967,None,None,,,,,,,,,,,,,,,,,,,,,4110,1,2025-06-06_14h00.43.501,sm,2024.2.4,59.95480606735098,2025-06-06 14h00.57.307122 +0200,
44,0,44,,,,,,space,2.0370237000006455,None,None,3,0.9944820000000618,0.21379870000055234,None,0,0,0,0,,,,,1,0,1,0,,,,,44,0,44,0,836.1616189999995,,,,,,,,,,,,,,,,,,,,,,,,,,,,,,,,,,,,,,,,,,,,,,,,,,,,,,Diamant,4.5959,836.1469901999999,836.1475231999993,836.1476284,836.1616189999995,840.7612107999994,840.7458590999995,840.7506741999996,840.7612107999994,840.7612107999994,840.7612107999994,840.7612107999994,842.7615049999995,842.7615049999995,842.7615049999995,842.7615049999995,842.7455984999997,3,0.9944820000000618,0.21379870000055234,None,,,,,,,,,,,,,,,,,,,,,4110,1,2025-06-06_14h00.43.501,sm,2024.2.4,59.95480606735098,2025-06-06 14h00.57.307122 +0200,
45,0,45,,,,,,space,2.0370237000006455,None,None,None,,,None,0,0,0,0,,,,,1,0,1,0,,,,,45,0,45,0,842.7615049999995,,,,,,,,,,,,,,,,,,,,,,,,,,,,,,,,,,,,,,,,,,,,,,,,,,,,,,Golf,2.2074,842.7460697999995,842.7468574999994,842.7470314000002,842.7615049999995,844.9776277999999,844.9619586999997,844.9653264999997,844.9776277999999,844.9776277999999,844.9776277999999,844.9776277999999,846.9777580999998,846.9777580999998,846.9777580999998,846.9777580999998,846.9621958999996,None,,,None,,,,,,,,,,,,,,,,,,,,,4110,1,2025-06-06_14h00.43.501,sm,2024.2.4,59.95480606735098,2025-06-06 14h00.57.307122 +0200,
46,0,46,,,,,,space,2.0370237000006455,None,None,2,1.048544799999945,0.1722101000004841,None,0,0,0,0,,,,,1,0,1,0,,,,,46,0,46,0,846.9777580999998,,,,,,,,,,,,,,,,,,,,,,,,,,,,,,,,,,,,,,,,,,,,,,,,,,,,,,Safari,2.1697,846.9626644,846.9632340999997,846.9633389,846.9777580999998,849.1606065999995,849.1456022000002,849.1498028999995,849.1606065999995,849.1606065999995,849.1606065999995,849.1606065999995,851.1608047,851.1608047,851.1608047,851.1608047,851.1454512999999,2,1.048544799999945,0.1722101000004841,None,,,,,,,,,,,,,,,,,,,,,4110,1,2025-06-06_14h00.43.501,sm,2024.2.4,59.95480606735098,2025-06-06 14h00.57.307122 +0200,
47,0,47,,,,,,space,2.0370237000006455,None,None,3,1.1175069000000803,0.14108200000009674,None,0,0,0,0,,,,,1,0,1,0,,,,,47,0,47,0,851.1608047,,,,,,,,,,,,,,,,,,,,,,,,,,,,,,,,,,,,,,,,,,,,,,,,,,,,,,Nebel,2.5169,851.1459588999996,851.1464667999999,851.1465687,851.1608047,853.6769619999995,853.6615566999999,853.6650376999996,853.6769619999995,853.6769619999995,853.6769619999995,853.6769619999995,855.6772179,855.6772179,855.6772179,855.6772179,855.6613976999997,3,1.1175069000000803,0.14108200000009674,None,,,,,,,,,,,,,,,,,,,,,4110,1,2025-06-06_14h00.43.501,sm,2024.2.4,59.95480606735098,2025-06-06 14h00.57.307122 +0200,
48,0,48,,,,,,space,2.0370237000006455,None,None,3,0.8326217000003453,0.23185499999999593,None,0,0,0,0,,,,,1,0,1,0,,,,,48,0,48,0,855.6772179,,,,,,,,,,,,,,,,,,,,,,,,,,,,,,,,,,,,,,,,,,,,,,,,,,,,,,Zapfen,2.3599,855.6618731999997,855.6623663,855.6624612999994,855.6772179,858.0433453999995,858.0280896999993,858.0315927000001,858.0433453999995,858.0433453999995,858.0433453999995,858.0433453999995,860.0436915,860.0436915,860.0436915,860.0436915,860.0278546,3,0.8326217000003453,0.23185499999999593,None,,,,,,,,,,,,,,,,,,,,,4110,1,2025-06-06_14h00.43.501,sm,2024.2.4,59.95480606735098,2025-06-06 14h00.57.307122 +0200,
49,0,49,,,,,,space,2.0370237000006455,None,None,3,1.4976370000003953,0.18963369999983115,None,0,0,0,0,,,,,1,0,1,0,,,,,49,0,49,0,860.0436915,,,,,,,,,,,,,,,,,,,,,,,,,,,,,,,,,,,,,,,,,,,,,,,,,,,,,,Saft,2.9109,860.0283626,860.0290101999999,860.0291115999999,860.0436915,862.9599951,862.9442718999999,862.9474591999997,862.9599951,862.9599951,862.9599951,862.9599951,864.9599945,864.9599945,864.9599945,864.9599945,864.9442881999994,3,1.4976370000003953,0.18963369999983115,None,,,,,,,,,,,,,,,,,,,,,4110,1,2025-06-06_14h00.43.501,sm,2024.2.4,59.95480606735098,2025-06-06 14h00.57.307122 +0200,
50,0,50,,,,,,space,2.0370237000006455,None,None,3,0.8472286999995049,0.16556209999998828,None,0,0,0,0,,,,,1,0,1,0,,,,,50,0,50,0,864.9599945,,,,,,,,,,,,,,,,,,,,,,,,,,,,,,,,,,,,,,,,,,,,,,,,,,,,,,Tal,2.9061,864.9447903999999,864.9452841000002,864.9453881,864.9599945,867.8762361999998,867.8606937999994,867.863985,867.8762361999998,867.8762361999998,867.8762361999998,867.8762361999998,869.8763591999996,869.8763591999996,869.8763591999996,869.8763591999996,869.8607188999995,3,0.8472286999995049,0.16556209999998828,None,,,,,,,,,,,,,,,,,,,,,4110,1,2025-06-06_14h00.43.501,sm,2024.2.4,59.95480606735098,2025-06-06 14h00.57.307122 +0200,
51,0,51,,,,,,space,2.0370237000006455,None,None,2,1.6741975000004459,0.27261559999988094,None,0,0,0,0,,,,,1,0,1,0,,,,,51,0,51,0,869.8763591999996,,,,,,,,,,,,,,,,,,,,,,,,,,,,,,,,,,,,,,,,,,,,,,,,,,,,,,Spion,2.6446,869.8611987999993,869.8618373999998,869.8619398999999,869.8763591999996,872.5262297999998,872.5103203999997,872.5145945999993,872.5262297999998,872.5262297999998,872.5262297999998,872.5262297999998,874.5261950999993,874.5261950999993,874.5261950999993,874.5261950999993,874.5106629000002,2,1.6741975000004459,0.27261559999988094,None,,,,,,,,,,,,,,,,,,,,,4110,1,2025-06-06_14h00.43.501,sm,2024.2.4,59.95480606735098,2025-06-06 14h00.57.307122 +0200,
52,0,52,,,,,,space,2.0370237000006455,None,None,3,1.3320056000002296,0.23724959999981365,None,0,0,0,0,,,,,1,0,1,0,,,,,52,0,52,0,874.5261950999993,,,,,,,,,,,,,,,,,,,,,,,,,,,,,,,,,,,,,,,,,,,,,,,,,,,,,,Weihnachten,2.0168,874.5111743999996,874.5116753000002,874.511778,874.5261950999993,876.5426656,876.5272401000002,876.5316262999995,876.5426656,876.5426656,876.5426656,876.5426656,878.5424771999997,878.5424771999997,878.5424771999997,878.5424771999997,878.5272023999996,3,1.3320056000002296,0.23724959999981365,None,,,,,,,,,,,,,,,,,,,,,4110,1,2025-06-06_14h00.43.501,sm,2024.2.4,59.95480606735098,2025-06-06 14h00.57.307122 +0200,
53,0,53,,,,,,space,2.0370237000006455,None,None,None,,,None,0,0,0,0,,,,,1,0,1,0,,,,,53,0,53,0,878.5424771999997,,,,,,,,,,,,,,,,,,,,,,,,,,,,,,,,,,,,,,,,,,,,,,,,,,,,,,Kälte,2.9036,878.5277098999995,878.5282388999995,878.5283421999993,878.5424771999997,881.4590715999993,881.4433811999997,881.4475495999995,881.4590715999993,881.4590715999993,881.4590715999993,881.4590715999993,883.4592561999998,883.4592561999998,883.4592561999998,883.4592561999998,883.4434580999996,None,,,None,,,,,,,,,,,,,,,,,,,,,4110,1,2025-06-06_14h00.43.501,sm,2024.2.4,59.95480606735098,2025-06-06 14h00.57.307122 +0200,
54,0,54,,,,,,space,2.0370237000006455,None,None,3,1.4571349999996528,0.27648990000034246,None,0,0,0,0,,,,,1,0,1,0,,,,,54,0,54,0,883.4592561999998,,,,,,,,,,,,,,,,,,,,,,,,,,,,,,,,,,,,,,,,,,,,,,,,,,,,,,Marmor,5.3655,883.4439299999995,883.4444392999994,883.4445439000001,883.4592561999998,888.8253287999996,888.8097215999996,888.8138364999995,888.8253287999996,888.8253287999996,888.8253287999996,888.8253287999996,890.8254700999996,890.8254700999996,890.8254700999996,890.8254700999996,890.8095979,3,1.4571349999996528,0.27648990000034246,None,,,,,,,,,,,,,,,,,,,,,4110,1,2025-06-06_14h00.43.501,sm,2024.2.4,59.95480606735098,2025-06-06 14h00.57.307122 +0200,
55,0,55,,,,,,space,2.0370237000006455,None,None,3,1.4431500000000597,0.2516899000002013,None,0,0,0,0,,,,,1,0,1,0,,,,,55,0,55,0,890.8254700999996,,,,,,,,,,,,,,,,,,,,,,,,,,,,,,,,,,,,,,,,,,,,,,,,,,,,,,Rolle,2.1743,890.8101090999999,890.8108124999999,890.8109227999994,890.8254700999996,893.0083911000002,892.9927060999999,892.9967550000001,893.0083911000002,893.0083911000002,893.0083911000002,893.0083911000002,895.0083826999999,895.0083826999999,895.0083826999999,895.0083826999999,894.9928013999997,3,1.4431500000000597,0.2516899000002013,None,,,,,,,,,,,,,,,,,,,,,4110,1,2025-06-06_14h00.43.501,sm,2024.2.4,59.95480606735098,2025-06-06 14h00.57.307122 +0200,
56,0,56,,,,,,space,2.0370237000006455,None,None,3,1.220726000000468,0.211410199999591,None,0,0,0,0,,,,,1,0,1,0,,,,,56,0,56,0,895.0083826999999,,,,,,,,,,,,,,,,,,,,,,,,,,,,,,,,,,,,,,,,,,,,,,,,,,,,,,Wissen,3.8592,894.9933016999994,894.9939158999996,894.9940867999994,895.0083826999999,898.8745609999996,898.8588819999995,898.8622867999993,898.8745609999996,898.8745609999996,898.8745609999996,898.8745609999996,900.8747751000001,900.8747751000001,900.8747751000001,900.8747751000001,900.8590663999994,3,1.220726000000468,0.211410199999591,None,,,,,,,,,,,,,,,,,,,,,4110,1,2025-06-06_14h00.43.501,sm,2024.2.4,59.95480606735098,2025-06-06 14h00.57.307122 +0200,
57,0,57,,,,,,space,2.0370237000006455,None,None,3,0.8357162000002063,0.2732568999999785,None,0,0,0,0,,,,,1,0,1,0,,,,,57,0,57,0,900.8747751000001,,,,,,,,,,,,,,,,,,,,,,,,,,,,,,,,,,,,,,,,,,,,,,,,,,,,,,Gemüse,2.0934,900.8595662999996,900.8603361999994,900.8604427,900.8747751000001,902.9744830999998,902.9593805999993,902.9634024999996,902.9744830999998,902.9744830999998,902.9744830999998,902.9744830999998,904.9744307000001,904.9744307000001,904.9744307000001,904.9744307000001,904.9588484999995,3,0.8357162000002063,0.2732568999999785,None,,,,,,,,,,,,,,,,,,,,,4110,1,2025-06-06_14h00.43.501,sm,2024.2.4,59.95480606735098,2025-06-06 14h00.57.307122 +0200,
58,0,58,,,,,,space,2.0370237000006455,None,None,2,1.2262409999993906,0.13081680000050255,None,0,0,0,0,,,,,1,0,1,0,,,,,58,0,58,0,904.9744307000001,,,,,,,,,,,,,,,,,,,,,,,,,,,,,,,,,,,,,,,,,,,,,,,,,,,,,,Geburtstag,4.0852,904.9593574,904.9598699999997,904.9599744999996,904.9744307000001,909.0739853999994,909.0586675999994,909.0640926999995,909.0739853999994,909.0739853999994,909.0739853999994,909.0739853999994,911.0740924000002,911.0740924000002,911.0740924000002,911.0740924000002,911.0584226000001,2,1.2262409999993906,0.13081680000050255,None,,,,,,,,,,,,,,,,,,,,,4110,1,2025-06-06_14h00.43.501,sm,2024.2.4,59.95480606735098,2025-06-06 14h00.57.307122 +0200,
59,0,59,,,,,,space,2.0370237000006455,None,None,3,0.9113248000003296,0.27867629999946075,None,0,0,0,0,,,,,1,0,1,0,,,,,59,0,59,0,911.0740924000002,,,,,,,,,,,,,,,,,,,,,,,,,,,,,,,,,,,,,,,,,,,,,,,,,,,,,,Scheidung,4.3942,911.0589341999994,911.0595408999998,911.0596480999993,911.0740924000002,915.4738379,915.4580859999996,915.4618848,915.4738379,915.4738379,915.4738379,915.4738379,917.4737132,917.4737132,917.4737132,917.4737132,917.4581397000002,3,0.9113248000003296,0.27867629999946075,None,,,,,,,,,,,,,,,,,,,,,4110,1,2025-06-06_14h00.43.501,sm,2024.2.4,59.95480606735098,2025-06-06 14h00.57.307122 +0200,
60,0,60,,,,,,space,2.0370237000006455,None,None,3,1.2976023000001078,0.28060569999979634,None,0,0,0,0,,,,,1,0,1,0,,,,,60,0,60,0,917.4737132,,,,,,,,,,,,,,,,,,,,,,,,,,,,,,,,,,,,,,,,,,,,,,,,,,,,,,Schlüssel,2.8863,917.4586476999993,917.4591659999996,917.4592697999997,917.4737132,920.3733942999997,920.3578473999996,920.3618670999995,920.3733942999997,920.3733942999997,920.3733942999997,920.3733942999997,922.37349,922.37349,922.37349,922.37349,922.3580443999999,3,1.2976023000001078,0.28060569999979634,None,,,,,,,,,,,,,,,,,,,,,4110,1,2025-06-06_14h00.43.501,sm,2024.2.4,59.95480606735098,2025-06-06 14h00.57.307122 +0200,
61,0,61,,,,,,space,2.0370237000006455,None,None,3,1.0215018999997483,0.23344650000035472,None,0,0,0,0,,,,,1,0,1,0,,,,,61,0,61,0,922.37349,,,,,,,,,,,,,,,,,,,,,,,,,,,,,,,,,,,,,,,,,,,,,,,,,,,,,,Ausbruch,4.7208,922.3585604999998,922.3591434999998,922.3592491999998,922.37349,927.1063354999997,927.0906188999998,927.0941935000001,927.1063354999997,927.1063354999997,927.1063354999997,927.1063354999997,929.1063657999994,929.1063657999994,929.1063657999994,929.1063657999994,929.0908604999995,3,1.0215018999997483,0.23344650000035472,None,,,,,,,,,,,,,,,,,,,,,4110,1,2025-06-06_14h00.43.501,sm,2024.2.4,59.95480606735098,2025-06-06 14h00.57.307122 +0200,
62,0,62,,,,,,space,2.0370237000006455,None,None,None,,,None,0,0,0,0,,,,,1,0,1,0,,,,,62,0,62,0,929.1063657999994,,,,,,,,,,,,,,,,,,,,,,,,,,,,,,,,,,,,,,,,,,,,,,,,,,,,,,Vampir,3.9589,929.0913591999997,929.0920074999995,929.0921097,929.1063657999994,933.0725763999999,933.0571252999998,933.0608456999998,933.0725763999999,933.0725763999999,933.0725763999999,933.0725763999999,935.0729191999999,935.0729191999999,935.0729191999999,935.0729191999999,935.0570836999996,None,,,None,,,,,,,,,,,,,,,,,,,,,4110,1,2025-06-06_14h00.43.501,sm,2024.2.4,59.95480606735098,2025-06-06 14h00.57.307122 +0200,
63,0,63,,,,,,space,2.0370237000006455,None,None,3,0.6436184000003777,0.16750729999967007,None,0,0,0,0,,,,,1,0,1,0,,,,,63,0,63,0,935.0729191999999,,,,,,,,,,,,,,,,,,,,,,,,,,,,,,,,,,,,,,,,,,,,,,,,,,,,,,Nacht,2.3006,935.0575628999995,935.0580665999996,935.0581714,935.0729191999999,937.3726742999997,937.3570863999994,937.3610620999998,937.3726742999997,937.3726742999997,937.3726742999997,937.3726742999997,939.3724243999995,939.3724243999995,939.3724243999995,939.3724243999995,939.3570722999993,3,0.6436184000003777,0.16750729999967007,None,,,,,,,,,,,,,,,,,,,,,4110,1,2025-06-06_14h00.43.501,sm,2024.2.4,59.95480606735098,2025-06-06 14h00.57.307122 +0200,
64,0,64,,,,,,space,2.0370237000006455,None,None,3,0.9400108999998338,0.168979500000205,None,0,0,0,0,,,,,1,0,1,0,,,,,64,0,64,0,939.3724243999995,,,,,,,,,,,,,,,,,,,,,,,,,,,,,,,,,,,,,,,,,,,,,,,,,,,,,,Zimmer,2.0052,939.3575553999999,939.3582140999997,939.3583107999993,939.3724243999995,941.3896748999996,941.3732093999997,941.3770218,941.3896748999996,941.3896748999996,941.3896748999996,941.3896748999996,943.3890302,943.3890302,943.3890302,943.3890302,943.3733996999999,3,0.9400108999998338,0.168979500000205,None,,,,,,,,,,,,,,,,,,,,,4110,1,2025-06-06_14h00.43.501,sm,2024.2.4,59.95480606735098,2025-06-06 14h00.57.307122 +0200,
65,0,65,,,,,,space,2.0370237000006455,None,None,3,0.790422199999739,0.21385410000038974,None,0,0,0,0,,,,,1,0,1,0,,,,,65,0,65,0,943.3890302,,,,,,,,,,,,,,,,,,,,,,,,,,,,,,,,,,,,,,,,,,,,,,,,,,,,,,Geschichte,2.6312,943.3739028,943.3743988999995,943.3745117999997,943.3890302,946.0220678999995,946.0064542999999,946.0115485999995,946.0220678999995,946.0220678999995,946.0220678999995,946.0220678999995,948.0219219999999,948.0219219999999,948.0219219999999,948.0219219999999,948.0064304999996,3,0.790422199999739,0.21385410000038974,None,,,,,,,,,,,,,,,,,,,,,4110,1,2025-06-06_14h00.43.501,sm,2024.2.4,59.95480606735098,2025-06-06 14h00.57.307122 +0200,
