thisN,thisTrialN,thisRepN,Cue,Target,Mediator1,Mediator2,iti,scanner_ready_press.keys,scanner_ready_press.rt,scanner_ready_press.duration,skip_trigger.keys,living_nonliving.keys,end_mapping.keys,living_nonliving.rt,living_nonliving.duration,blocks.thisRepN,blocks.thisTrialN,blocks.thisN,blocks.thisIndex,load_and_shuffle.thisRepN,load_and_shuffle.thisTrialN,load_and_shuffle.thisN,load_and_shuffle.thisIndex,runs.thisRepN,runs.thisTrialN,runs.thisN,runs.thisIndex,iti_loading_loop.thisRepN,iti_loading_loop.thisTrialN,iti_loading_loop.thisN,iti_loading_loop.thisIndex,semantic_mapping_run.thisRepN,semantic_mapping_run.thisTrialN,semantic_mapping_run.thisN,semantic_mapping_run.thisIndex,thisRow.t,notes,welcome.started,welcome_text.started,welcome.stopped,scout.started,scout_text.started,key_resp.started,scout.stopped,key_resp.keys,key_resp.rt,key_resp.duration,instructions_semantic_mapping1.started,sm_instructions1_text.started,sm_instructions1_key.started,instructions_semantic_mapping1.stopped,sm_instructions1_key.keys,sm_instructions1_key.rt,sm_instructions1_key.duration,instructions_semantic_mapping2.started,sm_instructions2_text.started,sm_instructions2_key.started,instructions_semantic_mapping2.stopped,sm_instructions2_key.keys,sm_instructions2_key.rt,sm_instructions2_key.duration,reset_run.started,reset_run.stopped,shuffle_items.started,shuffle_items.stopped,set_up_runs.started,set_up_runs.stopped,load_iti.started,load_iti.stopped,prep_scanner.started,scanner_ready_press.started,ready_set_text.started,prep_scanner.stopped,runs.scanner_ready_press.keys,runs.scanner_ready_press.rt,runs.scanner_ready_press.duration,wait_for_trigger.started,starting_soon.started,skip_trigger.started,wait_for_trigger.stopped,runs.skip_trigger.keys,blank.started,begin_end_run_cross.started,sound_1.started,sound_1.stopped,sound_2.started,sound_2.stopped,blank.stopped,CurrentItem,CurrentITI,set_up_trial.started,set_up_trial.stopped,sm_iti.started,iti_cross.started,iti_cross.stopped,sm_iti.stopped,item.started,living_nonliving.started,end_mapping.started,living_nonliving_text.started,semantic_map_item.started,living_nonliving.stopped,end_mapping.stopped,living_nonliving_text.stopped,semantic_map_item.stopped,item.stopped,semantic_mapping_run.living_nonliving.keys,semantic_mapping_run.end_mapping.keys,semantic_mapping_run.living_nonliving.rt,semantic_mapping_run.living_nonliving.duration,fieldmap.started,fieldmap.stopped,runs.fm_key.keys,task_break.started,task_break_text.started,task_break_resp.started,task_break.stopped,runs.task_break_resp.keys,runs.task_break_resp.rt,runs.task_break_resp.duration,begin_end_run_cross.stopped,fm_text.started,fm_key.started,runs.fm_key.rt,runs.fm_key.duration,thanks.started,thanks_text.started,thanks_text.stopped,thanks.stopped,PID,MRI,date,expName,psychopyVersion,frameRate,expStart,
,,,,,,,,,,,,,,,,,,,,,,,,,,,,,,,,,,,,,,0.003923199999917415,0.013246600000456965,3.006746099999873,,,,,,,,,,,,,,,,,,,,,,,,,,,,,,,,,,,,,,,,,,,,,,,,,,,,,,,,,,,,,,,,,,,,,,,,,,,,,,,,,,,,,,,,,,4626,1,2025-05-21_18h49.54.569,sm,2024.2.4,59.904165316333255,2025-05-21 18h50.14.385115 +0200,
,,,,,,,,,,,,,,,,,,,,,,,,,,,,,,,,,,,,,,,,,3.006836900000053,3.0229295999997703,3.0229295999997703,86.22605230000045,space,83.19101740000042,None,,,,,,,,,,,,,,,,,,,,,,,,,,,,,,,,,,,,,,,,,,,,,,,,,,,,,,,,,,,,,,,,,,,,,,,,,,,,,,,,,,,4626,1,2025-05-21_18h49.54.569,sm,2024.2.4,59.904165316333255,2025-05-21 18h50.14.385115 +0200,
,,,,,,,,,,,,,,,,,,,,,,,,,,,,,,,,,,,,,,,,,,,,,,,,86.22616899999957,86.23473360000025,86.23473360000025,121.99913639999977,5,35.76034559999971,None,,,,,,,,,,,,,,,,,,,,,,,,,,,,,,,,,,,,,,,,,,,,,,,,,,,,,,,,,,,,,,,,,,,,,,,,,,,,4626,1,2025-05-21_18h49.54.569,sm,2024.2.4,59.904165316333255,2025-05-21 18h50.14.385115 +0200,
,,,,,,,,,,,,,,,,,,,,,,,,,,,,,,,,,,,,,,,,,,,,,,,,,,,,,,,121.99931180000021,122.01581700000042,122.01581700000042,130.86740720000034,2,8.84436310000001,None,,,,,,,,,,,,,,,,,,,,,,,,,,,,,,,,,,,,,,,,,,,,,,,,,,,,,,,,,,,,,,,,,,,,,4626,1,2025-05-21_18h49.54.569,sm,2024.2.4,59.904165316333255,2025-05-21 18h50.14.385115 +0200,
0,0,0,Shampoo,Seife,Spülung,Haare,3.2059,space,2.796763300000748,None,None,None,None,,,0,0,0,0,0,79,79,51,0,0,0,0,0,79,79,69,0,0,0,0,193.41135469999972,,,,,,,,,,,,,,,,,,,,,,,,,,130.86827619999985,130.8688401999998,130.9364986999999,130.93676200000027,130.94133359999978,130.94162070000039,130.97243809999964,130.97263980000025,130.97925029999988,130.98430129999997,130.98430129999997,133.78373370000008,space,2.796763300000748,None,133.78390219999983,133.79843640000036,133.79843640000036,181.38071039999977,None,181.38938859999962,181.39823760000036,181.39591706666695,182.59734930000013,191.3952266666668,192.39782509999986,193.39497010000014,Wind,3.2059,193.39615030000004,193.39696710000044,193.39977009999984,193.41135469999972,196.62801339999987,196.61258220000036,196.6165100999997,196.62801339999987,196.62801339999987,196.62801339999987,196.62801339999987,198.6280383000003,198.6280383000003,198.6280383000003,198.6280383000003,198.6125519999996,None,None,,,,,,,,,,,,,,,,,,,,,,4626,1,2025-05-21_18h49.54.569,sm,2024.2.4,59.904165316333255,2025-05-21 18h50.14.385115 +0200,
1,0,1,,,,,,space,2.796763300000748,None,None,3,None,1.0415616000000227,0.22494860000006156,0,0,0,0,,,,,0,0,0,0,,,,,1,0,1,0,198.6280383000003,,,,,,,,,,,,,,,,,,,,,,,,,,,,,,,,,,,,,,,,,,,,,,,,,,,,,Schlamm,2.4167,198.61302590000014,198.6136391,198.61374679999972,198.6280383000003,201.04462169999988,201.0289200999996,201.03345040000022,201.04462169999988,201.04462169999988,201.04462169999988,201.04462169999988,203.0443126,203.0443126,203.0443126,203.0443126,203.02884619999986,3,None,1.0415616000000227,0.22494860000006156,,,,,,,,,,,,,,,,,,,,4626,1,2025-05-21_18h49.54.569,sm,2024.2.4,59.904165316333255,2025-05-21 18h50.14.385115 +0200,
2,0,2,,,,,,space,2.796763300000748,None,None,2,None,0.9254968000004737,0.22909229999913805,0,0,0,0,,,,,0,0,0,0,,,,,2,0,2,0,203.0443126,,,,,,,,,,,,,,,,,,,,,,,,,,,,,,,,,,,,,,,,,,,,,,,,,,,,,Agent,3.6297,203.02934710000045,203.0300115,203.03012490000037,203.0443126,206.67761489999975,206.66165749999982,206.66601960000025,206.67761489999975,206.67761489999975,206.67761489999975,206.67761489999975,208.67749470000035,208.67749470000035,208.67749470000035,208.67749470000035,208.66208089999964,2,None,0.9254968000004737,0.22909229999913805,,,,,,,,,,,,,,,,,,,,4626,1,2025-05-21_18h49.54.569,sm,2024.2.4,59.904165316333255,2025-05-21 18h50.14.385115 +0200,
3,0,3,,,,,,space,2.796763300000748,None,None,3,None,0.7842705000002752,0.23819129999992583,0,0,0,0,,,,,0,0,0,0,,,,,3,0,3,0,208.67749470000035,,,,,,,,,,,,,,,,,,,,,,,,,,,,,,,,,,,,,,,,,,,,,,,,,,,,,Sand,2.83,208.66258749999997,208.66308490000029,208.66319529999964,208.67749470000035,211.5102181000002,211.49485989999994,211.49790200000007,211.5102181000002,211.5102181000002,211.5102181000002,211.5102181000002,213.5104680000004,213.5104680000004,213.5104680000004,213.5104680000004,213.49514809999982,3,None,0.7842705000002752,0.23819129999992583,,,,,,,,,,,,,,,,,,,,4626,1,2025-05-21_18h49.54.569,sm,2024.2.4,59.904165316333255,2025-05-21 18h50.14.385115 +0200,
4,0,4,,,,,,space,2.796763300000748,None,None,2,None,0.7737784999999349,0.23239300000022922,0,0,0,0,,,,,0,0,0,0,,,,,4,0,4,0,213.5104680000004,,,,,,,,,,,,,,,,,,,,,,,,,,,,,,,,,,,,,,,,,,,,,,,,,,,,,Gesicht,2.3599,213.49564800000007,213.4961497000004,213.49625480000032,213.5104680000004,215.8768901000003,215.86134289999973,215.86567130000003,215.8768901000003,215.8768901000003,215.8768901000003,215.8768901000003,217.87694869999996,217.87694869999996,217.87694869999996,217.87694869999996,217.8618137000003,2,None,0.7737784999999349,0.23239300000022922,,,,,,,,,,,,,,,,,,,,4626,1,2025-05-21_18h49.54.569,sm,2024.2.4,59.904165316333255,2025-05-21 18h50.14.385115 +0200,
5,0,5,,,,,,space,2.796763300000748,None,None,3,None,0.8750723000002836,0.24134609999964596,0,0,0,0,,,,,0,0,0,0,,,,,5,0,5,0,217.87694869999996,,,,,,,,,,,,,,,,,,,,,,,,,,,,,,,,,,,,,,,,,,,,,,,,,,,,,Käse,2.5519,217.86235899999974,217.86297579999973,217.86309129999972,217.87694869999996,220.4432127,220.42746950000037,220.43302180000046,220.4432127,220.4432127,220.4432127,220.4432127,222.44320979999975,222.44320979999975,222.44320979999975,222.44320979999975,222.4277892,3,None,0.8750723000002836,0.24134609999964596,,,,,,,,,,,,,,,,,,,,4626,1,2025-05-21_18h49.54.569,sm,2024.2.4,59.904165316333255,2025-05-21 18h50.14.385115 +0200,
6,0,6,,,,,,space,2.796763300000748,None,None,3,None,1.090726800000084,0.2283458999991126,0,0,0,0,,,,,0,0,0,0,,,,,6,0,6,0,222.44320979999975,,,,,,,,,,,,,,,,,,,,,,,,,,,,,,,,,,,,,,,,,,,,,,,,,,,,,Afrika,2.5169,222.42828579999968,222.4289517999996,222.42906120000043,222.44320979999975,224.95955380000032,224.94457950000015,224.94869300000028,224.95955380000032,224.95955380000032,224.95955380000032,224.95955380000032,226.95978110000033,226.95978110000033,226.95978110000033,226.95978110000033,226.94424499999968,3,None,1.090726800000084,0.2283458999991126,,,,,,,,,,,,,,,,,,,,4626,1,2025-05-21_18h49.54.569,sm,2024.2.4,59.904165316333255,2025-05-21 18h50.14.385115 +0200,
7,0,7,,,,,,space,2.796763300000748,None,None,3,None,1.0080095000002984,0.23795820000032109,0,0,0,0,,,,,0,0,0,0,,,,,7,0,7,0,226.95978110000033,,,,,,,,,,,,,,,,,,,,,,,,,,,,,,,,,,,,,,,,,,,,,,,,,,,,,Medaille,2.3843,226.94474210000044,226.94526769999993,226.94537500000024,226.95978110000033,229.35945850000007,229.3437229000001,229.34715049999977,229.35945850000007,229.35945850000007,229.35945850000007,229.35945850000007,231.35938890000034,231.35938890000034,231.35938890000034,231.35938890000034,231.3436711000004,3,None,1.0080095000002984,0.23795820000032109,,,,,,,,,,,,,,,,,,,,4626,1,2025-05-21_18h49.54.569,sm,2024.2.4,59.904165316333255,2025-05-21 18h50.14.385115 +0200,
8,0,8,,,,,,space,2.796763300000748,None,None,2,None,0.8956160000007003,0.23994369999945775,0,0,0,0,,,,,0,0,0,0,,,,,8,0,8,0,231.35938890000034,,,,,,,,,,,,,,,,,,,,,,,,,,,,,,,,,,,,,,,,,,,,,,,,,,,,,Freund,4.3424,231.34414019999986,231.34462929999972,231.34473119999984,231.35938890000034,235.7089662999997,235.6936665000003,235.70051020000028,235.7089662999997,235.7089662999997,235.7089662999997,235.7089662999997,237.70913389999987,237.70913389999987,237.70913389999987,237.70913389999987,237.6934996,2,None,0.8956160000007003,0.23994369999945775,,,,,,,,,,,,,,,,,,,,4626,1,2025-05-21_18h49.54.569,sm,2024.2.4,59.904165316333255,2025-05-21 18h50.14.385115 +0200,
9,0,9,,,,,,space,2.796763300000748,None,None,3,None,1.0462873000005857,0.24034369999935734,0,0,0,0,,,,,0,0,0,0,,,,,9,0,9,0,237.70913389999987,,,,,,,,,,,,,,,,,,,,,,,,,,,,,,,,,,,,,,,,,,,,,,,,,,,,,Angriff,3.6005,237.69400250000035,237.69465089999994,237.6947565999999,237.70913389999987,241.30852680000044,241.2928380000003,241.2962918000003,241.30852680000044,241.30852680000044,241.30852680000044,241.30852680000044,243.30873059999976,243.30873059999976,243.30873059999976,243.30873059999976,243.29312289999962,3,None,1.0462873000005857,0.24034369999935734,,,,,,,,,,,,,,,,,,,,4626,1,2025-05-21_18h49.54.569,sm,2024.2.4,59.904165316333255,2025-05-21 18h50.14.385115 +0200,
10,0,10,,,,,,space,2.796763300000748,None,None,3,None,0.9507081000001563,0.25371889999951236,0,0,0,0,,,,,0,0,0,0,,,,,10,0,10,0,243.30873059999976,,,,,,,,,,,,,,,,,,,,,,,,,,,,,,,,,,,,,,,,,,,,,,,,,,,,,Schnorchel,2.1743,243.29362779999974,243.29415570000037,243.29426520000015,243.30873059999976,245.49217119999958,245.47665909999978,245.48154460000023,245.49217119999958,245.49217119999958,245.49217119999958,245.49217119999958,247.49231270000018,247.49231270000018,247.49231270000018,247.49231270000018,247.47633060000044,3,None,0.9507081000001563,0.25371889999951236,,,,,,,,,,,,,,,,,,,,4626,1,2025-05-21_18h49.54.569,sm,2024.2.4,59.904165316333255,2025-05-21 18h50.14.385115 +0200,
11,0,11,,,,,,space,2.796763300000748,None,None,3,None,0.9820749000000433,0.24304209999991144,0,0,0,0,,,,,0,0,0,0,,,,,11,0,11,0,247.49231270000018,,,,,,,,,,,,,,,,,,,,,,,,,,,,,,,,,,,,,,,,,,,,,,,,,,,,,Sauber,2.9036,247.47683169999982,247.4774269999998,247.47753509999984,247.49231270000018,250.40820840000015,250.39279069999975,250.39681240000027,250.40820840000015,250.40820840000015,250.40820840000015,250.40820840000015,252.40843239999958,252.40843239999958,252.40843239999958,252.40843239999958,252.39243069999975,3,None,0.9820749000000433,0.24304209999991144,,,,,,,,,,,,,,,,,,,,4626,1,2025-05-21_18h49.54.569,sm,2024.2.4,59.904165316333255,2025-05-21 18h50.14.385115 +0200,
12,0,12,,,,,,space,2.796763300000748,None,None,3,None,1.1098664999999528,0.2403229999999894,0,0,0,0,,,,,0,0,0,0,,,,,12,0,12,0,252.40843239999958,,,,,,,,,,,,,,,,,,,,,,,,,,,,,,,,,,,,,,,,,,,,,,,,,,,,,Auto,2.9645,252.39283630000045,252.39329480000015,252.39338570000018,252.40843239999958,255.3744772,255.3589334999997,255.36242909999964,255.3744772,255.3744772,255.3744772,255.3744772,257.3744993,257.3744993,257.3744993,257.3744993,257.35912240000016,3,None,1.1098664999999528,0.2403229999999894,,,,,,,,,,,,,,,,,,,,4626,1,2025-05-21_18h49.54.569,sm,2024.2.4,59.904165316333255,2025-05-21 18h50.14.385115 +0200,
13,0,13,,,,,,space,2.796763300000748,None,None,3,None,0.9955475999995542,0.2297299000001658,0,0,0,0,,,,,0,0,0,0,,,,,13,0,13,0,257.3744993,,,,,,,,,,,,,,,,,,,,,,,,,,,,,,,,,,,,,,,,,,,,,,,,,,,,,Zahnpasta,2.0934,257.35963809999976,257.36014109999996,257.3602492,257.3744993,259.47419309999987,259.4588641,259.46513219999997,259.47419309999987,259.47419309999987,259.47419309999987,259.47419309999987,261.4743977999997,261.4743977999997,261.4743977999997,261.4743977999997,261.45892300000014,3,None,0.9955475999995542,0.2297299000001658,,,,,,,,,,,,,,,,,,,,4626,1,2025-05-21_18h49.54.569,sm,2024.2.4,59.904165316333255,2025-05-21 18h50.14.385115 +0200,
14,0,14,,,,,,space,2.796763300000748,None,None,3,None,0.9865437999997084,0.24164470000050642,0,0,0,0,,,,,0,0,0,0,,,,,14,0,14,0,261.4743977999997,,,,,,,,,,,,,,,,,,,,,,,,,,,,,,,,,,,,,,,,,,,,,,,,,,,,,Album,2.1961,261.4594264999996,261.4599301999997,261.4600373000003,261.4743977999997,263.6748556000002,263.6584101999997,263.6633955999996,263.6748556000002,263.6748556000002,263.6748556000002,263.6748556000002,265.6742457999999,265.6742457999999,265.6742457999999,265.6742457999999,265.6588332000001,3,None,0.9865437999997084,0.24164470000050642,,,,,,,,,,,,,,,,,,,,4626,1,2025-05-21_18h49.54.569,sm,2024.2.4,59.904165316333255,2025-05-21 18h50.14.385115 +0200,
15,0,15,,,,,,space,2.796763300000748,None,None,3,None,1.0611885999996957,0.2444788000002518,0,0,0,0,,,,,0,0,0,0,,,,,15,0,15,0,265.6742457999999,,,,,,,,,,,,,,,,,,,,,,,,,,,,,,,,,,,,,,,,,,,,,,,,,,,,,Tradition,2.0052,265.6593485000003,265.65987680000035,265.65998320000017,265.6742457999999,267.69107170000007,267.6751598999999,267.67960219999986,267.69107170000007,267.69107170000007,267.69107170000007,267.69107170000007,269.6908696999999,269.6908696999999,269.6908696999999,269.6908696999999,269.6749348000003,3,None,1.0611885999996957,0.2444788000002518,,,,,,,,,,,,,,,,,,,,4626,1,2025-05-21_18h49.54.569,sm,2024.2.4,59.904165316333255,2025-05-21 18h50.14.385115 +0200,
16,0,16,,,,,,space,2.796763300000748,None,None,2,None,1.2060912999995708,0.2242403000000195,0,0,0,0,,,,,0,0,0,0,,,,,16,0,16,0,269.6908696999999,,,,,,,,,,,,,,,,,,,,,,,,,,,,,,,,,,,,,,,,,,,,,,,,,,,,,Monster,3.6438,269.6754428000004,269.6759468,269.6760555000001,269.6908696999999,273.3400670000001,273.32429030000003,273.3277159999998,273.3400670000001,273.3400670000001,273.3400670000001,273.3400670000001,275.3404112999997,275.3404112999997,275.3404112999997,275.3404112999997,275.3245759000001,2,None,1.2060912999995708,0.2242403000000195,,,,,,,,,,,,,,,,,,,,4626,1,2025-05-21_18h49.54.569,sm,2024.2.4,59.904165316333255,2025-05-21 18h50.14.385115 +0200,
17,0,17,,,,,,space,2.796763300000748,None,None,3,None,1.1242371999996976,0.24493170000005193,0,0,0,0,,,,,0,0,0,0,,,,,17,0,17,0,275.3404112999997,,,,,,,,,,,,,,,,,,,,,,,,,,,,,,,,,,,,,,,,,,,,,,,,,,,,,Zeichnung,2.9109,275.32507110000006,275.3255871000001,275.3256924999996,275.3404112999997,278.2566662999998,278.2409878999997,278.2452537999998,278.2566662999998,278.2566662999998,278.2566662999998,278.2566662999998,280.25681280000026,280.25681280000026,280.25681280000026,280.25681280000026,280.2412492000003,3,None,1.1242371999996976,0.24493170000005193,,,,,,,,,,,,,,,,,,,,4626,1,2025-05-21_18h49.54.569,sm,2024.2.4,59.904165316333255,2025-05-21 18h50.14.385115 +0200,
18,0,18,,,,,,space,2.796763300000748,None,None,3,None,1.0336244999998598,0.23911520000001474,0,0,0,0,,,,,0,0,0,0,,,,,18,0,18,0,280.25681280000026,,,,,,,,,,,,,,,,,,,,,,,,,,,,,,,,,,,,,,,,,,,,,,,,,,,,,Stiefel,3.8592,280.24174500000026,280.2422539999998,280.24235750000025,280.25681280000026,284.12284739999996,284.1071052999996,284.11065169999983,284.12284739999996,284.12284739999996,284.12284739999996,284.12284739999996,286.1227398000001,286.1227398000001,286.1227398000001,286.1227398000001,286.10751809999965,3,None,1.0336244999998598,0.23911520000001474,,,,,,,,,,,,,,,,,,,,4626,1,2025-05-21_18h49.54.569,sm,2024.2.4,59.904165316333255,2025-05-21 18h50.14.385115 +0200,
19,0,19,,,,,,space,2.796763300000748,None,None,3,None,0.9649781999996776,0.2467624999999316,0,0,0,0,,,,,0,0,0,0,,,,,19,0,19,0,286.1227398000001,,,,,,,,,,,,,,,,,,,,,,,,,,,,,,,,,,,,,,,,,,,,,,,,,,,,,Nudeln,2.9443,286.1080124,286.10881599999993,286.10892330000024,286.1227398000001,289.07248249999975,289.0570058000003,289.0612245000002,289.07248249999975,289.07248249999975,289.07248249999975,289.07248249999975,291.07244619999983,291.07244619999983,291.07244619999983,291.07244619999983,291.05704719999994,3,None,0.9649781999996776,0.2467624999999316,,,,,,,,,,,,,,,,,,,,4626,1,2025-05-21_18h49.54.569,sm,2024.2.4,59.904165316333255,2025-05-21 18h50.14.385115 +0200,
20,0,20,,,,,,space,2.796763300000748,None,None,2,None,1.8514203999993697,None,0,0,0,0,,,,,0,0,0,0,,,,,20,0,20,0,291.07244619999983,,,,,,,,,,,,,,,,,,,,,,,,,,,,,,,,,,,,,,,,,,,,,,,,,,,,,Film,2.3006,291.0575391000002,291.0582026000002,291.05830849999984,291.07244619999983,293.3725093000003,293.3568459999997,293.36047599999984,293.3725093000003,293.3725093000003,293.3725093000003,293.3725093000003,295.3722740000003,295.3722740000003,295.3722740000003,295.3722740000003,295.35681320000003,2,None,1.8514203999993697,None,,,,,,,,,,,,,,,,,,,,4626,1,2025-05-21_18h49.54.569,sm,2024.2.4,59.904165316333255,2025-05-21 18h50.14.385115 +0200,
21,0,21,,,,,,space,2.796763300000748,None,None,3,None,0.962832499999422,0.2679314000006343,0,0,0,0,,,,,0,0,0,0,,,,,21,0,21,0,295.3722740000003,,,,,,,,,,,,,,,,,,,,,,,,,,,,,,,,,,,,,,,,,,,,,,,,,,,,,Pflege,5.3463,295.3573137000003,295.35784460000013,295.3579485999999,295.3722740000003,300.72181290000026,300.70615629999975,300.71076360000006,300.72181290000026,300.72181290000026,300.72181290000026,300.72181290000026,302.72169229999963,302.72169229999963,302.72169229999963,302.72169229999963,302.7064572999998,3,None,0.962832499999422,0.2679314000006343,,,,,,,,,,,,,,,,,,,,4626,1,2025-05-21_18h49.54.569,sm,2024.2.4,59.904165316333255,2025-05-21 18h50.14.385115 +0200,
22,0,22,,,,,,space,2.796763300000748,None,None,3,None,1.543709300000046,0.22368069999993168,0,0,0,0,,,,,0,0,0,0,,,,,22,0,22,0,302.72169229999963,,,,,,,,,,,,,,,,,,,,,,,,,,,,,,,,,,,,,,,,,,,,,,,,,,,,,Party,2.8901,302.7069558000003,302.7074640999999,302.7075673999998,302.72169229999963,305.62167000000045,305.6058796999996,305.61223640000026,305.62167000000045,305.62167000000045,305.62167000000045,305.62167000000045,307.62170719999995,307.62170719999995,307.62170719999995,307.62170719999995,307.60596840000017,3,None,1.543709300000046,0.22368069999993168,,,,,,,,,,,,,,,,,,,,4626,1,2025-05-21_18h49.54.569,sm,2024.2.4,59.904165316333255,2025-05-21 18h50.14.385115 +0200,
23,0,23,,,,,,space,2.796763300000748,None,None,3,None,1.5335205999999744,0.26531119999981456,0,0,0,0,,,,,0,0,0,0,,,,,23,0,23,0,307.62170719999995,,,,,,,,,,,,,,,,,,,,,,,,,,,,,,,,,,,,,,,,,,,,,,,,,,,,,Netz,2.7992,307.6064604000003,307.60711960000026,307.60722559999977,307.62170719999995,310.42125829999986,310.40571,310.4090949000001,310.42125829999986,310.42125829999986,310.42125829999986,310.42125829999986,312.4212620999997,312.4212620999997,312.4212620999997,312.4212620999997,312.4055480999996,3,None,1.5335205999999744,0.26531119999981456,,,,,,,,,,,,,,,,,,,,4626,1,2025-05-21_18h49.54.569,sm,2024.2.4,59.904165316333255,2025-05-21 18h50.14.385115 +0200,
24,0,24,,,,,,space,2.796763300000748,None,None,2,None,0.9094983000004504,0.22435049999967305,0,0,0,0,,,,,0,0,0,0,,,,,24,0,24,0,312.4212620999997,,,,,,,,,,,,,,,,,,,,,,,,,,,,,,,,,,,,,,,,,,,,,,,,,,,,,Turnerin,4.5524,312.40602730000046,312.40650619999997,312.40660860000025,312.4212620999997,316.9877970999996,316.97177980000015,316.9752526000002,316.9877970999996,316.9877970999996,316.9877970999996,316.9877970999996,318.9876155000002,318.9876155000002,318.9876155000002,318.9876155000002,318.9721857000004,2,None,0.9094983000004504,0.22435049999967305,,,,,,,,,,,,,,,,,,,,4626,1,2025-05-21_18h49.54.569,sm,2024.2.4,59.904165316333255,2025-05-21 18h50.14.385115 +0200,
25,0,25,,,,,,space,2.796763300000748,None,None,2,None,1.129041000000143,0.1636023999999452,0,0,0,0,,,,,0,0,0,0,,,,,25,0,25,0,318.9876155000002,,,,,,,,,,,,,,,,,,,,,,,,,,,,,,,,,,,,,,,,,,,,,,,,,,,,,Gelenk,2.4916,318.97268859999986,318.9734093999996,318.9735154,318.9876155000002,321.4873829999997,321.47142470000017,321.4748595000001,321.4873829999997,321.4873829999997,321.4873829999997,321.4873829999997,323.4873448999997,323.4873448999997,323.4873448999997,323.4873448999997,323.4718925999996,2,None,1.129041000000143,0.1636023999999452,,,,,,,,,,,,,,,,,,,,4626,1,2025-05-21_18h49.54.569,sm,2024.2.4,59.904165316333255,2025-05-21 18h50.14.385115 +0200,
26,0,26,,,,,,space,2.796763300000748,None,None,3,None,0.8882263999994393,0.23134990000016842,0,0,0,0,,,,,0,0,0,0,,,,,26,0,26,0,323.4873448999997,,,,,,,,,,,,,,,,,,,,,,,,,,,,,,,,,,,,,,,,,,,,,,,,,,,,,Tomate,3.4445,323.4723855000002,323.4730235999996,323.4731297999997,323.4873448999997,326.9371377999996,326.9213615999997,326.92518010000003,326.9371377999996,326.9371377999996,326.9371377999996,326.9371377999996,328.9373692999998,328.9373692999998,328.9373692999998,328.9373692999998,328.92148819999966,3,None,0.8882263999994393,0.23134990000016842,,,,,,,,,,,,,,,,,,,,4626,1,2025-05-21_18h49.54.569,sm,2024.2.4,59.904165316333255,2025-05-21 18h50.14.385115 +0200,
27,0,27,,,,,,space,2.796763300000748,None,None,3,None,1.4188137999999526,0.24033650000001217,0,0,0,0,,,,,0,0,0,0,,,,,27,0,27,0,328.9373692999998,,,,,,,,,,,,,,,,,,,,,,,,,,,,,,,,,,,,,,,,,,,,,,,,,,,,,Zeit,2.5982,328.92202540000017,328.9225531000002,328.9226619000001,328.9373692999998,331.53647139999975,331.52098939999996,331.5248195000004,331.53647139999975,331.53647139999975,331.53647139999975,331.53647139999975,333.5367033000002,333.5367033000002,333.5367033000002,333.5367033000002,333.52105610000035,3,None,1.4188137999999526,0.24033650000001217,,,,,,,,,,,,,,,,,,,,4626,1,2025-05-21_18h49.54.569,sm,2024.2.4,59.904165316333255,2025-05-21 18h50.14.385115 +0200,
28,0,28,,,,,,space,2.796763300000748,None,None,3,None,0.8767361999998684,0.24290990000008605,0,0,0,0,,,,,0,0,0,0,,,,,28,0,28,0,333.5367033000002,,,,,,,,,,,,,,,,,,,,,,,,,,,,,,,,,,,,,,,,,,,,,,,,,,,,,Teller,2.021,333.5215546999998,333.5220545000002,333.52216080000017,333.5367033000002,335.5697669000001,335.5541509000004,335.55758440000045,335.5697669000001,335.5697669000001,335.5697669000001,335.5697669000001,337.5699752999999,337.5699752999999,337.5699752999999,337.5699752999999,337.55404759999965,3,None,0.8767361999998684,0.24290990000008605,,,,,,,,,,,,,,,,,,,,4626,1,2025-05-21_18h49.54.569,sm,2024.2.4,59.904165316333255,2025-05-21 18h50.14.385115 +0200,
29,0,29,,,,,,space,2.796763300000748,None,None,3,None,1.131779700000152,0.21732650000012654,0,0,0,0,,,,,0,0,0,0,,,,,29,0,29,0,337.5699752999999,,,,,,,,,,,,,,,,,,,,,,,,,,,,,,,,,,,,,,,,,,,,,,,,,,,,,Hand,2.7357,337.55454480000026,337.55505840000023,337.55516439999974,337.5699752999999,340.31931689999965,340.3038139999999,340.3089335000004,340.31931689999965,340.31931689999965,340.31931689999965,340.31931689999965,342.3197669000001,342.3197669000001,342.3197669000001,342.3197669000001,342.30455059999986,3,None,1.131779700000152,0.21732650000012654,,,,,,,,,,,,,,,,,,,,4626,1,2025-05-21_18h49.54.569,sm,2024.2.4,59.904165316333255,2025-05-21 18h50.14.385115 +0200,
30,0,30,,,,,,space,2.796763300000748,None,None,3,None,0.8716354999996838,0.2522846000001664,0,0,0,0,,,,,0,0,0,0,,,,,30,0,30,0,342.3197669000001,,,,,,,,,,,,,,,,,,,,,,,,,,,,,,,,,,,,,,,,,,,,,,,,,,,,,Shampoo,2.9832,342.30507060000036,342.3055715999999,342.3056809999998,342.3197669000001,345.3026646999997,345.2867900000001,345.28996689999985,345.3026646999997,345.3026646999997,345.3026646999997,345.3026646999997,347.3024943999999,347.3024943999999,347.3024943999999,347.3024943999999,347.2869231000004,3,None,0.8716354999996838,0.2522846000001664,,,,,,,,,,,,,,,,,,,,4626,1,2025-05-21_18h49.54.569,sm,2024.2.4,59.904165316333255,2025-05-21 18h50.14.385115 +0200,
31,0,31,,,,,,space,2.796763300000748,None,None,3,None,0.8898828000001231,0.24891109999953187,0,0,0,0,,,,,0,0,0,0,,,,,31,0,31,0,347.3024943999999,,,,,,,,,,,,,,,,,,,,,,,,,,,,,,,,,,,,,,,,,,,,,,,,,,,,,Kartoffel,2.0946,347.2874195000004,347.2880670000004,347.2881717999999,347.3024943999999,349.40227289999984,349.38671650000015,349.39098699999977,349.40227289999984,349.40227289999984,349.40227289999984,349.40227289999984,351.4023583999997,351.4023583999997,351.4023583999997,351.4023583999997,351.38694750000013,3,None,0.8898828000001231,0.24891109999953187,,,,,,,,,,,,,,,,,,,,4626,1,2025-05-21_18h49.54.569,sm,2024.2.4,59.904165316333255,2025-05-21 18h50.14.385115 +0200,
32,0,32,,,,,,space,2.796763300000748,None,None,3,None,0.8744941000004474,0.2758217999999033,0,0,0,0,,,,,0,0,0,0,,,,,32,0,32,0,351.4023583999997,,,,,,,,,,,,,,,,,,,,,,,,,,,,,,,,,,,,,,,,,,,,,,,,,,,,,Dorn,3.6564,351.38744380000026,351.3880927,351.38820510000005,351.4023583999997,355.06890060000023,355.05341510000017,355.0569512000002,355.06890060000023,355.06890060000023,355.06890060000023,355.06890060000023,357.06854829999975,357.06854829999975,357.06854829999975,357.06854829999975,357.05342050000036,3,None,0.8744941000004474,0.2758217999999033,,,,,,,,,,,,,,,,,,,,4626,1,2025-05-21_18h49.54.569,sm,2024.2.4,59.904165316333255,2025-05-21 18h50.14.385115 +0200,
33,0,33,,,,,,space,2.796763300000748,None,None,3,None,0.8512536000007458,0.2695975999995426,0,0,0,0,,,,,0,0,0,0,,,,,33,0,33,0,357.06854829999975,,,,,,,,,,,,,,,,,,,,,,,,,,,,,,,,,,,,,,,,,,,,,,,,,,,,,Hammer,2.8863,357.0539103000001,357.05445320000035,357.0545592999997,357.06854829999975,359.9682782,359.9531699999998,359.9574339999999,359.9682782,359.9682782,359.9682782,359.9682782,361.9684943000002,361.9684943000002,361.9684943000002,361.9684943000002,361.9530587999998,3,None,0.8512536000007458,0.2695975999995426,,,,,,,,,,,,,,,,,,,,4626,1,2025-05-21_18h49.54.569,sm,2024.2.4,59.904165316333255,2025-05-21 18h50.14.385115 +0200,
34,0,34,,,,,,space,2.796763300000748,None,None,2,None,1.1831811000001835,0.14956729999994423,0,0,0,0,,,,,0,0,0,0,,,,,34,0,34,0,361.9684943000002,,,,,,,,,,,,,,,,,,,,,,,,,,,,,,,,,,,,,,,,,,,,,,,,,,,,,Kopf,2.2639,361.9535526999998,361.9541932000002,361.9543002999999,361.9684943000002,364.2349664000003,364.21924370000033,364.2229774999996,364.2349664000003,364.2349664000003,364.2349664000003,364.2349664000003,366.2348572000001,366.2348572000001,366.2348572000001,366.2348572000001,366.2194092,2,None,1.1831811000001835,0.14956729999994423,,,,,,,,,,,,,,,,,,,,4626,1,2025-05-21_18h49.54.569,sm,2024.2.4,59.904165316333255,2025-05-21 18h50.14.385115 +0200,
35,0,35,,,,,,space,2.796763300000748,None,None,3,None,0.9757279999994353,0.22583620000023075,0,0,0,0,,,,,0,0,0,0,,,,,35,0,35,0,366.2348572000001,,,,,,,,,,,,,,,,,,,,,,,,,,,,,,,,,,,,,,,,,,,,,,,,,,,,,Wein,2.6312,366.21989420000045,366.22053529999994,366.2206454999996,366.2348572000001,368.86796719999984,368.85213939999994,368.85520540000016,368.86796719999984,368.86796719999984,368.86796719999984,368.86796719999984,370.8677786999997,370.8677786999997,370.8677786999997,370.8677786999997,370.85258669999985,3,None,0.9757279999994353,0.22583620000023075,,,,,,,,,,,,,,,,,,,,4626,1,2025-05-21_18h49.54.569,sm,2024.2.4,59.904165316333255,2025-05-21 18h50.14.385115 +0200,
36,0,36,,,,,,space,2.796763300000748,None,None,3,None,0.8182916999994632,0.25626480000028096,0,0,0,0,,,,,0,0,0,0,,,,,36,0,36,0,370.8677786999997,,,,,,,,,,,,,,,,,,,,,,,,,,,,,,,,,,,,,,,,,,,,,,,,,,,,,Fakt,2.6097,370.85309229999984,370.85359849999986,370.8537035999998,370.8677786999997,373.48406090000026,373.46862520000013,373.47149379999973,373.48406090000026,373.48406090000026,373.48406090000026,373.48406090000026,375.4842230000004,375.4842230000004,375.4842230000004,375.4842230000004,375.4689500000004,3,None,0.8182916999994632,0.25626480000028096,,,,,,,,,,,,,,,,,,,,4626,1,2025-05-21_18h49.54.569,sm,2024.2.4,59.904165316333255,2025-05-21 18h50.14.385115 +0200,
37,0,37,,,,,,space,2.796763300000748,None,None,3,None,1.0262070999997377,0.2090809999999692,0,0,0,0,,,,,0,0,0,0,,,,,37,0,37,0,375.4842230000004,,,,,,,,,,,,,,,,,,,,,,,,,,,,,,,,,,,,,,,,,,,,,,,,,,,,,Tür,3.039,375.4694548999996,375.4699730000002,375.47007810000014,375.4842230000004,378.5339776999999,378.5183597000005,378.52160410000033,378.5339776999999,378.5339776999999,378.5339776999999,378.5339776999999,380.5340368999996,380.5340368999996,380.5340368999996,380.5340368999996,380.5183426000003,3,None,1.0262070999997377,0.2090809999999692,,,,,,,,,,,,,,,,,,,,4626,1,2025-05-21_18h49.54.569,sm,2024.2.4,59.904165316333255,2025-05-21 18h50.14.385115 +0200,
38,0,38,,,,,,space,2.796763300000748,None,None,2,None,0.817966499999784,0.24264990000028774,0,0,0,0,,,,,0,0,0,0,,,,,38,0,38,0,380.5340368999996,,,,,,,,,,,,,,,,,,,,,,,,,,,,,,,,,,,,,,,,,,,,,,,,,,,,,Publikum,2.2385,380.51884040000004,380.5193356,380.5194422000004,380.5340368999996,382.78375959999994,382.76844489999985,382.77222640000036,382.78375959999994,382.78375959999994,382.78375959999994,382.78375959999994,384.78368090000004,384.78368090000004,384.78368090000004,384.78368090000004,384.7680768,2,None,0.817966499999784,0.24264990000028774,,,,,,,,,,,,,,,,,,,,4626,1,2025-05-21_18h49.54.569,sm,2024.2.4,59.904165316333255,2025-05-21 18h50.14.385115 +0200,
39,0,39,,,,,,space,2.796763300000748,None,None,3,None,1.1104903000004924,0.22938479999993433,0,0,0,0,,,,,0,0,0,0,,,,,39,0,39,0,384.78368090000004,,,,,,,,,,,,,,,,,,,,,,,,,,,,,,,,,,,,,,,,,,,,,,,,,,,,,Rauch,3.0547,384.76857850000033,384.769088,384.76919220000036,384.78368090000004,387.85016019999966,387.8346478000003,387.8386048000002,387.85016019999966,387.85016019999966,387.85016019999966,387.85016019999966,389.85007080000014,389.85007080000014,389.85007080000014,389.85007080000014,389.83485870000004,3,None,1.1104903000004924,0.22938479999993433,,,,,,,,,,,,,,,,,,,,4626,1,2025-05-21_18h49.54.569,sm,2024.2.4,59.904165316333255,2025-05-21 18h50.14.385115 +0200,
40,0,40,,,,,,space,2.796763300000748,None,None,3,None,0.8666345000001456,0.23095130000001518,0,0,0,0,,,,,0,0,0,0,,,,,40,0,40,0,389.85007080000014,,,,,,,,,,,,,,,,,,,,,,,,,,,,,,,,,,,,,,,,,,,,,,,,,,,,,Hose,2.3419,389.8353506000003,389.83599239999967,389.8360968999996,389.85007080000014,392.1997776999997,392.18411300000025,392.1875648000005,392.1997776999997,392.1997776999997,392.1997776999997,392.1997776999997,394.19977759999983,394.19977759999983,394.19977759999983,394.19977759999983,394.1843925000003,3,None,0.8666345000001456,0.23095130000001518,,,,,,,,,,,,,,,,,,,,4626,1,2025-05-21_18h49.54.569,sm,2024.2.4,59.904165316333255,2025-05-21 18h50.14.385115 +0200,
41,0,41,,,,,,space,2.796763300000748,None,None,3,None,0.7053671000003305,0.24636790000022302,0,0,0,0,,,,,0,0,0,0,,,,,41,0,41,0,394.19977759999983,,,,,,,,,,,,,,,,,,,,,,,,,,,,,,,,,,,,,,,,,,,,,,,,,,,,,Kante,3.1264,394.1848909,394.18539359999977,394.1855007000004,394.19977759999983,397.33278470000005,397.3173194000001,397.32103129999996,397.33278470000005,397.33278470000005,397.33278470000005,397.33278470000005,399.332762,399.332762,399.332762,399.332762,399.31739050000033,3,None,0.7053671000003305,0.24636790000022302,,,,,,,,,,,,,,,,,,,,4626,1,2025-05-21_18h49.54.569,sm,2024.2.4,59.904165316333255,2025-05-21 18h50.14.385115 +0200,
42,0,42,,,,,,space,2.796763300000748,None,None,3,None,0.8725277000003189,0.21704199999931006,0,0,0,0,,,,,0,0,0,0,,,,,42,0,42,0,399.332762,,,,,,,,,,,,,,,,,,,,,,,,,,,,,,,,,,,,,,,,,,,,,,,,,,,,,Glück,2.7378,399.3178889999999,399.3185427999997,399.31864870000027,399.332762,402.08253739999964,402.0671183000004,402.0707203000002,402.08253739999964,402.08253739999964,402.08253739999964,402.08253739999964,404.0826041,404.0826041,404.0826041,404.0826041,404.06703649999963,3,None,0.8725277000003189,0.21704199999931006,,,,,,,,,,,,,,,,,,,,4626,1,2025-05-21_18h49.54.569,sm,2024.2.4,59.904165316333255,2025-05-21 18h50.14.385115 +0200,
43,0,43,,,,,,space,2.796763300000748,None,None,3,None,1.257241299999805,0.2124831000000995,0,0,0,0,,,,,0,0,0,0,,,,,43,0,43,0,404.0826041,,,,,,,,,,,,,,,,,,,,,,,,,,,,,,,,,,,,,,,,,,,,,,,,,,,,,Komödie,2.8516,404.0675761000002,404.0682224000002,404.0684299000004,404.0826041,406.94897969999965,406.9334762999997,406.93734550000045,406.94897969999965,406.94897969999965,406.94897969999965,406.94897969999965,408.9490347000001,408.9490347000001,408.9490347000001,408.9490347000001,408.9334177999999,3,None,1.257241299999805,0.2124831000000995,,,,,,,,,,,,,,,,,,,,4626,1,2025-05-21_18h49.54.569,sm,2024.2.4,59.904165316333255,2025-05-21 18h50.14.385115 +0200,
44,0,44,,,,,,space,2.796763300000748,None,None,3,None,0.8319114999994781,0.24819079999997484,0,0,0,0,,,,,0,0,0,0,,,,,44,0,44,0,408.9490347000001,,,,,,,,,,,,,,,,,,,,,,,,,,,,,,,,,,,,,,,,,,,,,,,,,,,,,Bett,2.7584,408.9339269000002,408.93442310000046,408.93452979999984,408.9490347000001,411.71545849999984,411.69969310000033,411.7033302,411.71545849999984,411.71545849999984,411.71545849999984,411.71545849999984,413.7152820000001,413.7152820000001,413.7152820000001,413.7152820000001,413.69991279999977,3,None,0.8319114999994781,0.24819079999997484,,,,,,,,,,,,,,,,,,,,4626,1,2025-05-21_18h49.54.569,sm,2024.2.4,59.904165316333255,2025-05-21 18h50.14.385115 +0200,
45,0,45,,,,,,space,2.796763300000748,None,None,3,None,0.741012899999987,0.2492950000005294,0,0,0,0,,,,,0,0,0,0,,,,,45,0,45,0,413.7152820000001,,,,,,,,,,,,,,,,,,,,,,,,,,,,,,,,,,,,,,,,,,,,,,,,,,,,,Tal,3.6723,413.7004085999997,413.7010473,413.7011524999998,413.7152820000001,417.3990782999999,417.38288459999967,417.3864045,417.3990782999999,417.3990782999999,417.3990782999999,417.3990782999999,419.3983368999998,419.3983368999998,419.3983368999998,419.3983368999998,419.3828285999998,3,None,0.741012899999987,0.2492950000005294,,,,,,,,,,,,,,,,,,,,4626,1,2025-05-21_18h49.54.569,sm,2024.2.4,59.904165316333255,2025-05-21 18h50.14.385115 +0200,
46,0,46,,,,,,space,2.796763300000748,None,None,3,None,1.1647312000004604,0.20768859999952838,0,0,0,0,,,,,0,0,0,0,,,,,46,0,46,0,419.3983368999998,,,,,,,,,,,,,,,,,,,,,,,,,,,,,,,,,,,,,,,,,,,,,,,,,,,,,Weltraum,2.1949,419.3833278000002,419.3838447999997,419.38395519999995,419.3983368999998,421.5980921999999,421.58257109999977,421.58673030000045,421.5980921999999,421.5980921999999,421.5980921999999,421.5980921999999,423.598078,423.598078,423.598078,423.598078,423.5824775000001,3,None,1.1647312000004604,0.20768859999952838,,,,,,,,,,,,,,,,,,,,4626,1,2025-05-21_18h49.54.569,sm,2024.2.4,59.904165316333255,2025-05-21 18h50.14.385115 +0200,
47,0,47,,,,,,space,2.796763300000748,None,None,3,None,0.9281057999996847,0.21834010000020498,0,0,0,0,,,,,0,0,0,0,,,,,47,0,47,0,423.598078,,,,,,,,,,,,,,,,,,,,,,,,,,,,,,,,,,,,,,,,,,,,,,,,,,,,,Stein,4.4767,423.58296900000005,423.5835933999997,423.58370000000014,423.598078,428.0817380999997,428.0655864999999,428.0704619999997,428.0817380999997,428.0817380999997,428.0817380999997,428.0817380999997,430.08102099999996,430.08102099999996,430.08102099999996,430.08102099999996,430.0655942000003,3,None,0.9281057999996847,0.21834010000020498,,,,,,,,,,,,,,,,,,,,4626,1,2025-05-21_18h49.54.569,sm,2024.2.4,59.904165316333255,2025-05-21 18h50.14.385115 +0200,
48,0,48,,,,,,space,2.796763300000748,None,None,3,None,1.506610599999476,0.15959320000001753,0,0,0,0,,,,,0,0,0,0,,,,,48,0,48,0,430.08102099999996,,,,,,,,,,,,,,,,,,,,,,,,,,,,,,,,,,,,,,,,,,,,,,,,,,,,,Weinen,2.4521,430.06610720000026,430.0668483999998,430.0669531000003,430.08102099999996,432.54756720000023,432.5323582000001,432.53656729999966,432.54756720000023,432.54756720000023,432.54756720000023,432.54756720000023,434.54767830000037,434.54767830000037,434.54767830000037,434.54767830000037,434.53194729999996,3,None,1.506610599999476,0.15959320000001753,,,,,,,,,,,,,,,,,,,,4626,1,2025-05-21_18h49.54.569,sm,2024.2.4,59.904165316333255,2025-05-21 18h50.14.385115 +0200,
49,0,49,,,,,,space,2.796763300000748,None,None,3,None,1.0770192999998471,0.2430699000005916,0,0,0,0,,,,,0,0,0,0,,,,,49,0,49,0,434.54767830000037,,,,,,,,,,,,,,,,,,,,,,,,,,,,,,,,,,,,,,,,,,,,,,,,,,,,,Kaffee,3.6615,434.5324520000004,434.5329694000002,434.5330772999996,434.54767830000037,438.21374860000014,438.1982251999998,438.20234569999957,438.21374860000014,438.21374860000014,438.21374860000014,438.21374860000014,440.2140006999998,440.2140006999998,440.2140006999998,440.2140006999998,440.19824380000045,3,None,1.0770192999998471,0.2430699000005916,,,,,,,,,,,,,,,,,,,,4626,1,2025-05-21_18h49.54.569,sm,2024.2.4,59.904165316333255,2025-05-21 18h50.14.385115 +0200,
50,0,50,,,,,,space,2.796763300000748,None,None,3,None,0.9619308000001183,0.20648939999955473,0,0,0,0,,,,,0,0,0,0,,,,,50,0,50,0,440.2140006999998,,,,,,,,,,,,,,,,,,,,,,,,,,,,,,,,,,,,,,,,,,,,,,,,,,,,,Geschäft,2.2074,440.1987433000004,440.1992487999996,440.1993603000001,440.2140006999998,442.4303712000001,442.41464910000013,442.41878989999987,442.4303712000001,442.4303712000001,442.4303712000001,442.4303712000001,444.4305707000003,444.4305707000003,444.4305707000003,444.4305707000003,444.41498430000047,3,None,0.9619308000001183,0.20648939999955473,,,,,,,,,,,,,,,,,,,,4626,1,2025-05-21_18h49.54.569,sm,2024.2.4,59.904165316333255,2025-05-21 18h50.14.385115 +0200,
51,0,51,,,,,,space,2.796763300000748,None,None,2,None,1.5424679000007018,0.16253189999952156,0,0,0,0,,,,,0,0,0,0,,,,,51,0,51,0,444.4305707000003,,,,,,,,,,,,,,,,,,,,,,,,,,,,,,,,,,,,,,,,,,,,,,,,,,,,,Feier,2.2129,444.4154830999996,444.41614480000044,444.4162503999996,444.4305707000003,446.6468527999996,446.6310335999997,446.6349862999996,446.6468527999996,446.6468527999996,446.6468527999996,446.6468527999996,448.6466829000001,448.6466829000001,448.6466829000001,448.6466829000001,448.63130309999997,2,None,1.5424679000007018,0.16253189999952156,,,,,,,,,,,,,,,,,,,,4626,1,2025-05-21_18h49.54.569,sm,2024.2.4,59.904165316333255,2025-05-21 18h50.14.385115 +0200,
52,0,52,,,,,,space,2.796763300000748,None,None,3,None,0.8838563999997859,0.23860620000050403,0,0,0,0,,,,,0,0,0,0,,,,,52,0,52,0,448.6466829000001,,,,,,,,,,,,,,,,,,,,,,,,,,,,,,,,,,,,,,,,,,,,,,,,,,,,,Baum,2.0168,448.63174720000006,448.6322188000004,448.6323110000003,448.6466829000001,450.6629947000001,450.6475668000003,450.6509275999997,450.6629947000001,450.6629947000001,450.6629947000001,450.6629947000001,452.66296299999976,452.66296299999976,452.66296299999976,452.66296299999976,452.64737719999994,3,None,0.8838563999997859,0.23860620000050403,,,,,,,,,,,,,,,,,,,,4626,1,2025-05-21_18h49.54.569,sm,2024.2.4,59.904165316333255,2025-05-21 18h50.14.385115 +0200,
53,0,53,,,,,,space,2.796763300000748,None,None,3,None,1.0703213999995569,0.21939330000077462,0,0,0,0,,,,,0,0,0,0,,,,,53,0,53,0,452.66296299999976,,,,,,,,,,,,,,,,,,,,,,,,,,,,,,,,,,,,,,,,,,,,,,,,,,,,,Telefon,3.0127,452.6478815999999,452.6485290999999,452.6486352000002,452.66296299999976,455.6795850999997,455.6644704,455.6684143000002,455.6795850999997,455.6795850999997,455.6795850999997,455.6795850999997,457.67930760000036,457.67930760000036,457.67930760000036,457.67930760000036,457.66385960000025,3,None,1.0703213999995569,0.21939330000077462,,,,,,,,,,,,,,,,,,,,4626,1,2025-05-21_18h49.54.569,sm,2024.2.4,59.904165316333255,2025-05-21 18h50.14.385115 +0200,
54,0,54,,,,,,space,2.796763300000748,None,None,3,None,0.9590096000001722,0.27685530000053404,0,0,0,0,,,,,0,0,0,0,,,,,54,0,54,0,457.67930760000036,,,,,,,,,,,,,,,,,,,,,,,,,,,,,,,,,,,,,,,,,,,,,,,,,,,,,Haus,4.4429,457.6643167000002,457.6650361000002,457.6651343000003,457.67930760000036,462.12909969999964,462.11341530000027,462.1179705000004,462.12909969999964,462.12909969999964,462.12909969999964,462.12909969999964,464.1291567999997,464.1291567999997,464.1291567999997,464.1291567999997,464.11359580000044,3,None,0.9590096000001722,0.27685530000053404,,,,,,,,,,,,,,,,,,,,4626,1,2025-05-21_18h49.54.569,sm,2024.2.4,59.904165316333255,2025-05-21 18h50.14.385115 +0200,
55,0,55,,,,,,space,2.796763300000748,None,None,3,None,0.9311767999997755,0.2520355999995445,0,0,0,0,,,,,0,0,0,0,,,,,55,0,55,0,464.1291567999997,,,,,,,,,,,,,,,,,,,,,,,,,,,,,,,,,,,,,,,,,,,,,,,,,,,,,Sack,2.3861,464.11409840000033,464.11465599999974,464.11476159999984,464.1291567999997,466.5288197,466.5128259000003,466.5155582999996,466.5288197,466.5288197,466.5288197,466.5288197,468.5289366999996,468.5289366999996,468.5289366999996,468.5289366999996,468.5127247999999,3,None,0.9311767999997755,0.2520355999995445,,,,,,,,,,,,,,,,,,,,4626,1,2025-05-21_18h49.54.569,sm,2024.2.4,59.904165316333255,2025-05-21 18h50.14.385115 +0200,
56,0,56,,,,,,space,2.796763300000748,None,None,3,None,1.0881878000000142,0.22917599999982485,0,0,0,0,,,,,0,0,0,0,,,,,56,0,56,0,468.5289366999996,,,,,,,,,,,,,,,,,,,,,,,,,,,,,,,,,,,,,,,,,,,,,,,,,,,,,Zucker,2.6446,468.5131187999996,468.5136013000001,468.51369609999983,468.5289366999996,471.17860459999974,471.1630071999998,471.1669787000001,471.17860459999974,471.17860459999974,471.17860459999974,471.17860459999974,473.17859150000004,473.17859150000004,473.17859150000004,473.17859150000004,473.1631170999999,3,None,1.0881878000000142,0.22917599999982485,,,,,,,,,,,,,,,,,,,,4626,1,2025-05-21_18h49.54.569,sm,2024.2.4,59.904165316333255,2025-05-21 18h50.14.385115 +0200,
57,0,57,,,,,,space,2.796763300000748,None,None,3,None,0.7268039000000499,0.21740580000005139,0,0,0,0,,,,,0,0,0,0,,,,,57,0,57,0,473.17859150000004,,,,,,,,,,,,,,,,,,,,,,,,,,,,,,,,,,,,,,,,,,,,,,,,,,,,,Küche,2.3362,473.1636110999998,473.16422150000017,473.16432729999997,473.17859150000004,475.5281621000004,475.5126349000002,475.5163693000004,475.5281621000004,475.5281621000004,475.5281621000004,475.5281621000004,477.52913590000026,477.52913590000026,477.52913590000026,477.52913590000026,477.51314999999977,3,None,0.7268039000000499,0.21740580000005139,,,,,,,,,,,,,,,,,,,,4626,1,2025-05-21_18h49.54.569,sm,2024.2.4,59.904165316333255,2025-05-21 18h50.14.385115 +0200,
58,0,58,,,,,,space,2.796763300000748,None,None,2,None,0.92427730000054,0.22698270000000775,0,0,0,0,,,,,0,0,0,0,,,,,58,0,58,0,477.52913590000026,,,,,,,,,,,,,,,,,,,,,,,,,,,,,,,,,,,,,,,,,,,,,,,,,,,,,Professor,2.5377,477.5136442000003,477.5142853999996,477.51438979999966,477.52913590000026,480.0779709999997,480.06226289999995,480.06640270000025,480.0779709999997,480.0779709999997,480.0779709999997,480.0779709999997,482.07809890000044,482.07809890000044,482.07809890000044,482.07809890000044,482.0620976,2,None,0.92427730000054,0.22698270000000775,,,,,,,,,,,,,,,,,,,,4626,1,2025-05-21_18h49.54.569,sm,2024.2.4,59.904165316333255,2025-05-21 18h50.14.385115 +0200,
59,0,59,,,,,,space,2.796763300000748,None,None,2,None,0.841599700000188,0.219415200000185,0,0,0,0,,,,,0,0,0,0,,,,,59,0,59,0,482.07809890000044,,,,,,,,,,,,,,,,,,,,,,,,,,,,,,,,,,,,,,,,,,,,,,,,,,,,,Kunde,2.1831,482.0626666999997,482.06317339999987,482.06328399999984,482.07809890000044,484.2610702000002,484.24561429999994,484.24902380000003,484.2610702000002,484.2610702000002,484.2610702000002,484.2610702000002,486.26105240000015,486.26105240000015,486.26105240000015,486.26105240000015,486.24554590000025,2,None,0.841599700000188,0.219415200000185,,,,,,,,,,,,,,,,,,,,4626,1,2025-05-21_18h49.54.569,sm,2024.2.4,59.904165316333255,2025-05-21 18h50.14.385115 +0200,
60,0,60,,,,,,space,2.796763300000748,None,None,3,None,0.8878528000004735,0.2244416999992609,0,0,0,0,,,,,0,0,0,0,,,,,60,0,60,0,486.26105240000015,,,,,,,,,,,,,,,,,,,,,,,,,,,,,,,,,,,,,,,,,,,,,,,,,,,,,Brille,2.0589,486.24603990000014,486.24654420000024,486.24664779999966,486.26105240000015,488.3274074000001,488.31187599999976,488.3151449999996,488.3274074000001,488.3274074000001,488.3274074000001,488.3274074000001,490.3275464999997,490.3275464999997,490.3275464999997,490.3275464999997,490.3118242999999,3,None,0.8878528000004735,0.2244416999992609,,,,,,,,,,,,,,,,,,,,4626,1,2025-05-21_18h49.54.569,sm,2024.2.4,59.904165316333255,2025-05-21 18h50.14.385115 +0200,
61,0,61,,,,,,space,2.796763300000748,None,None,3,None,0.9853349999993952,0.22538750000057917,0,0,0,0,,,,,0,0,0,0,,,,,61,0,61,0,490.3275464999997,,,,,,,,,,,,,,,,,,,,,,,,,,,,,,,,,,,,,,,,,,,,,,,,,,,,,Weiß,4.5959,490.3123225999998,490.3128204000004,490.31292870000016,490.3275464999997,494.9265945999996,494.91149380000024,494.9188178000004,494.9265945999996,494.9265945999996,494.9265945999996,494.9265945999996,496.9271792999998,496.9271792999998,496.9271792999998,496.9271792999998,496.91166410000005,3,None,0.9853349999993952,0.22538750000057917,,,,,,,,,,,,,,,,,,,,4626,1,2025-05-21_18h49.54.569,sm,2024.2.4,59.904165316333255,2025-05-21 18h50.14.385115 +0200,
62,0,62,,,,,,space,2.796763300000748,None,None,3,None,1.0469382000001133,0.234331700000439,0,0,0,0,,,,,0,0,0,0,,,,,62,0,62,0,496.9271792999998,,,,,,,,,,,,,,,,,,,,,,,,,,,,,,,,,,,,,,,,,,,,,,,,,,,,,Ostern,2.3916,496.9121629000001,496.9127073999998,496.9128152000003,496.9271792999998,499.32685070000025,499.31122529999993,499.31772830000045,499.32685070000025,499.32685070000025,499.32685070000025,499.32685070000025,501.32697220000045,501.32697220000045,501.32697220000045,501.32697220000045,501.3114821999998,3,None,1.0469382000001133,0.234331700000439,,,,,,,,,,,,,,,,,,,,4626,1,2025-05-21_18h49.54.569,sm,2024.2.4,59.904165316333255,2025-05-21 18h50.14.385115 +0200,
63,0,63,,,,,,space,2.796763300000748,None,None,3,None,0.8937725999994655,0.2554251000001386,0,0,0,0,,,,,0,0,0,0,,,,,63,0,63,0,501.32697220000045,,,,,,,,,,,,,,,,,,,,,,,,,,,,,,,,,,,,,,,,,,,,,,,,,,,,,Lied,4.0852,501.3119829999996,501.3124957,501.31260250000014,501.32697220000045,505.42648759999975,505.41081790000044,505.41406389999975,505.42648759999975,505.42648759999975,505.42648759999975,505.42648759999975,507.4265115999997,507.4265115999997,507.4265115999997,507.4265115999997,507.4109811999997,3,None,0.8937725999994655,0.2554251000001386,,,,,,,,,,,,,,,,,,,,4626,1,2025-05-21_18h49.54.569,sm,2024.2.4,59.904165316333255,2025-05-21 18h50.14.385115 +0200,
64,0,64,,,,,,space,2.796763300000748,None,None,3,None,0.9233071999997264,0.24593889999960084,0,0,0,0,,,,,0,0,0,0,,,,,64,0,64,0,507.4265115999997,,,,,,,,,,,,,,,,,,,,,,,,,,,,,,,,,,,,,,,,,,,,,,,,,,,,,Dachboden,2.4137,507.4114786,507.41201980000005,507.4121304,507.4265115999997,509.8427547000001,509.8272364000004,509.8306929999999,509.8427547000001,509.8427547000001,509.8427547000001,509.8427547000001,511.84295290000045,511.84295290000045,511.84295290000045,511.84295290000045,511.82783029999973,3,None,0.9233071999997264,0.24593889999960084,,,,,,,,,,,,,,,,,,,,4626,1,2025-05-21_18h49.54.569,sm,2024.2.4,59.904165316333255,2025-05-21 18h50.14.385115 +0200,
65,0,65,,,,,,space,2.796763300000748,None,None,2,None,1.4401644999998098,0.15857280000000173,0,0,0,0,,,,,0,0,0,0,,,,,65,0,65,0,511.84295290000045,,,,,,,,,,,,,,,,,,,,,,,,,,,,,,,,,,,,,,,,,,,,,,,,,,,,,Geschmack,3.2825,511.8283269000003,511.82883500000025,511.8289378999998,511.84295290000045,515.1257536000003,515.1103214000004,515.1142400999997,515.1257536000003,515.1257536000003,515.1257536000003,515.1257536000003,517.1261356000005,517.1261356000005,517.1261356000005,517.1261356000005,517.1102607000003,2,None,1.4401644999998098,0.15857280000000173,,,,,,,,,,,,,,,,,,,,4626,1,2025-05-21_18h49.54.569,sm,2024.2.4,59.904165316333255,2025-05-21 18h50.14.385115 +0200,
66,0,66,,,,,,space,2.796763300000748,None,None,3,None,0.8384016999998494,0.26404749999983324,0,0,0,0,,,,,0,0,0,0,,,,,66,0,66,0,517.1261356000005,,,,,,,,,,,,,,,,,,,,,,,,,,,,,,,,,,,,,,,,,,,,,,,,,,,,,Fernseher,2.0031,517.1107639000002,517.1112763000001,517.1113839999998,517.1261356000005,519.1423535000004,519.1265604,519.1302163999999,519.1423535000004,519.1423535000004,519.1423535000004,519.1423535000004,521.1424115999998,521.1424115999998,521.1424115999998,521.1424115999998,521.1266298,3,None,0.8384016999998494,0.26404749999983324,,,,,,,,,,,,,,,,,,,,4626,1,2025-05-21_18h49.54.569,sm,2024.2.4,59.904165316333255,2025-05-21 18h50.14.385115 +0200,
67,0,67,,,,,,space,2.796763300000748,None,None,3,None,1.2915464999996402,0.23580760000004375,0,0,0,0,,,,,0,0,0,0,,,,,67,0,67,0,521.1424115999998,,,,,,,,,,,,,,,,,,,,,,,,,,,,,,,,,,,,,,,,,,,,,,,,,,,,,Liebe,5.1698,521.1271291000003,521.1277768,521.1278842000002,521.1424115999998,526.3251946999999,526.3096452,526.3154869,526.3251946999999,526.3251946999999,526.3251946999999,526.3251946999999,528.3252265000001,528.3252265000001,528.3252265000001,528.3252265000001,528.3102339999996,3,None,1.2915464999996402,0.23580760000004375,,,,,,,,,,,,,,,,,,,,4626,1,2025-05-21_18h49.54.569,sm,2024.2.4,59.904165316333255,2025-05-21 18h50.14.385115 +0200,
68,0,68,,,,,,space,2.796763300000748,None,None,3,None,0.8761233000004722,0.2383124999996653,0,0,0,0,,,,,0,0,0,0,,,,,68,0,68,0,528.3252265000001,,,,,,,,,,,,,,,,,,,,,,,,,,,,,,,,,,,,,,,,,,,,,,,,,,,,,Postkarte,4.7208,528.3107363999998,528.3112515000003,528.3113606999996,528.3252265000001,533.0584810999999,533.0427671999996,533.0470914999996,533.0584810999999,533.0584810999999,533.0584810999999,533.0584810999999,535.0581910000001,535.0581910000001,535.0581910000001,535.0581910000001,535.0425395000002,3,None,0.8761233000004722,0.2383124999996653,,,,,,,,,,,,,,,,,,,,4626,1,2025-05-21_18h49.54.569,sm,2024.2.4,59.904165316333255,2025-05-21 18h50.14.385115 +0200,
69,0,69,,,,,,space,2.796763300000748,None,None,3,None,1.1137595999998666,0.24852009999995062,0,0,0,0,,,,,0,0,0,0,,,,,69,0,69,0,535.0581910000001,,,,,,,,,,,,,,,,,,,,,,,,,,,,,,,,,,,,,,,,,,,,,,,,,,,,,Anhänger,3.9589,535.0430366999999,535.0435796000002,535.0436848999998,535.0581910000001,539.0246712999997,539.0089019999996,539.0131084000004,539.0246712999997,539.0246712999997,539.0246712999997,539.0246712999997,541.0247768999998,541.0247768999998,541.0247768999998,541.0247768999998,541.0088537000001,3,None,1.1137595999998666,0.24852009999995062,,,,,,,,,,,,,,,,,,,,4626,1,2025-05-21_18h49.54.569,sm,2024.2.4,59.904165316333255,2025-05-21 18h50.14.385115 +0200,
70,0,70,,,,,,space,2.796763300000748,None,None,3,None,1.082954499999687,0.22415369999998802,0,0,0,0,,,,,0,0,0,0,,,,,70,0,70,0,541.0247768999998,,,,,,,,,,,,,,,,,,,,,,,,,,,,,,,,,,,,,,,,,,,,,,,,,,,,,Nacht,2.1413,541.0093575999999,541.0098838000004,541.0099889000003,541.0247768999998,543.1745968000005,543.1587488000005,543.1629057,543.1745968000005,543.1745968000005,543.1745968000005,543.1745968000005,545.1743440999999,545.1743440999999,545.1743440999999,545.1743440999999,545.1586734000002,3,None,1.082954499999687,0.22415369999998802,,,,,,,,,,,,,,,,,,,,4626,1,2025-05-21_18h49.54.569,sm,2024.2.4,59.904165316333255,2025-05-21 18h50.14.385115 +0200,
71,0,71,,,,,,space,2.796763300000748,None,None,3,None,0.9267786999998862,0.21607479999966017,0,0,0,0,,,,,0,0,0,0,,,,,71,0,71,0,545.1743440999999,,,,,,,,,,,,,,,,,,,,,,,,,,,,,,,,,,,,,,,,,,,,,,,,,,,,,Bücher,3.189,545.1591615999996,545.1597148000001,545.1598148000003,545.1743440999999,548.3738633000003,548.3584600000004,548.3622427999999,548.3738633000003,548.3738633000003,548.3738633000003,548.3738633000003,550.3739429999996,550.3739429999996,550.3739429999996,550.3739429999996,550.3583870000002,3,None,0.9267786999998862,0.21607479999966017,,,,,,,,,,,,,,,,,,,,4626,1,2025-05-21_18h49.54.569,sm,2024.2.4,59.904165316333255,2025-05-21 18h50.14.385115 +0200,
72,0,72,,,,,,space,2.796763300000748,None,None,3,None,1.4723457000000053,0.20084850000057486,0,0,0,0,,,,,0,0,0,0,,,,,72,0,72,0,550.3739429999996,,,,,,,,,,,,,,,,,,,,,,,,,,,,,,,,,,,,,,,,,,,,,,,,,,,,,Ehe,2.1697,550.3588894000004,550.3594036000004,550.3595119000001,550.3739429999996,552.5570911000004,552.5413944000002,552.5450330000003,552.5570911000004,552.5570911000004,552.5570911000004,552.5570911000004,554.5570750999996,554.5570750999996,554.5570750999996,554.5570750999996,554.5414953999998,3,None,1.4723457000000053,0.20084850000057486,,,,,,,,,,,,,,,,,,,,4626,1,2025-05-21_18h49.54.569,sm,2024.2.4,59.904165316333255,2025-05-21 18h50.14.385115 +0200,
73,0,73,,,,,,space,2.796763300000748,None,None,3,None,1.1752469000002748,0.2812951999994766,0,0,0,0,,,,,0,0,0,0,,,,,73,0,73,0,554.5570750999996,,,,,,,,,,,,,,,,,,,,,,,,,,,,,,,,,,,,,,,,,,,,,,,,,,,,,Juwel,2.3229,554.5420016999997,554.5425203000004,554.5426305000001,554.5570750999996,556.8899253,556.8748873000004,556.8822362000001,556.8899253,556.8899253,556.8899253,556.8899253,558.890163,558.890163,558.890163,558.890163,558.8745061,3,None,1.1752469000002748,0.2812951999994766,,,,,,,,,,,,,,,,,,,,4626,1,2025-05-21_18h49.54.569,sm,2024.2.4,59.904165316333255,2025-05-21 18h50.14.385115 +0200,
74,0,74,,,,,,space,2.796763300000748,None,None,3,None,1.1932936000002883,0.2330984999998691,0,0,0,0,,,,,0,0,0,0,,,,,74,0,74,0,558.890163,,,,,,,,,,,,,,,,,,,,,,,,,,,,,,,,,,,,,,,,,,,,,,,,,,,,,Ausbruch,2.9061,558.8750110000001,558.8755898999998,558.8756960999999,558.890163,561.8065223000003,561.7912637,561.7956458999997,561.8065223000003,561.8065223000003,561.8065223000003,561.8065223000003,563.8065039000003,563.8065039000003,563.8065039000003,563.8065039000003,563.7909040000004,3,None,1.1932936000002883,0.2330984999998691,,,,,,,,,,,,,,,,,,,,4626,1,2025-05-21_18h49.54.569,sm,2024.2.4,59.904165316333255,2025-05-21 18h50.14.385115 +0200,
75,0,75,,,,,,space,2.796763300000748,None,None,2,None,0.9065012000000934,0.24243839999962802,0,0,0,0,,,,,0,0,0,0,,,,,75,0,75,0,563.8065039000003,,,,,,,,,,,,,,,,,,,,,,,,,,,,,,,,,,,,,,,,,,,,,,,,,,,,,Eltern,5.3655,563.7914022000004,563.7921845999999,563.7922876000002,563.8065039000003,569.1727312000003,569.1569406999997,569.1604693999998,569.1727312000003,569.1727312000003,569.1727312000003,569.1727312000003,571.1727091000002,571.1727091000002,571.1727091000002,571.1727091000002,571.1572334000002,2,None,0.9065012000000934,0.24243839999962802,,,,,,,,,,,,,,,,,,,,4626,1,2025-05-21_18h49.54.569,sm,2024.2.4,59.904165316333255,2025-05-21 18h50.14.385115 +0200,
76,0,76,,,,,,space,2.796763300000748,None,None,3,None,0.9879166999999143,0.2319974000001821,0,0,0,0,,,,,0,0,0,0,,,,,76,0,76,0,571.1727091000002,,,,,,,,,,,,,,,,,,,,,,,,,,,,,,,,,,,,,,,,,,,,,,,,,,,,,Garten,2.1186,571.1577338999996,571.1582404999999,571.1583467999999,571.1727091000002,573.3058793,573.2901954999998,573.2942008,573.3058793,573.3058793,573.3058793,573.3058793,575.3058219000004,575.3058219000004,575.3058219000004,575.3058219000004,575.2900311000003,3,None,0.9879166999999143,0.2319974000001821,,,,,,,,,,,,,,,,,,,,4626,1,2025-05-21_18h49.54.569,sm,2024.2.4,59.904165316333255,2025-05-21 18h50.14.385115 +0200,
77,0,77,,,,,,space,2.796763300000748,None,None,3,None,1.4543487999999343,0.22139059999972233,0,0,0,0,,,,,0,0,0,0,,,,,77,0,77,0,575.3058219000004,,,,,,,,,,,,,,,,,,,,,,,,,,,,,,,,,,,,,,,,,,,,,,,,,,,,,Schwung,4.3942,575.2904772000002,575.2909581000004,575.2910492000001,575.3058219000004,579.705492,579.6897165,579.6931891000004,579.705492,579.705492,579.705492,579.705492,581.7062773999996,581.7062773999996,581.7062773999996,581.7062773999996,581.6898242999996,3,None,1.4543487999999343,0.22139059999972233,,,,,,,,,,,,,,,,,,,,4626,1,2025-05-21_18h49.54.569,sm,2024.2.4,59.904165316333255,2025-05-21 18h50.14.385115 +0200,
78,0,78,,,,,,space,2.796763300000748,None,None,3,None,1.0323142000006555,0.2333859999998822,0,0,0,0,,,,,0,0,0,0,,,,,78,0,78,0,581.7062773999996,,,,,,,,,,,,,,,,,,,,,,,,,,,,,,,,,,,,,,,,,,,,,,,,,,,,,Bus,4.3756,581.6903301000002,581.6908370000001,581.6909475000002,581.7062773999996,586.0884955000001,586.0726653000002,586.0758690000002,586.0884955000001,586.0884955000001,586.0884955000001,586.0884955000001,588.0887995000003,588.0887995000003,588.0887995000003,588.0887995000003,588.0726992999998,3,None,1.0323142000006555,0.2333859999998822,,,,,,,,,,,,,,,,,,,,4626,1,2025-05-21_18h49.54.569,sm,2024.2.4,59.904165316333255,2025-05-21 18h50.14.385115 +0200,
79,0,79,,,,,,space,2.796763300000748,None,None,3,None,0.8806532999997216,0.22634629999993194,0,0,0,0,,,,,0,0,0,0,,,,,79,0,79,0,588.0887995000003,,,,,,,,,,,,,,,,,,,,,,,,,,,,,,,,,,,,,,,,,,,,,,,,,,,,,Datei,2.0842,588.0731728000001,588.0738113999996,588.0739136000002,588.0887995000003,590.1714641999997,590.1564046000003,590.1602866000003,590.1714641999997,590.1714641999997,590.1714641999997,590.1714641999997,592.1835462999998,592.1835462999998,592.1835462999998,592.1835462999998,592.1564862000005,3,None,0.8806532999997216,0.22634629999993194,,,,,,,,,,,,,,,,,,,,4626,1,2025-05-21_18h49.54.569,sm,2024.2.4,59.904165316333255,2025-05-21 18h50.14.385115 +0200,
0,0,0,,,,,2.1961,space,2.5909727999996903,None,None,3,None,0.9987585999997464,0.23919850000038423,0,0,0,0,,,,,1,0,1,0,0,79,79,75,0,0,0,0,639.1352230000002,,,,,,,,,,,,,,,,,,,,,,,,,,,,,,,,611.0979342999999,611.0981769,611.1044414999997,611.1091367999998,611.1091367999998,613.7075492000004,space,2.5909727999996903,None,613.7077269000001,613.7202067999997,613.7202067999997,627.1207806000002,None,627.1278270000003,627.1358522999999,627.1361652666667,628.3463406999999,637.1356235666665,638.1463471999996,639.1202765999997,Weihnachten,2.1961,639.1214477000003,639.1220475999999,639.1221427999999,639.1352230000002,641.3350722000005,641.3195707000004,641.3240538999999,641.3350722000005,641.3350722000005,641.3350722000005,641.3350722000005,643.3351787000001,643.3351787000001,643.3351787000001,643.3351787000001,643.3195842000005,3,None,0.9987585999997464,0.23919850000038423,604.1713700999999,604.1714468999999,None,604.1716071999999,604.1874561000004,604.1874561000004,611.0537427999998,2,6.854422899999918,None,639.1352230000002,,,,,,,,,4626,1,2025-05-21_18h49.54.569,sm,2024.2.4,59.904165316333255,2025-05-21 18h50.14.385115 +0200,
1,0,1,,,,,,space,2.5909727999996903,None,None,3,None,0.9672827999993387,0.20933340000010503,0,0,0,0,,,,,1,0,1,0,,,,,1,0,1,0,643.3351787000001,,,,,,,,,,,,,,,,,,,,,,,,,,,,,,,,,,,,,,,,,,,,,,,,,,,,,Beutel,2.9061,643.3200794000004,643.3207364,643.3208513999998,643.3351787000001,646.2512481000003,646.2363476999999,646.2395125000003,646.2512481000003,646.2512481000003,646.2512481000003,646.2512481000003,648.2516242000002,648.2516242000002,648.2516242000002,648.2516242000002,648.2361499999997,3,None,0.9672827999993387,0.20933340000010503,,,,,,,,,,,,,,,,,,,,4626,1,2025-05-21_18h49.54.569,sm,2024.2.4,59.904165316333255,2025-05-21 18h50.14.385115 +0200,
2,0,2,,,,,,space,2.5909727999996903,None,None,2,None,1.567861399999856,0.20237879999967845,0,0,0,0,,,,,1,0,1,0,,,,,2,0,2,0,648.2516242000002,,,,,,,,,,,,,,,,,,,,,,,,,,,,,,,,,,,,,,,,,,,,,,,,,,,,,Zirkus,2.1697,648.2366456999998,648.2372266000002,648.2373344999996,648.2516242000002,650.4344787,650.4190662999999,650.4233231999997,650.4344787,650.4344787,650.4344787,650.4344787,652.4347017999999,652.4347017999999,652.4347017999999,652.4347017999999,652.4191221000001,2,None,1.567861399999856,0.20237879999967845,,,,,,,,,,,,,,,,,,,,4626,1,2025-05-21_18h49.54.569,sm,2024.2.4,59.904165316333255,2025-05-21 18h50.14.385115 +0200,
3,0,3,,,,,,space,2.5909727999996903,None,None,3,None,0.7222007000000303,0.2548981999998432,0,0,0,0,,,,,1,0,1,0,,,,,3,0,3,0,652.4347017999999,,,,,,,,,,,,,,,,,,,,,,,,,,,,,,,,,,,,,,,,,,,,,,,,,,,,,Flut,2.1949,652.4196436000002,652.4204851000004,652.4206213999996,652.4347017999999,654.6346611999998,654.6187547,654.6224659999998,654.6346611999998,654.6346611999998,654.6346611999998,654.6346611999998,656.6343911000004,656.6343911000004,656.6343911000004,656.6343911000004,656.6188628,3,None,0.7222007000000303,0.2548981999998432,,,,,,,,,,,,,,,,,,,,4626,1,2025-05-21_18h49.54.569,sm,2024.2.4,59.904165316333255,2025-05-21 18h50.14.385115 +0200,
4,0,4,,,,,,space,2.5909727999996903,None,None,3,None,1.3496336999996856,0.2403970000004847,0,0,0,0,,,,,1,0,1,0,,,,,4,0,4,0,656.6343911000004,,,,,,,,,,,,,,,,,,,,,,,,,,,,,,,,,,,,,,,,,,,,,,,,,,,,,Bart,3.6723,656.6193658000002,656.6198924999999,656.6200023000001,656.6343911000004,660.3174773999999,660.3016123999996,660.3050087000001,660.3174773999999,660.3174773999999,660.3174773999999,660.3174773999999,662.3175338000001,662.3175338000001,662.3175338000001,662.3175338000001,662.3018115000004,3,None,1.3496336999996856,0.2403970000004847,,,,,,,,,,,,,,,,,,,,4626,1,2025-05-21_18h49.54.569,sm,2024.2.4,59.904165316333255,2025-05-21 18h50.14.385115 +0200,
5,0,5,,,,,,space,2.5909727999996903,None,None,3,None,0.7747823999998218,0.25492190000022674,0,0,0,0,,,,,1,0,1,0,,,,,5,0,5,0,662.3175338000001,,,,,,,,,,,,,,,,,,,,,,,,,,,,,,,,,,,,,,,,,,,,,,,,,,,,,Salz,2.83,662.3023125999998,662.3028191000003,662.3029298000001,662.3175338000001,665.1503272,665.1347071999999,665.1380368999999,665.1503272,665.1503272,665.1503272,665.1503272,667.1506496000002,667.1506496000002,667.1506496000002,667.1506496000002,667.1350335999996,3,None,0.7747823999998218,0.25492190000022674,,,,,,,,,,,,,,,,,,,,4626,1,2025-05-21_18h49.54.569,sm,2024.2.4,59.904165316333255,2025-05-21 18h50.14.385115 +0200,
6,0,6,,,,,,space,2.5909727999996903,None,None,3,None,0.8802023999996891,0.26001460000043153,0,0,0,0,,,,,1,0,1,0,,,,,6,0,6,0,667.1506496000002,,,,,,,,,,,,,,,,,,,,,,,,,,,,,,,,,,,,,,,,,,,,,,,,,,,,,Sicherheit,2.0589,667.1355338000003,667.1361925000001,667.1363085000003,667.1506496000002,669.2167307999998,669.2011603000001,669.2055387,669.2167307999998,669.2167307999998,669.2167307999998,669.2167307999998,671.2170581999999,671.2170581999999,671.2170581999999,671.2170581999999,671.2014621999997,3,None,0.8802023999996891,0.26001460000043153,,,,,,,,,,,,,,,,,,,,4626,1,2025-05-21_18h49.54.569,sm,2024.2.4,59.904165316333255,2025-05-21 18h50.14.385115 +0200,
7,0,7,,,,,,space,2.5909727999996903,None,None,2,None,1.0063842999998087,0.2004212000001644,0,0,0,0,,,,,1,0,1,0,,,,,7,0,7,0,671.2170581999999,,,,,,,,,,,,,,,,,,,,,,,,,,,,,,,,,,,,,,,,,,,,,,,,,,,,,Tischler,2.3362,671.2019566999998,671.2025047999996,671.2026094000003,671.2170581999999,673.5667476999997,673.5510351000003,673.5548669999998,673.5667476999997,673.5667476999997,673.5667476999997,673.5667476999997,675.5667237999996,675.5667237999996,675.5667237999996,675.5667237999996,675.5517049,2,None,1.0063842999998087,0.2004212000001644,,,,,,,,,,,,,,,,,,,,4626,1,2025-05-21_18h49.54.569,sm,2024.2.4,59.904165316333255,2025-05-21 18h50.14.385115 +0200,
8,0,8,,,,,,space,2.5909727999996903,None,None,3,None,0.8303427000000738,0.20751000000018394,0,0,0,0,,,,,1,0,1,0,,,,,8,0,8,0,675.5667237999996,,,,,,,,,,,,,,,,,,,,,,,,,,,,,,,,,,,,,,,,,,,,,,,,,,,,,Apfel,2.4916,675.5521994000001,675.5527175999996,675.5528241000002,675.5667237999996,678.0666365999996,678.0507263999998,678.0547871999997,678.0666365999996,678.0666365999996,678.0666365999996,678.0666365999996,680.0665305000002,680.0665305000002,680.0665305000002,680.0665305000002,680.0509960999998,3,None,0.8303427000000738,0.20751000000018394,,,,,,,,,,,,,,,,,,,,4626,1,2025-05-21_18h49.54.569,sm,2024.2.4,59.904165316333255,2025-05-21 18h50.14.385115 +0200,
9,0,9,,,,,,space,2.5909727999996903,None,None,2,None,0.8483201999997618,0.24836690000029193,0,0,0,0,,,,,1,0,1,0,,,,,9,0,9,0,680.0665305000002,,,,,,,,,,,,,,,,,,,,,,,,,,,,,,,,,,,,,,,,,,,,,,,,,,,,,Gast,2.9645,680.0515065999998,680.0520672000002,680.0521750999997,680.0665305000002,683.0327625999998,683.0171842,683.0218010999997,683.0327625999998,683.0327625999998,683.0327625999998,683.0327625999998,685.0328606000003,685.0328606000003,685.0328606000003,685.0328606000003,685.0172756000002,2,None,0.8483201999997618,0.24836690000029193,,,,,,,,,,,,,,,,,,,,4626,1,2025-05-21_18h49.54.569,sm,2024.2.4,59.904165316333255,2025-05-21 18h50.14.385115 +0200,
10,0,10,,,,,,space,2.5909727999996903,None,None,3,None,0.9614279000006718,0.2427505999994537,0,0,0,0,,,,,1,0,1,0,,,,,10,0,10,0,685.0328606000003,,,,,,,,,,,,,,,,,,,,,,,,,,,,,,,,,,,,,,,,,,,,,,,,,,,,,Wahrheit,3.6438,685.0177743000004,685.0182863999999,685.0183907,685.0328606000003,688.6825190999998,688.6667366000001,688.6703638999998,688.6825190999998,688.6825190999998,688.6825190999998,688.6825190999998,690.6822695000001,690.6822695000001,690.6822695000001,690.6822695000001,690.6667274000001,3,None,0.9614279000006718,0.2427505999994537,,,,,,,,,,,,,,,,,,,,4626,1,2025-05-21_18h49.54.569,sm,2024.2.4,59.904165316333255,2025-05-21 18h50.14.385115 +0200,
11,0,11,,,,,,space,2.5909727999996903,None,None,3,None,1.0152826000003188,0.21382529999937105,0,0,0,0,,,,,1,0,1,0,,,,,11,0,11,0,690.6822695000001,,,,,,,,,,,,,,,,,,,,,,,,,,,,,,,,,,,,,,,,,,,,,,,,,,,,,Bürste,2.5982,690.6672264999997,690.6678766000005,690.6679832999998,690.6822695000001,693.2822059,693.2670550000003,693.2707399000001,693.2822059,693.2822059,693.2822059,693.2822059,695.2821433999998,695.2821433999998,695.2821433999998,695.2821433999998,695.2663936999998,3,None,1.0152826000003188,0.21382529999937105,,,,,,,,,,,,,,,,,,,,4626,1,2025-05-21_18h49.54.569,sm,2024.2.4,59.904165316333255,2025-05-21 18h50.14.385115 +0200,
12,0,12,,,,,,space,2.5909727999996903,None,None,2,None,1.05644090000078,0.2488140999994357,0,0,0,0,,,,,1,0,1,0,,,,,12,0,12,0,695.2821433999998,,,,,,,,,,,,,,,,,,,,,,,,,,,,,,,,,,,,,,,,,,,,,,,,,,,,,Gruppe,2.6312,695.2668647999999,695.2673507999998,695.2674496,695.2821433999998,697.9150895000002,697.8995367999996,697.9036072999997,697.9150895000002,697.9150895000002,697.9150895000002,697.9150895000002,699.915446,699.915446,699.915446,699.915446,699.8994082999998,2,None,1.05644090000078,0.2488140999994357,,,,,,,,,,,,,,,,,,,,4626,1,2025-05-21_18h49.54.569,sm,2024.2.4,59.904165316333255,2025-05-21 18h50.14.385115 +0200,
13,0,13,,,,,,space,2.5909727999996903,None,None,3,None,0.813694100000248,0.24595509999926435,0,0,0,0,,,,,1,0,1,0,,,,,13,0,13,0,699.915446,,,,,,,,,,,,,,,,,,,,,,,,,,,,,,,,,,,,,,,,,,,,,,,,,,,,,Gewürz,2.0842,699.8998299000004,699.9002938000003,699.9003825999998,699.915446,702.0149413999998,701.9994825000003,702.0030328000003,702.0149413999998,702.0149413999998,702.0149413999998,702.0149413999998,704.0149425999998,704.0149425999998,704.0149425999998,704.0149425999998,703.9996146000003,3,None,0.813694100000248,0.24595509999926435,,,,,,,,,,,,,,,,,,,,4626,1,2025-05-21_18h49.54.569,sm,2024.2.4,59.904165316333255,2025-05-21 18h50.14.385115 +0200,
14,0,14,,,,,,space,2.5909727999996903,None,None,3,None,1.0458844999993744,0.21936730000015814,0,0,0,0,,,,,1,0,1,0,,,,,14,0,14,0,704.0149425999998,,,,,,,,,,,,,,,,,,,,,,,,,,,,,,,,,,,,,,,,,,,,,,,,,,,,,Blut,2.4521,704.0001079000003,704.0007476999999,704.0008510999996,704.0149425999998,706.4817315,706.4654412,706.4683535000004,706.4817315,706.4817315,706.4817315,706.4817315,708.4813626000005,708.4813626000005,708.4813626000005,708.4813626000005,708.4657195999998,3,None,1.0458844999993744,0.21936730000015814,,,,,,,,,,,,,,,,,,,,4626,1,2025-05-21_18h49.54.569,sm,2024.2.4,59.904165316333255,2025-05-21 18h50.14.385115 +0200,
15,0,15,,,,,,space,2.5909727999996903,None,None,3,None,0.8941494999999122,0.22538820000045234,0,0,0,0,,,,,1,0,1,0,,,,,15,0,15,0,708.4813626000005,,,,,,,,,,,,,,,,,,,,,,,,,,,,,,,,,,,,,,,,,,,,,,,,,,,,,Hilfe,2.5169,708.4662179999996,708.4668629999996,708.4669696000001,708.4813626000005,710.9974696999998,710.9821917999998,710.9855217000004,710.9974696999998,710.9974696999998,710.9974696999998,710.9974696999998,712.9978297999996,712.9978297999996,712.9978297999996,712.9978297999996,712.9822640000002,3,None,0.8941494999999122,0.22538820000045234,,,,,,,,,,,,,,,,,,,,4626,1,2025-05-21_18h49.54.569,sm,2024.2.4,59.904165316333255,2025-05-21 18h50.14.385115 +0200,
16,0,16,,,,,,space,2.5909727999996903,None,None,3,None,1.10273799999959,0.22879470000043511,0,0,0,0,,,,,1,0,1,0,,,,,16,0,16,0,712.9978297999996,,,,,,,,,,,,,,,,,,,,,,,,,,,,,,,,,,,,,,,,,,,,,,,,,,,,,Mäher,2.6097,712.9828009000003,712.9833706999998,712.9834756,712.9978297999996,715.6140124000003,715.5983262999998,715.6027185000003,715.6140124000003,715.6140124000003,715.6140124000003,715.6140124000003,717.6141011999998,717.6141011999998,717.6141011999998,717.6141011999998,717.5984694999997,3,None,1.10273799999959,0.22879470000043511,,,,,,,,,,,,,,,,,,,,4626,1,2025-05-21_18h49.54.569,sm,2024.2.4,59.904165316333255,2025-05-21 18h50.14.385115 +0200,
17,0,17,,,,,,space,2.5909727999996903,None,None,3,None,1.0338244999993549,0.2271546000001763,0,0,0,0,,,,,1,0,1,0,,,,,17,0,17,0,717.6141011999998,,,,,,,,,,,,,,,,,,,,,,,,,,,,,,,,,,,,,,,,,,,,,,,,,,,,,Feld,3.6564,717.5989664999997,717.5994860999999,717.5995955999997,717.6141011999998,721.2803618999997,721.2648744999997,721.2679699,721.2803618999997,721.2803618999997,721.2803618999997,721.2803618999997,723.2803973,723.2803973,723.2803973,723.2803973,723.2648809000002,3,None,1.0338244999993549,0.2271546000001763,,,,,,,,,,,,,,,,,,,,4626,1,2025-05-21_18h49.54.569,sm,2024.2.4,59.904165316333255,2025-05-21 18h50.14.385115 +0200,
18,0,18,,,,,,space,2.5909727999996903,None,None,2,None,0.8259766000001036,0.25829609999982495,0,0,0,0,,,,,1,0,1,0,,,,,18,0,18,0,723.2803973,,,,,,,,,,,,,,,,,,,,,,,,,,,,,,,,,,,,,,,,,,,,,,,,,,,,,Präsident,2.0934,723.2653805999998,723.2658879999999,723.2659986999997,723.2803973,725.3805533000004,725.3646993000002,725.3691478999999,725.3805533000004,725.3805533000004,725.3805533000004,725.3805533000004,727.3804553999998,727.3804553999998,727.3804553999998,727.3804553999998,727.3645385,2,None,0.8259766000001036,0.25829609999982495,,,,,,,,,,,,,,,,,,,,4626,1,2025-05-21_18h49.54.569,sm,2024.2.4,59.904165316333255,2025-05-21 18h50.14.385115 +0200,
19,0,19,,,,,,space,2.5909727999996903,None,None,2,None,1.0234902000001966,0.24830850000034843,0,0,0,0,,,,,1,0,1,0,,,,,19,0,19,0,727.3804553999998,,,,,,,,,,,,,,,,,,,,,,,,,,,,,,,,,,,,,,,,,,,,,,,,,,,,,Spion,2.9443,727.3649529000004,727.3657243999996,727.3658156000001,727.3804553999998,730.3296325000001,730.3143891,730.3182141999996,730.3296325000001,730.3296325000001,730.3296325000001,730.3296325000001,732.3300728000004,732.3300728000004,732.3300728000004,732.3300728000004,732.3142487000005,2,None,1.0234902000001966,0.24830850000034843,,,,,,,,,,,,,,,,,,,,4626,1,2025-05-21_18h49.54.569,sm,2024.2.4,59.904165316333255,2025-05-21 18h50.14.385115 +0200,
20,0,20,,,,,,space,2.5909727999996903,None,None,3,None,0.9949967000002289,0.2838862999997218,0,0,0,0,,,,,1,0,1,0,,,,,20,0,20,0,732.3300728000004,,,,,,,,,,,,,,,,,,,,,,,,,,,,,,,,,,,,,,,,,,,,,,,,,,,,,Schnee,2.0052,732.3146829999996,732.3151535999996,732.3152618000004,732.3300728000004,734.3464549,734.3305234999998,734.3337896000003,734.3464549,734.3464549,734.3464549,734.3464549,736.3463342000005,736.3463342000005,736.3463342000005,736.3463342000005,736.3311589000004,3,None,0.9949967000002289,0.2838862999997218,,,,,,,,,,,,,,,,,,,,4626,1,2025-05-21_18h49.54.569,sm,2024.2.4,59.904165316333255,2025-05-21 18h50.14.385115 +0200,
21,0,21,,,,,,space,2.5909727999996903,None,None,3,None,0.8431048000002193,0.24060310000004392,0,0,0,0,,,,,1,0,1,0,,,,,21,0,21,0,736.3463342000005,,,,,,,,,,,,,,,,,,,,,,,,,,,,,,,,,,,,,,,,,,,,,,,,,,,,,Spülung,2.021,736.3316525,736.3322230000003,736.3323300000002,736.3463342000005,738.379379,738.3641102000001,738.3679302999999,738.379379,738.379379,738.379379,738.379379,740.3799589,740.3799589,740.3799589,740.3799589,740.3640867000004,3,None,0.8431048000002193,0.24060310000004392,,,,,,,,,,,,,,,,,,,,4626,1,2025-05-21_18h49.54.569,sm,2024.2.4,59.904165316333255,2025-05-21 18h50.14.385115 +0200,
22,0,22,,,,,,space,2.5909727999996903,None,None,3,None,1.130358499999602,0.20905840000068565,0,0,0,0,,,,,1,0,1,0,,,,,22,0,22,0,740.3799589,,,,,,,,,,,,,,,,,,,,,,,,,,,,,,,,,,,,,,,,,,,,,,,,,,,,,Schläger,4.3942,740.3645886000004,740.3653303000001,740.3654361999997,740.3799589,744.7792148999997,744.7636855999999,744.7678543000002,744.7792148999997,744.7792148999997,744.7792148999997,744.7792148999997,746.7791951999998,746.7791951999998,746.7791951999998,746.7791951999998,746.7636555999998,3,None,1.130358499999602,0.20905840000068565,,,,,,,,,,,,,,,,,,,,4626,1,2025-05-21_18h49.54.569,sm,2024.2.4,59.904165316333255,2025-05-21 18h50.14.385115 +0200,
23,0,23,,,,,,space,2.5909727999996903,None,None,3,None,0.8174351999996361,0.23543559999961872,0,0,0,0,,,,,1,0,1,0,,,,,23,0,23,0,746.7791951999998,,,,,,,,,,,,,,,,,,,,,,,,,,,,,,,,,,,,,,,,,,,,,,,,,,,,,Raum,4.5959,746.7641722999997,746.7646961,746.7648007999996,746.7791951999998,751.3784277000004,751.3631848000005,751.3671364000002,751.3784277000004,751.3784277000004,751.3784277000004,751.3784277000004,753.3789183999997,753.3789183999997,753.3789183999997,753.3789183999997,753.3634203000001,3,None,0.8174351999996361,0.23543559999961872,,,,,,,,,,,,,,,,,,,,4626,1,2025-05-21_18h49.54.569,sm,2024.2.4,59.904165316333255,2025-05-21 18h50.14.385115 +0200,
24,0,24,,,,,,space,2.5909727999996903,None,None,2,None,1.411323700000139,0.22477729999991425,0,0,0,0,,,,,1,0,1,0,,,,,24,0,24,0,753.3789183999997,,,,,,,,,,,,,,,,,,,,,,,,,,,,,,,,,,,,,,,,,,,,,,,,,,,,,Tanne,3.039,753.3639185000002,753.3645789000002,753.3646988999999,753.3789183999997,756.4283273000001,756.4126364000003,756.4161725000004,756.4283273000001,756.4283273000001,756.4283273000001,756.4283273000001,758.4286916000001,758.4286916000001,758.4286916000001,758.4286916000001,758.4128699000003,2,None,1.411323700000139,0.22477729999991425,,,,,,,,,,,,,,,,,,,,4626,1,2025-05-21_18h49.54.569,sm,2024.2.4,59.904165316333255,2025-05-21 18h50.14.385115 +0200,
25,0,25,,,,,,space,2.5909727999996903,None,None,2,None,1.160598299999947,0.23748330000034912,0,0,0,0,,,,,1,0,1,0,,,,,25,0,25,0,758.4286916000001,,,,,,,,,,,,,,,,,,,,,,,,,,,,,,,,,,,,,,,,,,,,,,,,,,,,,Feuer,2.3229,758.4133829000002,758.4139425000003,758.4140573000004,758.4286916000001,760.7612594000002,760.7457376000002,760.7491653999996,760.7612594000002,760.7612594000002,760.7612594000002,760.7612594000002,762.7616029000001,762.7616029000001,762.7616029000001,762.7616029000001,762.7459335000003,2,None,1.160598299999947,0.23748330000034912,,,,,,,,,,,,,,,,,,,,4626,1,2025-05-21_18h49.54.569,sm,2024.2.4,59.904165316333255,2025-05-21 18h50.14.385115 +0200,
26,0,26,,,,,,space,2.5909727999996903,None,None,3,None,0.7347127000002729,0.2495186999994985,0,0,0,0,,,,,1,0,1,0,,,,,26,0,26,0,762.7616029000001,,,,,,,,,,,,,,,,,,,,,,,,,,,,,,,,,,,,,,,,,,,,,,,,,,,,,Nummer,3.0547,762.7464356,762.7469288000002,762.7470351000002,762.7616029000001,765.8278104000001,765.8121368000002,765.8158945000005,765.8278104000001,765.8278104000001,765.8278104000001,765.8278104000001,767.8282774999998,767.8282774999998,767.8282774999998,767.8282774999998,767.8120951999999,3,None,0.7347127000002729,0.2495186999994985,,,,,,,,,,,,,,,,,,,,4626,1,2025-05-21_18h49.54.569,sm,2024.2.4,59.904165316333255,2025-05-21 18h50.14.385115 +0200,
27,0,27,,,,,,space,2.5909727999996903,None,None,2,None,0.860265100000106,0.18853930000022956,0,0,0,0,,,,,1,0,1,0,,,,,27,0,27,0,767.8282774999998,,,,,,,,,,,,,,,,,,,,,,,,,,,,,,,,,,,,,,,,,,,,,,,,,,,,,Spinne,2.7992,767.8125974000004,767.8130994000003,767.8132036999996,767.8282774999998,770.6277210999997,770.6118032000004,770.6156695999998,770.6277210999997,770.6277210999997,770.6277210999997,770.6277210999997,772.6276571999997,772.6276571999997,772.6276571999997,772.6276571999997,772.6122268999998,2,None,0.860265100000106,0.18853930000022956,,,,,,,,,,,,,,,,,,,,4626,1,2025-05-21_18h49.54.569,sm,2024.2.4,59.904165316333255,2025-05-21 18h50.14.385115 +0200,
28,0,28,,,,,,space,2.5909727999996903,None,None,None,None,,,0,0,0,0,,,,,1,0,1,0,,,,,28,0,28,0,772.6276571999997,,,,,,,,,,,,,,,,,,,,,,,,,,,,,,,,,,,,,,,,,,,,,,,,,,,,,Finger,2.5377,772.6127256,772.6132364000005,772.613343,772.6276571999997,775.1774667999998,775.1618282999998,775.1660554,775.1774667999998,775.1774667999998,775.1774667999998,775.1774667999998,777.1773816000004,777.1773816000004,777.1773816000004,777.1773816000004,777.1618077000003,None,None,,,,,,,,,,,,,,,,,,,,,,4626,1,2025-05-21_18h49.54.569,sm,2024.2.4,59.904165316333255,2025-05-21 18h50.14.385115 +0200,
29,0,29,,,,,,space,2.5909727999996903,None,None,3,None,0.730134999999791,0.2497403999996095,0,0,0,0,,,,,1,0,1,0,,,,,29,0,29,0,777.1773816000004,,,,,,,,,,,,,,,,,,,,,,,,,,,,,,,,,,,,,,,,,,,,,,,,,,,,,Fahrrad,2.9832,777.1622774999996,777.1628160999999,777.1629229999999,777.1773816000004,780.1601312000003,780.1447286000002,780.1484570000002,780.1601312000003,780.1601312000003,780.1601312000003,780.1601312000003,782.1603354999997,782.1603354999997,782.1603354999997,782.1603354999997,782.1446643999998,3,None,0.730134999999791,0.2497403999996095,,,,,,,,,,,,,,,,,,,,4626,1,2025-05-21_18h49.54.569,sm,2024.2.4,59.904165316333255,2025-05-21 18h50.14.385115 +0200,
30,0,30,,,,,,space,2.5909727999996903,None,None,3,None,0.8735424000005878,0.2602633999995305,0,0,0,0,,,,,1,0,1,0,,,,,30,0,30,0,782.1603354999997,,,,,,,,,,,,,,,,,,,,,,,,,,,,,,,,,,,,,,,,,,,,,,,,,,,,,Schule,2.3006,782.1451708000004,782.1456773999998,782.1457842,782.1603354999997,784.4601788,784.4444935000001,784.4491182000002,784.4601788,784.4601788,784.4601788,784.4601788,786.4602199999999,786.4602199999999,786.4602199999999,786.4602199999999,786.4446928999996,3,None,0.8735424000005878,0.2602633999995305,,,,,,,,,,,,,,,,,,,,4626,1,2025-05-21_18h49.54.569,sm,2024.2.4,59.904165316333255,2025-05-21 18h50.14.385115 +0200,
31,0,31,,,,,,space,2.5909727999996903,None,None,3,None,0.7050590000008015,0.23273799999969924,0,0,0,0,,,,,1,0,1,0,,,,,31,0,31,0,786.4602199999999,,,,,,,,,,,,,,,,,,,,,,,,,,,,,,,,,,,,,,,,,,,,,,,,,,,,,Hügel,2.9036,786.4451952999998,786.4457006000002,786.4458049000004,786.4602199999999,789.3766777000001,789.3613173000003,789.3656153000002,789.3766777000001,789.3766777000001,789.3766777000001,789.3766777000001,791.3766609000004,791.3766609000004,791.3766609000004,791.3766609000004,791.3608272000001,3,None,0.7050590000008015,0.23273799999969924,,,,,,,,,,,,,,,,,,,,4626,1,2025-05-21_18h49.54.569,sm,2024.2.4,59.904165316333255,2025-05-21 18h50.14.385115 +0200,
32,0,32,,,,,,space,2.5909727999996903,None,None,3,None,0.9518803999999363,0.26360769999973854,0,0,0,0,,,,,1,0,1,0,,,,,32,0,32,0,791.3766609000004,,,,,,,,,,,,,,,,,,,,,,,,,,,,,,,,,,,,,,,,,,,,,,,,,,,,,Urlaub,3.6005,791.3613266000002,791.3618366000001,791.3619515999999,791.3766609000004,794.9763077999996,794.9606804000005,794.9671998000003,794.9763077999996,794.9763077999996,794.9763077999996,794.9763077999996,796.9763122000004,796.9763122000004,796.9763122000004,796.9763122000004,796.9605455999999,3,None,0.9518803999999363,0.26360769999973854,,,,,,,,,,,,,,,,,,,,4626,1,2025-05-21_18h49.54.569,sm,2024.2.4,59.904165316333255,2025-05-21 18h50.14.385115 +0200,
33,0,33,,,,,,space,2.5909727999996903,None,None,3,None,0.7823343999998542,0.24226900000030582,0,0,0,0,,,,,1,0,1,0,,,,,33,0,33,0,796.9763122000004,,,,,,,,,,,,,,,,,,,,,,,,,,,,,,,,,,,,,,,,,,,,,,,,,,,,,Arbeit,2.6446,796.9610408999997,796.9617761,796.9618879999998,796.9763122000004,799.6259246999998,799.6100669999996,799.6133020999996,799.6259246999998,799.6259246999998,799.6259246999998,799.6259246999998,801.6260312000004,801.6260312000004,801.6260312000004,801.6260312000004,801.6101920000001,3,None,0.7823343999998542,0.24226900000030582,,,,,,,,,,,,,,,,,,,,4626,1,2025-05-21_18h49.54.569,sm,2024.2.4,59.904165316333255,2025-05-21 18h50.14.385115 +0200,
34,0,34,,,,,,space,2.5909727999996903,None,None,3,None,0.8822093999997378,0.23133980000056908,0,0,0,0,,,,,1,0,1,0,,,,,34,0,34,0,801.6260312000004,,,,,,,,,,,,,,,,,,,,,,,,,,,,,,,,,,,,,,,,,,,,,,,,,,,,,Soße,2.9109,801.6106888000004,801.6112034999996,801.6113117000004,801.6260312000004,804.5423761000002,804.5269840999999,804.5313778,804.5423761000002,804.5423761000002,804.5423761000002,804.5423761000002,806.5421711999998,806.5421711999998,806.5421711999998,806.5421711999998,806.526887,3,None,0.8822093999997378,0.23133980000056908,,,,,,,,,,,,,,,,,,,,4626,1,2025-05-21_18h49.54.569,sm,2024.2.4,59.904165316333255,2025-05-21 18h50.14.385115 +0200,
35,0,35,,,,,,space,2.5909727999996903,None,None,3,None,1.0067215999997643,0.21944729999995616,0,0,0,0,,,,,1,0,1,0,,,,,35,0,35,0,806.5421711999998,,,,,,,,,,,,,,,,,,,,,,,,,,,,,,,,,,,,,,,,,,,,,,,,,,,,,Gabel,2.3861,806.5273866999996,806.5278994,806.5280054000004,806.5421711999998,808.9420837999996,808.9261828999997,808.9295791000004,808.9420837999996,808.9420837999996,808.9420837999996,808.9420837999996,810.9420843999997,810.9420843999997,810.9420843999997,810.9420843999997,810.9263683999998,3,None,1.0067215999997643,0.21944729999995616,,,,,,,,,,,,,,,,,,,,4626,1,2025-05-21_18h49.54.569,sm,2024.2.4,59.904165316333255,2025-05-21 18h50.14.385115 +0200,
36,0,36,,,,,,space,2.5909727999996903,None,None,3,None,0.7697400999995807,0.2323593000000983,0,0,0,0,,,,,1,0,1,0,,,,,36,0,36,0,810.9420843999997,,,,,,,,,,,,,,,,,,,,,,,,,,,,,,,,,,,,,,,,,,,,,,,,,,,,,Riechen,2.0168,810.9268776999997,810.9274421999999,810.9275504999996,810.9420843999997,812.9584680999997,812.9428926,812.9493972,812.9584680999997,812.9584680999997,812.9584680999997,812.9584680999997,814.9585119000003,814.9585119000003,814.9585119000003,814.9585119000003,814.9429362999999,3,None,0.7697400999995807,0.2323593000000983,,,,,,,,,,,,,,,,,,,,4626,1,2025-05-21_18h49.54.569,sm,2024.2.4,59.904165316333255,2025-05-21 18h50.14.385115 +0200,
37,0,37,,,,,,space,2.5909727999996903,None,None,2,None,0.9934472000004462,0.256294999999227,0,0,0,0,,,,,1,0,1,0,,,,,37,0,37,0,814.9585119000003,,,,,,,,,,,,,,,,,,,,,,,,,,,,,,,,,,,,,,,,,,,,,,,,,,,,,Elephant,3.9589,814.9434345999998,814.9439454000003,814.9440492000003,814.9585119000003,818.924943,818.9093290999999,818.9137110000001,818.924943,818.924943,818.924943,818.924943,820.9249417999999,820.9249417999999,820.9249417999999,820.9249417999999,820.9090432000003,2,None,0.9934472000004462,0.256294999999227,,,,,,,,,,,,,,,,,,,,4626,1,2025-05-21_18h49.54.569,sm,2024.2.4,59.904165316333255,2025-05-21 18h50.14.385115 +0200,
38,0,38,,,,,,space,2.5909727999996903,None,None,3,None,0.8350869999994757,0.22951079999984358,0,0,0,0,,,,,1,0,1,0,,,,,38,0,38,0,820.9249417999999,,,,,,,,,,,,,,,,,,,,,,,,,,,,,,,,,,,,,,,,,,,,,,,,,,,,,Waschbecken,2.5519,820.9095393999996,820.9100518000005,820.9101588000003,820.9249417999999,823.4910645999998,823.4758500999997,823.4804175999998,823.4910645999998,823.4910645999998,823.4910645999998,823.4910645999998,825.4911427999996,825.4911427999996,825.4911427999996,825.4911427999996,825.4755888999998,3,None,0.8350869999994757,0.22951079999984358,,,,,,,,,,,,,,,,,,,,4626,1,2025-05-21_18h49.54.569,sm,2024.2.4,59.904165316333255,2025-05-21 18h50.14.385115 +0200,
39,0,39,,,,,,space,2.5909727999996903,None,None,3,None,1.1066076000006433,0.22281459999976505,0,0,0,0,,,,,1,0,1,0,,,,,39,0,39,0,825.4911427999996,,,,,,,,,,,,,,,,,,,,,,,,,,,,,,,,,,,,,,,,,,,,,,,,,,,,,Tee,2.3419,825.4760933999996,825.4765930000003,825.4767062999999,825.4911427999996,827.8405843999999,827.8251246999998,827.8280176999997,827.8405843999999,827.8405843999999,827.8405843999999,827.8405843999999,829.8408497,829.8408497,829.8408497,829.8408497,829.8252898999999,3,None,1.1066076000006433,0.22281459999976505,,,,,,,,,,,,,,,,,,,,4626,1,2025-05-21_18h49.54.569,sm,2024.2.4,59.904165316333255,2025-05-21 18h50.14.385115 +0200,
40,0,40,,,,,,space,2.5909727999996903,None,None,3,None,1.3470815999999104,0.23228990000006888,0,0,0,0,,,,,1,0,1,0,,,,,40,0,40,0,829.8408497,,,,,,,,,,,,,,,,,,,,,,,,,,,,,,,,,,,,,,,,,,,,,,,,,,,,,Langsam,2.1831,829.8257888999997,829.8263004,829.8264139000003,829.8408497,832.0241834999997,832.0083635999999,832.0121737,832.0241834999997,832.0241834999997,832.0241834999997,832.0241834999997,834.0238169000004,834.0238169000004,834.0238169000004,834.0238169000004,834.0084229000004,3,None,1.3470815999999104,0.23228990000006888,,,,,,,,,,,,,,,,,,,,4626,1,2025-05-21_18h49.54.569,sm,2024.2.4,59.904165316333255,2025-05-21 18h50.14.385115 +0200,
41,0,41,,,,,,space,2.5909727999996903,None,None,3,None,0.8099265999999261,0.21632930000032502,0,0,0,0,,,,,1,0,1,0,,,,,41,0,41,0,834.0238169000004,,,,,,,,,,,,,,,,,,,,,,,,,,,,,,,,,,,,,,,,,,,,,,,,,,,,,Popcorn,2.3599,834.0089221999997,834.0095106999997,834.0096163999997,834.0238169000004,836.3904641999998,836.3746510999999,836.3781571999998,836.3904641999998,836.3904641999998,836.3904641999998,836.3904641999998,838.3903522,838.3903522,838.3903522,838.3903522,838.3747302000002,3,None,0.8099265999999261,0.21632930000032502,,,,,,,,,,,,,,,,,,,,4626,1,2025-05-21_18h49.54.569,sm,2024.2.4,59.904165316333255,2025-05-21 18h50.14.385115 +0200,
42,0,42,,,,,,space,2.5909727999996903,None,None,3,None,1.3743985000000976,0.24433200000021316,0,0,0,0,,,,,1,0,1,0,,,,,42,0,42,0,838.3903522,,,,,,,,,,,,,,,,,,,,,,,,,,,,,,,,,,,,,,,,,,,,,,,,,,,,,Knöchel,2.2129,838.3752270000005,838.3757434999998,838.3758485999997,838.3903522,840.6074957000001,840.5909677,840.5944923999996,840.6074957000001,840.6074957000001,840.6074957000001,840.6074957000001,842.6069230000003,842.6069230000003,842.6069230000003,842.6069230000003,842.5914172000003,3,None,1.3743985000000976,0.24433200000021316,,,,,,,,,,,,,,,,,,,,4626,1,2025-05-21_18h49.54.569,sm,2024.2.4,59.904165316333255,2025-05-21 18h50.14.385115 +0200,
43,0,43,,,,,,space,2.5909727999996903,None,None,3,None,1.0727240000005622,0.2577181999995446,0,0,0,0,,,,,1,0,1,0,,,,,43,0,43,0,842.6069230000003,,,,,,,,,,,,,,,,,,,,,,,,,,,,,,,,,,,,,,,,,,,,,,,,,,,,,Trocken,4.3756,842.5919178000004,842.5925516999996,842.5926569000003,842.6069230000003,846.9897516000001,846.9740324000004,846.9782679,846.9897516000001,846.9897516000001,846.9897516000001,846.9897516000001,848.9898743000003,848.9898743000003,848.9898743000003,848.9898743000003,848.9741623,3,None,1.0727240000005622,0.2577181999995446,,,,,,,,,,,,,,,,,,,,4626,1,2025-05-21_18h49.54.569,sm,2024.2.4,59.904165316333255,2025-05-21 18h50.14.385115 +0200,
44,0,44,,,,,,space,2.5909727999996903,None,None,3,None,1.3398796999999831,0.23736170000029233,0,0,0,0,,,,,1,0,1,0,,,,,44,0,44,0,848.9898743000003,,,,,,,,,,,,,,,,,,,,,,,,,,,,,,,,,,,,,,,,,,,,,,,,,,,,,Schwimmen,4.4767,848.9746642,848.9751710999999,848.9752780999997,848.9898743000003,853.4724493000003,853.4571189999997,853.4606922000003,853.4724493000003,853.4724493000003,853.4724493000003,853.4724493000003,855.4727867000001,855.4727867000001,855.4727867000001,855.4727867000001,855.4571249,3,None,1.3398796999999831,0.23736170000029233,,,,,,,,,,,,,,,,,,,,4626,1,2025-05-21_18h49.54.569,sm,2024.2.4,59.904165316333255,2025-05-21 18h50.14.385115 +0200,
45,0,45,,,,,,space,2.5909727999996903,None,None,2,None,1.3894906000004994,0.20578109999951266,0,0,0,0,,,,,1,0,1,0,,,,,45,0,45,0,855.4727867000001,,,,,,,,,,,,,,,,,,,,,,,,,,,,,,,,,,,,,,,,,,,,,,,,,,,,,Ei,3.189,855.4576281999998,855.4582527000002,855.4583585999999,855.4727867000001,858.6730233999997,858.6567728,858.6603048999996,858.6730233999997,858.6730233999997,858.6730233999997,858.6730233999997,860.6725663999996,860.6725663999996,860.6725663999996,860.6725663999996,860.6567616000002,2,None,1.3894906000004994,0.20578109999951266,,,,,,,,,,,,,,,,,,,,4626,1,2025-05-21_18h49.54.569,sm,2024.2.4,59.904165316333255,2025-05-21 18h50.14.385115 +0200,
46,0,46,,,,,,space,2.5909727999996903,None,None,3,None,1.1961654000006092,0.2482875999994576,0,0,0,0,,,,,1,0,1,0,,,,,46,0,46,0,860.6725663999996,,,,,,,,,,,,,,,,,,,,,,,,,,,,,,,,,,,,,,,,,,,,,,,,,,,,,Himmel,4.4429,860.6572624,860.6577674,860.6578719999998,860.6725663999996,865.1230197000004,865.1065122999998,865.1104292999999,865.1230197000004,865.1230197000004,865.1230197000004,865.1230197000004,867.1221144000001,867.1221144000001,867.1221144000001,867.1221144000001,867.1064170999998,3,None,1.1961654000006092,0.2482875999994576,,,,,,,,,,,,,,,,,,,,4626,1,2025-05-21_18h49.54.569,sm,2024.2.4,59.904165316333255,2025-05-21 18h50.14.385115 +0200,
47,0,47,,,,,,space,2.5909727999996903,None,None,2,None,1.5068439000006038,0.21578950000002806,0,0,0,0,,,,,1,0,1,0,,,,,47,0,47,0,867.1221144000001,,,,,,,,,,,,,,,,,,,,,,,,,,,,,,,,,,,,,,,,,,,,,,,,,,,,,Ozean,3.6297,867.1069219000001,867.1074311000002,867.1075400999998,867.1221144000001,870.7549301999998,870.7392646999997,870.7429110000003,870.7549301999998,870.7549301999998,870.7549301999998,870.7549301999998,872.7549257999999,872.7549257999999,872.7549257999999,872.7549257999999,872.7393026999998,2,None,1.5068439000006038,0.21578950000002806,,,,,,,,,,,,,,,,,,,,4626,1,2025-05-21_18h49.54.569,sm,2024.2.4,59.904165316333255,2025-05-21 18h50.14.385115 +0200,
48,0,48,,,,,,space,2.5909727999996903,None,None,3,None,1.0102311999999074,0.21201689999998052,0,0,0,0,,,,,1,0,1,0,,,,,48,0,48,0,872.7549257999999,,,,,,,,,,,,,,,,,,,,,,,,,,,,,,,,,,,,,,,,,,,,,,,,,,,,,Vers,2.7584,872.7397462999998,872.7404476000002,872.7405440000002,872.7549257999999,875.5213876999997,875.5060678,875.5098207999999,875.5213876999997,875.5213876999997,875.5213876999997,875.5213876999997,877.5213944999996,877.5213944999996,877.5213944999996,877.5213944999996,877.5061137000002,3,None,1.0102311999999074,0.21201689999998052,,,,,,,,,,,,,,,,,,,,4626,1,2025-05-21_18h49.54.569,sm,2024.2.4,59.904165316333255,2025-05-21 18h50.14.385115 +0200,
49,0,49,,,,,,space,2.5909727999996903,None,None,2,None,0.8201111000007586,0.23522759999923437,0,0,0,0,,,,,1,0,1,0,,,,,49,0,49,0,877.5213944999996,,,,,,,,,,,,,,,,,,,,,,,,,,,,,,,,,,,,,,,,,,,,,,,,,,,,,Journalistin,2.0031,877.5066141999996,877.5072645999999,877.5073701000001,877.5213944999996,879.5379792000003,879.5223112000003,879.5283915999998,879.5379792000003,879.5379792000003,879.5379792000003,879.5379792000003,881.5379033999998,881.5379033999998,881.5379033999998,881.5379033999998,881.5221750000001,2,None,0.8201111000007586,0.23522759999923437,,,,,,,,,,,,,,,,,,,,4626,1,2025-05-21_18h49.54.569,sm,2024.2.4,59.904165316333255,2025-05-21 18h50.14.385115 +0200,
50,0,50,,,,,,space,2.5909727999996903,None,None,3,None,1.3190208000005441,0.2315947999995842,0,0,0,0,,,,,1,0,1,0,,,,,50,0,50,0,881.5379033999998,,,,,,,,,,,,,,,,,,,,,,,,,,,,,,,,,,,,,,,,,,,,,,,,,,,,,Krone,3.6615,881.5227107000001,881.5232235000003,881.5233386,881.5379033999998,885.2042006000001,885.1884879999998,885.1919141999997,885.2042006000001,885.2042006000001,885.2042006000001,885.2042006000001,887.2045196999998,887.2045196999998,887.2045196999998,887.2045196999998,887.1883430999997,3,None,1.3190208000005441,0.2315947999995842,,,,,,,,,,,,,,,,,,,,4626,1,2025-05-21_18h49.54.569,sm,2024.2.4,59.904165316333255,2025-05-21 18h50.14.385115 +0200,
51,0,51,,,,,,space,2.5909727999996903,None,None,3,None,0.7501200000006065,0.24406579999958922,0,0,0,0,,,,,1,0,1,0,,,,,51,0,51,0,887.2045196999998,,,,,,,,,,,,,,,,,,,,,,,,,,,,,,,,,,,,,,,,,,,,,,,,,,,,,Klippe,2.3843,887.1888078000002,887.1893821000003,887.1894810000003,887.2045196999998,889.6041458999998,889.5887555999998,889.5931162999996,889.6041458999998,889.6041458999998,889.6041458999998,889.6041458999998,891.6039952000001,891.6039952000001,891.6039952000001,891.6039952000001,891.5882928999999,3,None,0.7501200000006065,0.24406579999958922,,,,,,,,,,,,,,,,,,,,4626,1,2025-05-21_18h49.54.569,sm,2024.2.4,59.904165316333255,2025-05-21 18h50.14.385115 +0200,
52,0,52,,,,,,space,2.5909727999996903,None,None,2,None,1.086468800000148,0.24608769999940705,0,0,0,0,,,,,1,0,1,0,,,,,52,0,52,0,891.6039952000001,,,,,,,,,,,,,,,,,,,,,,,,,,,,,,,,,,,,,,,,,,,,,,,,,,,,,Vulkan,2.3916,891.5887896000004,891.5893810999996,891.5894860999997,891.6039952000001,894.0036797000002,893.9880638000004,893.9919547999998,894.0036797000002,894.0036797000002,894.0036797000002,894.0036797000002,896.0038318999996,896.0038318999996,896.0038318999996,896.0038318999996,895.9881533999996,2,None,1.086468800000148,0.24608769999940705,,,,,,,,,,,,,,,,,,,,4626,1,2025-05-21_18h49.54.569,sm,2024.2.4,59.904165316333255,2025-05-21 18h50.14.385115 +0200,
53,0,53,,,,,,space,2.5909727999996903,None,None,3,None,1.0879012000004877,0.24108869999963645,0,0,0,0,,,,,1,0,1,0,,,,,53,0,53,0,896.0038318999996,,,,,,,,,,,,,,,,,,,,,,,,,,,,,,,,,,,,,,,,,,,,,,,,,,,,,Humor,2.8516,895.9886317999999,895.9891466999998,895.9892472000001,896.0038318999996,898.8701314999998,898.8544582000004,898.8585628999999,898.8701314999998,898.8701314999998,898.8701314999998,898.8701314999998,900.8700661000003,900.8700661000003,900.8700661000003,900.8700661000003,900.8545055000004,3,None,1.0879012000004877,0.24108869999963645,,,,,,,,,,,,,,,,,,,,4626,1,2025-05-21_18h49.54.569,sm,2024.2.4,59.904165316333255,2025-05-21 18h50.14.385115 +0200,
54,0,54,,,,,,space,2.5909727999996903,None,None,3,None,1.1351342999996632,0.21546529999977793,0,0,0,0,,,,,1,0,1,0,,,,,54,0,54,0,900.8700661000003,,,,,,,,,,,,,,,,,,,,,,,,,,,,,,,,,,,,,,,,,,,,,,,,,,,,,Rock,3.8592,900.8550048999996,900.8555096,900.8556159999998,900.8700661000003,904.7361910999998,904.7206568000001,904.7237446999998,904.7361910999998,904.7361910999998,904.7361910999998,904.7361910999998,906.7364754,906.7364754,906.7364754,906.7364754,906.7209683000001,3,None,1.1351342999996632,0.21546529999977793,,,,,,,,,,,,,,,,,,,,4626,1,2025-05-21_18h49.54.569,sm,2024.2.4,59.904165316333255,2025-05-21 18h50.14.385115 +0200,
55,0,55,,,,,,space,2.5909727999996903,None,None,3,None,1.224779099999978,0.24634309999964898,0,0,0,0,,,,,1,0,1,0,,,,,55,0,55,0,906.7364754,,,,,,,,,,,,,,,,,,,,,,,,,,,,,,,,,,,,,,,,,,,,,,,,,,,,,Strand,2.2639,906.7214716999997,906.7221569000003,906.7222632000003,906.7364754,909.0029617999999,908.9873459999999,908.9914224000004,909.0029617999999,909.0029617999999,909.0029617999999,909.0029617999999,911.0029652000003,911.0029652000003,911.0029652000003,911.0029652000003,910.9874085000001,3,None,1.224779099999978,0.24634309999964898,,,,,,,,,,,,,,,,,,,,4626,1,2025-05-21_18h49.54.569,sm,2024.2.4,59.904165316333255,2025-05-21 18h50.14.385115 +0200,
56,0,56,,,,,,space,2.5909727999996903,None,None,3,None,0.8507565999998405,0.2392656000001807,0,0,0,0,,,,,1,0,1,0,,,,,56,0,56,0,911.0029652000003,,,,,,,,,,,,,,,,,,,,,,,,,,,,,,,,,,,,,,,,,,,,,,,,,,,,,Rebe,2.1186,910.9879037999999,910.9884321,910.9885383000001,911.0029652000003,913.1359302000001,913.1201010000004,913.1237596999999,913.1359302000001,913.1359302000001,913.1359302000001,913.1359302000001,915.1357337,915.1357337,915.1357337,915.1357337,915.1202255999997,3,None,0.8507565999998405,0.2392656000001807,,,,,,,,,,,,,,,,,,,,4626,1,2025-05-21_18h49.54.569,sm,2024.2.4,59.904165316333255,2025-05-21 18h50.14.385115 +0200,
57,0,57,,,,,,space,2.5909727999996903,None,None,3,None,1.3625978000000032,0.22797570000057021,0,0,0,0,,,,,1,0,1,0,,,,,57,0,57,0,915.1357337,,,,,,,,,,,,,,,,,,,,,,,,,,,,,,,,,,,,,,,,,,,,,,,,,,,,,Konzert,2.7378,915.1207227000004,915.1213361999999,915.1214413999996,915.1357337,917.8854886999998,917.8701278999997,917.8739826999999,917.8854886999998,917.8854886999998,917.8854886999998,917.8854886999998,919.8855798000004,919.8855798000004,919.8855798000004,919.8855798000004,919.8699503999997,3,None,1.3625978000000032,0.22797570000057021,,,,,,,,,,,,,,,,,,,,4626,1,2025-05-21_18h49.54.569,sm,2024.2.4,59.904165316333255,2025-05-21 18h50.14.385115 +0200,
58,0,58,,,,,,space,2.5909727999996903,None,None,2,None,0.8743067000004885,0.23500749999948312,0,0,0,0,,,,,1,0,1,0,,,,,58,0,58,0,919.8855798000004,,,,,,,,,,,,,,,,,,,,,,,,,,,,,,,,,,,,,,,,,,,,,,,,,,,,,Geschwister,3.2825,919.8704584999996,919.8709709000004,919.8710787999999,919.8855798000004,923.1688488999998,923.1532293999999,923.1576252000004,923.1688488999998,923.1688488999998,923.1688488999998,923.1688488999998,925.1687429000003,925.1687429000003,925.1687429000003,925.1687429000003,925.1534755000002,2,None,0.8743067000004885,0.23500749999948312,,,,,,,,,,,,,,,,,,,,4626,1,2025-05-21_18h49.54.569,sm,2024.2.4,59.904165316333255,2025-05-21 18h50.14.385115 +0200,
59,0,59,,,,,,space,2.5909727999996903,None,None,2,None,0.7671680000003107,0.23837730000013835,0,0,0,0,,,,,1,0,1,0,,,,,59,0,59,0,925.1687429000003,,,,,,,,,,,,,,,,,,,,,,,,,,,,,,,,,,,,,,,,,,,,,,,,,,,,,Blumen,2.8901,925.1539691999997,925.1546097,925.1547158000003,925.1687429000003,928.0683801000005,928.0525531000003,928.0558048000003,928.0683801000005,928.0683801000005,928.0683801000005,928.0683801000005,930.0683737999998,930.0683737999998,930.0683737999998,930.0683737999998,930.0527212999996,2,None,0.7671680000003107,0.23837730000013835,,,,,,,,,,,,,,,,,,,,4626,1,2025-05-21_18h49.54.569,sm,2024.2.4,59.904165316333255,2025-05-21 18h50.14.385115 +0200,
60,0,60,,,,,,space,2.5909727999996903,None,None,3,None,1.2500985999995464,0.20949999999993452,0,0,0,0,,,,,1,0,1,0,,,,,60,0,60,0,930.0683737999998,,,,,,,,,,,,,,,,,,,,,,,,,,,,,,,,,,,,,,,,,,,,,,,,,,,,,Arm,2.8863,930.0532300000004,930.0537383999999,930.0538477999999,930.0683737999998,932.9681067000001,932.9527439000003,932.9556332000002,932.9681067000001,932.9681067000001,932.9681067000001,932.9681067000001,934.9681318000003,934.9681318000003,934.9681318000003,934.9681318000003,934.9525924,3,None,1.2500985999995464,0.20949999999993452,,,,,,,,,,,,,,,,,,,,4626,1,2025-05-21_18h49.54.569,sm,2024.2.4,59.904165316333255,2025-05-21 18h50.14.385115 +0200,
61,0,61,,,,,,space,2.5909727999996903,None,None,3,None,1.0191789000000426,0.24433769999996002,0,0,0,0,,,,,1,0,1,0,,,,,61,0,61,0,934.9681318000003,,,,,,,,,,,,,,,,,,,,,,,,,,,,,,,,,,,,,,,,,,,,,,,,,,,,,Kamera,3.1264,934.9530799000004,934.9537180999996,934.9538253999999,934.9681318000003,938.1011381999997,938.0856594999996,938.0897311999997,938.1011381999997,938.1011381999997,938.1011381999997,938.1011381999997,940.1010704,940.1010704,940.1010704,940.1010704,940.0856270000004,3,None,1.0191789000000426,0.24433769999996002,,,,,,,,,,,,,,,,,,,,4626,1,2025-05-21_18h49.54.569,sm,2024.2.4,59.904165316333255,2025-05-21 18h50.14.385115 +0200,
62,0,62,,,,,,space,2.5909727999996903,None,None,3,None,0.8805256999994526,0.2191953999999896,0,0,0,0,,,,,1,0,1,0,,,,,62,0,62,0,940.1010704,,,,,,,,,,,,,,,,,,,,,,,,,,,,,,,,,,,,,,,,,,,,,,,,,,,,,Ringe,4.0852,940.0861212999998,940.0866180000003,940.0867232999999,940.1010704,944.2008109999997,944.1851924000002,944.1887262999999,944.2008109999997,944.2008109999997,944.2008109999997,944.2008109999997,946.2007979,946.2007979,946.2007979,946.2007979,946.1851009000002,3,None,0.8805256999994526,0.2191953999999896,,,,,,,,,,,,,,,,,,,,4626,1,2025-05-21_18h49.54.569,sm,2024.2.4,59.904165316333255,2025-05-21 18h50.14.385115 +0200,
63,0,63,,,,,,space,2.5909727999996903,None,None,3,None,0.731271900000138,0.2343684999996185,0,0,0,0,,,,,1,0,1,0,,,,,63,0,63,0,946.2007979,,,,,,,,,,,,,,,,,,,,,,,,,,,,,,,,,,,,,,,,,,,,,,,,,,,,,Wanne,2.1743,946.1856041000001,946.1863518,946.1864667,946.2007979,948.3835332999997,948.3678003000005,948.3717428999998,948.3835332999997,948.3835332999997,948.3835332999997,948.3835332999997,950.3858258,950.3858258,950.3858258,950.3858258,950.3683745999997,3,None,0.731271900000138,0.2343684999996185,,,,,,,,,,,,,,,,,,,,4626,1,2025-05-21_18h49.54.569,sm,2024.2.4,59.904165316333255,2025-05-21 18h50.14.385115 +0200,
64,0,64,,,,,,space,2.5909727999996903,None,None,2,None,0.8061536000004708,0.22439349999967817,0,0,0,0,,,,,1,0,1,0,,,,,64,0,64,0,950.3858258,,,,,,,,,,,,,,,,,,,,,,,,,,,,,,,,,,,,,,,,,,,,,,,,,,,,,Student,3.0127,950.3688755000003,950.3693946000003,950.3694988999996,950.3858258,953.4005704000001,953.3848283999996,953.3888441999998,953.4005704000001,953.4005704000001,953.4005704000001,953.4005704000001,955.4003517000001,955.4003517000001,955.4003517000001,955.4003517000001,955.3845985999997,2,None,0.8061536000004708,0.22439349999967817,,,,,,,,,,,,,,,,,,,,4626,1,2025-05-21_18h49.54.569,sm,2024.2.4,59.904165316333255,2025-05-21 18h50.14.385115 +0200,
